PacketCounter,SampleTimeFine,Quat_W,Quat_X,Quat_Y,Quat_Z,Acc_X,Acc_Y,Acc_Z,Gyr_X,Gyr_Y,Gyr_Z 
2,2236017197,0.9214152,0.11959522,-0.04381036,0.36711305,0.013713642954826355,1.2405768632888794,5.718566417694092,-6.15814733505249,104.70633697509766, 4.413310527801514
3,2236033864,0.9224118,0.11583482,-0.021577377,0.36779526,-0.7197139263153076,1.2842646837234497,5.367312431335449,8.518308639526367,88.0715103149414, 0.7254677414894104
4,2236050531,0.92313236,0.112259194,0.0005291431,0.36772862,-1.1640760898590088,1.3946528434753418,5.787248611450195,15.547529220581055,73.1924819946289, -1.6600303649902344
5,2236067198,0.9234728,0.10896461,0.020377507,0.36730054,-1.3561491966247559,1.5834972858428955,5.79525089263916,16.470346450805664,58.05696487426758, -1.6174370050430298
6,2236083865,0.9235718,0.105715744,0.036593515,0.36674285,-1.6256558895111084,1.693334698677063,5.025066375732422,8.30911636352539,43.21139144897461, -0.8998313546180725
7,2236100532,0.9235419,0.10335724,0.04958111,0.36596355,-1.652500033378601,1.9847782850265503,3.915137529373169,4.118834495544434,28.204200744628906, -1.194361925125122
8,2236117199,0.9234025,0.10266037,0.059993844,0.36495158,-1.9775140285491943,1.874607801437378,3.5041821002960205,3.472797393798828,15.651469230651855, -2.0089850425720215
9,2236133866,0.92331773,0.10286393,0.06768901,0.36376056,-2.2259554862976074,2.088261842727661,3.084646224975586,1.3591442108154297,0.548784077167511, -2.136854648590088
10,2236150533,0.9232855,0.10408755,0.07310429,0.36244377,-2.360595703125,2.429234027862549,3.540802478790283,0.7065972089767456,-13.572344779968262, -1.7477476596832275
11,2236167200,0.92324555,0.106529705,0.0770177,0.36102274,-2.205514907836914,3.2006986141204834,5.046713829040527,3.722614049911499,-23.37822723388672, -1.3446437120437622
12,2236183867,0.9234704,0.107897535,0.07743297,0.35995147,-2.083841562271118,4.082637310028076,3.7763354778289795,-13.530717849731445,-38.78794860839844, 1.2180511951446533
13,2236200534,0.9246446,0.106036276,0.06663901,0.3596499,-1.7148828506469727,3.068732976913452,-13.947794914245605,-67.21751403808594,-98.44129180908203, 9.259744644165039
14,2236217201,0.92743623,0.11058199,0.032539707,0.35577393,18.342426300048828,-0.9864729642868042,-34.58342742919922,-96.3755111694336,-265.3342590332031, 2.8594560623168945
15,2236233868,0.92991024,0.11006486,-0.013099053,0.35068703,6.474963665008545,-5.420563220977783,16.432573318481445,-166.911376953125,-274.67706298828125, -5.019817352294922
16,2236250535,0.930612,0.114564404,-0.05405725,0.3433864,4.32086181640625,-5.666371822357178,-0.9527528882026672,-91.39453125,-250.76560974121094, -20.121681213378906
17,2236267202,0.92939764,0.11736437,-0.09511407,0.336748,-0.7412135601043701,-2.3816583156585693,1.5649665594100952,-86.41770935058594,-244.36900329589844, -12.253358840942383
18,2236283869,0.92697114,0.120931074,-0.1288912,0.33088872,0.5493459105491638,4.4790730476379395,3.738189697265625,-57.827823638916016,-207.459716796875, -10.306446075439453
19,2236300536,0.92734236,0.12377662,-0.15826342,0.315703,5.899624824523926,5.0762038230896,7.33922004699707,-48.75218963623047,-180.30540466308594, -21.499380111694336
20,2236317203,0.92450565,0.13146505,-0.18272628,0.3075995,10.575482368469238,2.89231538772583,8.797117233276367,-21.324262619018555,-163.90867614746094, -31.040897369384766
21,2236333870,0.920416,0.1405835,-0.20644362,0.3007519,11.700723648071289,-1.6283838748931885,10.399078369140625,-8.142447471618652,-158.044189453125, -22.90801429748535
22,2236350537,0.91583824,0.14568427,-0.22911945,0.29583943,9.896777153015137,-4.389504909515381,4.920831680297852,-23.350893020629883,-139.0458221435547, -7.524438858032227
23,2236367204,0.9108019,0.14935376,-0.24951947,0.29304183,10.503113746643066,-5.04421854019165,6.262816429138184,-18.535083770751953,-117.904541015625, 3.360138177871704
24,2236383871,0.9053309,0.1550815,-0.26584885,0.29266053,11.810017585754395,-4.902670383453369,8.675798416137695,11.904359817504883,-93.67909240722656, 8.29682445526123
25,2236400538,0.8990149,0.16553332,-0.278334,0.29479036,12.266834259033203,-4.40756368637085,9.545482635498047,58.27714157104492,-78.15286254882812, 9.711158752441406
26,2236417205,0.8913505,0.18099909,-0.28726658,0.30035272,11.705717086791992,-2.7140302658081055,12.799666404724121,107.21890258789062,-65.96076965332031, 17.14657211303711
27,2236433872,0.8831613,0.19800678,-0.2938558,0.30735707,10.156108856201172,0.1830632984638214,11.027778625488281,126.47477722167969,-57.307979583740234, 19.27041244506836
28,2236450539,0.8747046,0.21437429,-0.29905573,0.31543848,10.255975723266602,1.4410223960876465,11.839014053344727,127.64137268066406,-49.84683609008789, 25.606571197509766
29,2236467206,0.8676896,0.23159738,-0.29812932,0.3234139,11.299306869506836,3.4023168087005615,13.455242156982422,143.01268005371094,-15.391122817993164, 11.456025123596191
30,2236483873,0.86134166,0.24237132,-0.30177322,0.32905865,7.772452354431152,3.2490782737731934,13.603707313537598,87.40674591064453,-33.76523208618164, 17.688846588134766
31,2236500540,0.8542381,0.2503033,-0.31030124,0.3336744,7.236113548278809,2.8944642543792725,11.8300199508667,57.84770584106445,-63.62160873413086, 28.784381866455078
32,2236517207,0.84631926,0.25784883,-0.32221442,0.3368024,9.358284950256348,3.524585723876953,7.547591209411621,45.25436782836914,-90.01888275146484, 29.784364700317383
33,2236533874,0.8385355,0.26478112,-0.33489308,0.33852038,11.259459495544434,2.878451108932495,10.255769729614258,35.1981086730957,-95.84931945800781, 25.069734573364258
34,2236550541,0.8302635,0.2719602,-0.3470189,0.34099606,8.815838813781738,1.5013090372085571,13.774823188781738,39.86588668823242,-94.01158142089844, 29.602754592895508
35,2236567208,0.8206645,0.28136906,-0.35943615,0.34372532,9.21672248840332,1.7441893815994263,13.18736457824707,55.08671569824219,-106.52059173583984, 29.737144470214844
36,2236583875,0.81171656,0.28876624,-0.37231645,0.34512436,9.468734741210938,2.6257662773132324,13.433977127075195,38.01551818847656,-107.7756576538086, 26.949169158935547
37,2236600542,0.80317,0.29530394,-0.38511685,0.3455412,9.45548152923584,2.155904769897461,14.778115272521973,29.840595245361328,-108.48782348632812, 23.199134826660156
38,2236617209,0.79504293,0.3012517,-0.3968048,0.34597704,8.887689590454102,2.3005764484405518,16.01091766357422,28.390329360961914,-102.32672882080078, 22.09337615966797
39,2236633876,0.78779817,0.30691645,-0.40599418,0.34690797,8.70409107208252,2.939976692199707,16.127004623413086,32.344276428222656,-87.37689971923828, 18.87054443359375
40,2236650543,0.7823188,0.31085682,-0.41262597,0.34797338,8.193802833557129,2.743375778198242,15.279755592346191,25.716999053955078,-66.8365707397461, 15.569158554077148
41,2236667210,0.7781159,0.31360912,-0.4170402,0.34966066,8.026856422424316,2.3045544624328613,13.638629913330078,23.64043617248535,-49.352684020996094, 15.199252128601074
42,2236683877,0.7747476,0.31519344,-0.41994515,0.35222954,8.383973121643066,2.4985756874084473,11.743408203125,21.695068359375,-35.79353332519531, 18.572589874267578
43,2236700544,0.77187735,0.3161396,-0.42180407,0.35544696,8.272136688232422,2.323707342147827,10.522625923156738,21.434206008911133,-26.77303123474121, 20.963661193847656
44,2236717211,0.7689377,0.31730893,-0.42328092,0.3590032,8.167739868164062,2.524721145629883,8.575580596923828,24.459463119506836,-25.32565689086914, 21.95697021484375
45,2236733878,0.76625186,0.31823617,-0.42437473,0.36261547,9.161238670349121,3.4772350788116455,8.446107864379883,23.404207229614258,-21.921295166015625, 22.017887115478516
46,2236750545,0.7642047,0.31798568,-0.42584437,0.3654217,9.590548515319824,3.9846935272216797,9.468107223510742,12.10281753540039,-20.79042625427246, 21.059213638305664
47,2236767212,0.7626698,0.31720614,-0.4274602,0.3674139,9.429235458374023,3.8933231830596924,9.5070219039917,5.074139595031738,-20.601028442382812, 17.987035751342773
48,2236783879,0.7611443,0.31671667,-0.4287047,0.36954343,9.25828742980957,3.619082450866699,9.040586471557617,7.584421634674072,-19.161386489868164, 17.57649803161621
49,2236800546,0.7589712,0.31855756,-0.42831922,0.37286273,8.888481140136719,3.3875372409820557,7.772872447967529,28.543354034423828,-15.888297080993652, 15.545592308044434
50,2236817213,0.7566987,0.3210014,-0.4276717,0.37611467,9.538163185119629,4.389706611633301,6.676485061645508,32.093666076660156,-16.31497573852539, 13.590736389160156
51,2236833880,0.7546446,0.32382286,-0.42713022,0.3784313,10.013526916503906,4.702550411224365,5.935906410217285,30.1882381439209,-18.827743530273438, 7.892737865447998
52,2236850547,0.75312907,0.32620642,-0.4272126,0.37930915,10.4829740524292,4.652679920196533,5.678635120391846,20.514047622680664,-21.973779678344727, 2.266237735748291
53,2236867214,0.7523698,0.32751182,-0.42771998,0.37911925,9.981914520263672,3.580471992492676,6.565046787261963,8.68510913848877,-20.935270309448242, -0.6660722494125366
54,2236883881,0.75186765,0.3294618,-0.4270345,0.37919906,10.62083911895752,4.580559253692627,6.70411491394043,15.192765235900879,-14.719308853149414, -4.279286861419678
55,2236900548,0.7534648,0.32817122,-0.4263505,0.3779153,10.284708976745605,5.856687545776367,5.647218227386475,-10.52064037322998,-2.853231191635132, -6.95751428604126
56,2236917215,0.7584442,0.32115248,-0.4261392,0.37420455,10.362911224365234,5.039178848266602,5.321966171264648,-56.4730224609375,14.458847999572754, -10.071382522583008
57,2236933882,0.7652158,0.31246758,-0.42502537,0.36900204,9.58321475982666,4.253241062164307,6.212037086486816,-71.39745330810547,25.859148025512695, -19.42396354675293
58,2236950549,0.7731915,0.30462465,-0.4214579,0.36297655,8.9600830078125,3.5576071739196777,6.4370951652526855,-65.85137176513672,38.634864807128906, -34.50249099731445
59,2236967216,0.7824063,0.29771307,-0.41504028,0.35629892,9.443392753601074,3.8413050174713135,7.10495662689209,-58.30184555053711,53.878135681152344, -49.755523681640625
60,2236983883,0.79316795,0.29054502,-0.40578693,0.34900612,9.492382049560547,2.8853139877319336,7.38254976272583,-57.665000915527344,73.07872009277344, -61.920494079589844
61,2237000550,0.8049753,0.28361282,-0.39341453,0.3417657,9.69886589050293,1.677829384803772,6.840967178344727,-50.864532470703125,94.01576232910156, -71.43634796142578
62,2237017217,0.8173514,0.27630138,-0.37836528,0.33531165,10.313214302062988,0.5548056960105896,7.154682159423828,-45.775917053222656,115.5968017578125, -73.34494018554688
63,2237033884,0.8298872,0.2686246,-0.3610005,0.32985926,10.175943374633789,-0.6437301635742188,7.108945846557617,-40.30738830566406,134.09718322753906, -72.13156127929688
64,2237050551,0.8421792,0.2611383,-0.34125048,0.32571325,9.350372314453125,-1.766017198562622,7.1471076011657715,-30.201723098754883,150.5194091796875, -69.35726928710938
65,2237067218,0.8537094,0.25477457,-0.31912893,0.32315195,8.65326976776123,-1.5529335737228394,7.165322303771973,-13.352972030639648,163.5605926513672, -65.53878784179688
66,2237083885,0.8651227,0.2470033,-0.295356,0.32142955,7.89648962020874,-1.7492799758911133,7.155007362365723,-15.954012870788574,177.9876251220703, -60.20884323120117
67,2237100552,0.87638617,0.23689535,-0.27025375,0.3206107,7.230517387390137,-1.9779295921325684,7.300339221954346,-24.865840911865234,192.49061584472656, -52.025596618652344
68,2237117219,0.8869148,0.22582664,-0.2436854,0.3209395,6.740108966827393,-1.8336507081985474,7.639252662658691,-24.120208740234375,204.05081176757812, -44.08876419067383
69,2237133886,0.8964929,0.2138305,-0.21638826,0.32210788,6.585812568664551,-1.3991111516952515,7.120185852050781,-25.303205490112305,210.30831909179688, -36.434940338134766
70,2237150553,0.90529406,0.19972368,-0.1893217,0.3235905,6.441442012786865,-0.3397943675518036,6.547946453094482,-37.236759185791016,212.90692138671875, -29.285642623901367
71,2237167220,0.91321665,0.1834453,-0.16286379,0.32535917,5.718791961669922,-0.3303743004798889,5.802453994750977,-50.554908752441406,213.23023986816406, -21.87159538269043
72,2237183887,0.9198765,0.16693047,-0.13649629,0.327613,5.095791339874268,0.02991500496864319,6.046639919281006,-50.12317657470703,212.41014099121094, -15.608837127685547
73,2237200554,0.92513555,0.15168871,-0.10985901,0.33022076,4.6036601066589355,0.4669005870819092,6.2294721603393555,-39.53604507446289,210.3502960205078, -11.708231925964355
74,2237217221,0.92918974,0.13770525,-0.083315246,0.33271977,4.089062690734863,1.3103176355361938,6.260030746459961,-30.582250595092773,205.8799285888672, -10.508617401123047
75,2237233888,0.9337238,0.12358523,-0.05798022,0.33094582,3.5854873657226562,2.026688575744629,7.342010974884033,-30.640892028808594,200.59027099609375, -8.921175956726074
76,2237250555,0.9369629,0.11013813,-0.033189844,0.3299526,3.241990804672241,2.3177196979522705,7.515559196472168,-29.3157901763916,193.73403930664062, -9.329988479614258
77,2237267222,0.9390837,0.097787485,-0.009309496,0.3293521,2.660767078399658,1.448864221572876,6.058574199676514,-24.99823570251465,184.4523468017578, -8.07094669342041
78,2237283889,0.9400464,0.08912248,0.013288142,0.3289279,2.47702693939209,1.4925631284713745,5.0892486572265625,-4.23533821105957,167.50299072265625, -5.250700950622559
79,2237300556,0.9395869,0.082391106,0.034048103,0.33049798,1.2183510065078735,1.3721463680267334,4.635073184967041,3.988950490951538,150.03762817382812, -2.1709253787994385
80,2237317223,0.9385465,0.078797676,0.053426594,0.33176336,0.33050528168678284,1.732049822807312,4.661433219909668,21.51740264892578,133.93820190429688, -1.3015682697296143
81,2237333890,0.937252,0.07746084,0.0708133,0.33248207,-0.7841426134109497,1.8442541360855103,4.590355396270752,31.86740493774414,115.72307586669922, -2.340888738632202
82,2237350557,0.93602055,0.07816448,0.085196994,0.33241162,-1.625335693359375,1.687915325164795,3.228411912918091,38.495426177978516,91.23816680908203, -4.974811553955078
83,2237367224,0.9350681,0.07985489,0.095649235,0.3318469,-2.2588236331939697,1.650990605354309,2.4997479915618896,35.99379348754883,63.2314453125, -6.099137306213379
84,2237383891,0.9347838,0.080299795,0.10078828,0.33101857,-2.664472818374634,1.650992751121521,1.164742112159729,15.66458511352539,31.308061599731445, -7.215936183929443
85,2237400558,0.9353275,0.07897998,0.10095237,0.32974762,-2.6525464057922363,2.183997869491577,1.1320152282714844,-7.15701150894165,2.509719133377075, -10.415998458862305
86,2237417225,0.93639374,0.07723275,0.09691251,0.32834426,-2.6160552501678467,2.2483043670654297,1.6480931043624878,-19.63897132873535,-24.00888442993164, -10.46205997467041
87,2237433892,0.9378553,0.07452481,0.089550555,0.3268859,-2.5635271072387695,2.3327505588531494,2.9350578784942627,-33.505340576171875,-43.53582000732422, -10.58205509185791
88,2237450559,0.93946725,0.07213968,0.08002093,0.32526052,-2.044896125793457,2.6248698234558105,4.55859375,-36.27572250366211,-58.42814254760742, -10.685480117797852
89,2237467226,0.94129854,0.068479754,0.0683441,0.32341495,-1.4608666896820068,2.7542786598205566,4.18886137008667,-49.30517578125,-69.68016815185547, -12.23302173614502
90,2237483893,0.9433846,0.06126367,0.049555015,0.3222063,-2.0757389068603516,1.8637831211090088,-7.226163387298584,-88.56581115722656,-107.62548065185547, -7.000443458557129
91,2237500560,0.94501716,0.062098775,0.011807437,0.3208537,13.468497276306152,-4.296848773956299,-31.87215232849121,-78.13203430175781,-248.40057373046875, 3.8063104152679443
92,2237517227,0.9463922,0.05642064,-0.03249799,0.31639028,11.77125358581543,-4.641653060913086,11.760892868041992,-134.57078552246094,-277.83099365234375, -13.588743209838867
93,2237533894,0.94618404,0.0569897,-0.070892446,0.31058356,3.3992886543273926,-3.2112905979156494,2.3018150329589844,-80.6597900390625,-253.69525146484375, -22.590333938598633
94,2237550561,0.94445723,0.05612493,-0.110726155,0.3042869,3.2605578899383545,-4.890763282775879,-2.1872737407684326,-92.66832733154297,-260.9268493652344, -21.227018356323242
95,2237567228,0.94112736,0.059736133,-0.1438931,0.30000976,-2.508746862411499,1.6759257316589355,6.726027965545654,-49.69412612915039,-227.65399169921875, -18.861984252929688
96,2237583895,0.9377902,0.06204796,-0.17260374,0.2948011,3.54811954498291,4.998960018157959,6.658018112182617,-51.37104034423828,-196.54342651367188, -28.25422477722168
97,2237600562,0.934685,0.07016386,-0.19643223,0.2878465,8.660123825073242,4.330463409423828,7.089984893798828,-2.5177505016326904,-177.09298706054688, -38.036861419677734
98,2237617229,0.9305464,0.07681374,-0.21853423,0.2835951,10.58614444732666,0.14730864763259888,10.010757446289062,-4.4128594398498535,-163.1351776123047, -17.450796127319336
99,2237633896,0.92634374,0.082133144,-0.2377707,0.280369,10.48918628692627,-3.4268317222595215,6.830523490905762,-5.756966590881348,-141.71592712402344, -10.283602714538574
100,2237650563,0.9218778,0.089522645,-0.25338617,0.27914613,9.343806266784668,-3.882417678833008,5.64068078994751,17.87081527709961,-121.89356231689453, -2.4705283641815186
101,2237667230,0.91736627,0.0984815,-0.26558733,0.2796501,11.004096984863281,-4.973757743835449,7.701864719390869,37.44475555419922,-102.2480697631836, 3.698110342025757
102,2237683897,0.9126392,0.109952934,-0.27458817,0.28213787,12.267592430114746,-4.832510948181152,9.55953598022461,63.258445739746094,-85.91500091552734, 9.831788063049316
103,2237700564,0.90750235,0.12408524,-0.28075156,0.28674215,12.25033187866211,-3.3163881301879883,11.6764554977417,89.80423736572266,-72.42510986328125, 16.698951721191406
104,2237717231,0.90198535,0.13886946,-0.28500372,0.29310557,11.66413402557373,-0.27742791175842285,13.142630577087402,101.38500213623047,-61.01978302001953, 25.50629425048828
105,2237733898,0.89581966,0.15450051,-0.2886044,0.30057335,10.639925003051758,1.700542688369751,12.453607559204102,110.73216247558594,-58.92449951171875, 31.37333106994629
106,2237750565,0.88952273,0.16865231,-0.29254156,0.30777445,10.695928573608398,3.5263614654541016,12.5083646774292,100.51762390136719,-58.51013946533203, 33.30113983154297
107,2237767232,0.8838676,0.18045317,-0.2964752,0.31355575,10.341939926147461,4.04232931137085,14.566413879394531,82.51715850830078,-53.89273452758789, 28.004772186279297
108,2237783899,0.8791964,0.1930795,-0.29746708,0.31819427,9.40114688873291,4.111660480499268,16.456737518310547,90.3016128540039,-37.25365447998047, 13.63028335571289
109,2237800566,0.8735421,0.20598826,-0.30056012,0.32273358,6.4111328125,2.15702223777771,11.15947151184082,88.49976348876953,-52.78721618652344, 17.416810989379883
110,2237817233,0.8650662,0.2201375,-0.30977097,0.3274785,8.737038612365723,3.5218451023101807,4.544768333435059,86.79627227783203,-97.8769302368164, 31.02556800842285
111,2237833900,0.857314,0.22854818,-0.32295513,0.32936105,12.2932710647583,4.08690071105957,5.674977779388428,36.49567413330078,-111.33694458007812, 30.62100601196289
112,2237850567,0.85042965,0.23293833,-0.3371504,0.32990775,10.158546447753906,1.6008095741271973,11.883048057556152,6.15010929107666,-108.30355072021484, 31.308992385864258
113,2237867234,0.8423174,0.24142027,-0.35007325,0.33115923,8.757574081420898,3.134455680847168,15.488137245178223,36.5782356262207,-111.90445709228516, 26.685409545898438
114,2237883901,0.8354084,0.24695894,-0.36314952,0.3304944,9.863987922668457,5.470707893371582,15.528766632080078,12.582849502563477,-106.47750091552734, 20.20176887512207
115,2237900568,0.8301028,0.24904884,-0.37590852,0.3280197,8.927629470825195,3.1274702548980713,16.291385650634766,-13.754844665527344,-95.97835540771484, 14.274805068969727
116,2237917235,0.8243572,0.25288084,-0.3875719,0.3259982,8.432328224182129,2.873631238937378,15.952360153198242,0.5993497967720032,-94.12700653076172, 11.488038063049316
117,2237933902,0.81943357,0.256466,-0.39679056,0.3245167,8.721122741699219,2.6991875171661377,14.733412742614746,4.705427646636963,-76.69994354248047, 9.126630783081055
118,2237950569,0.81450933,0.26218504,-0.40315482,0.32449946,8.705962181091309,1.7401068210601807,12.935367584228516,27.105518341064453,-62.89127731323242, 6.533236026763916
119,2237967236,0.8092301,0.2699576,-0.40722567,0.32624674,8.489598274230957,2.190889358520508,11.954047203063965,49.2697868347168,-52.50052261352539, 7.382208347320557
120,2237983903,0.8044195,0.27663547,-0.4103268,0.3286551,8.327720642089844,2.5558650493621826,10.42199420928955,46.34519577026367,-42.167755126953125, 11.284214973449707
121,2238000570,0.799639,0.2835727,-0.4123315,0.33188397,8.311264038085938,2.6453776359558105,9.688284873962402,52.5177116394043,-35.0822639465332, 12.951281547546387
122,2238017237,0.7952551,0.29064626,-0.4133542,0.33501133,8.139249801635742,2.832460403442383,9.351191520690918,54.44812774658203,-29.09728240966797, 9.202686309814453
123,2238033904,0.79185694,0.2961358,-0.4142053,0.33719486,8.334092140197754,3.2333719730377197,9.550971984863281,41.530235290527344,-23.62409210205078, 5.947271823883057
124,2238050571,0.7896997,0.29908478,-0.41537344,0.33821234,8.499957084655762,3.100404739379883,8.885589599609375,21.117094039916992,-18.33340072631836, 4.621433258056641
125,2238067238,0.78800017,0.3011447,-0.41591164,0.33968395,8.707387924194336,2.600546360015869,9.423054695129395,18.10903549194336,-10.628085136413574, 7.279160499572754
126,2238083905,0.78648084,0.3027986,-0.4159097,0.34173086,8.781278610229492,2.7351839542388916,9.536553382873535,18.44870948791504,-5.079659461975098, 10.023296356201172
127,2238100572,0.7853503,0.30467674,-0.41517028,0.34355587,8.571687698364258,3.6359002590179443,8.23379898071289,19.955339431762695,-1.005056619644165, 5.740985870361328
128,2238117239,0.7848794,0.30555052,-0.4145334,0.3446236,8.917045593261719,3.495499849319458,6.234990119934082,10.73866081237793,1.0939252376556396, 3.196126937866211
129,2238133906,0.78410435,0.30787748,-0.41315743,0.34596664,9.70799732208252,3.8810548782348633,6.32155179977417,21.743894577026367,1.370826005935669, -0.2754010260105133
130,2238150573,0.78338194,0.31059438,-0.41160113,0.34702802,9.72428035736084,3.992997884750366,7.672570705413818,23.349023818969727,0.992244303226471, -3.3900139331817627
131,2238167240,0.78240144,0.31432515,-0.4102193,0.34751692,9.92000961303711,4.00690221786499,6.77574348449707,27.31706428527832,-4.323935508728027, -8.3323974609375
132,2238183907,0.78217906,0.3178047,-0.40821126,0.34721726,10.977622032165527,4.525881767272949,6.677093982696533,23.590246200561523,0.09159765392541885, -15.011756896972656
133,2238200574,0.7832741,0.31919265,-0.40564618,0.346481,11.951702117919922,5.276956081390381,6.7511115074157715,9.55466079711914,10.845170974731445, -15.83176040649414
134,2238217241,0.78772694,0.31382927,-0.40347275,0.34381303,11.10925579071045,6.274843692779541,6.184643745422363,-40.51387023925781,29.969152450561523, -14.52336311340332
135,2238233908,0.79574543,0.30094147,-0.40182137,0.33876675,10.43132209777832,4.469526767730713,5.592122554779053,-96.82977294921875,49.71055603027344, -13.802386283874512
136,2238250575,0.80497843,0.28733397,-0.39805508,0.3331682,9.627937316894531,2.425888776779175,6.29438591003418,-99.90351867675781,65.19630432128906, -22.041383743286133
137,2238267242,0.814109,0.27692306,-0.39123565,0.32783368,9.550371170043945,2.3477137088775635,6.712873458862305,-74.2896957397461,75.02044677734375, -35.15302658081055
138,2238283909,0.8238564,0.26824147,-0.3816719,0.32192194,9.591292381286621,2.291792154312134,7.226003170013428,-61.14752197265625,87.05121612548828, -49.675052642822266
139,2238300576,0.8341549,0.26029372,-0.36925206,0.31636336,9.602157592773438,1.1477077007293701,7.478790760040283,-50.752410888671875,103.70814514160156, -56.109130859375
140,2238317243,0.84491,0.25245067,-0.35367924,0.31194043,10.046963691711426,0.29871052503585815,7.459560394287109,-41.20625686645508,124.7674789428711, -56.537662506103516
141,2238333910,0.85589623,0.24464597,-0.33495733,0.3088583,9.867737770080566,-0.17094916105270386,7.855241298675537,-31.336881637573242,145.90025329589844, -54.85704803466797
142,2238350577,0.86644614,0.23775049,-0.3135525,0.30729598,9.143080711364746,-1.0045751333236694,7.651270389556885,-16.01210594177246,161.34371948242188, -51.649871826171875
143,2238367244,0.87627935,0.23220682,-0.28974524,0.30702183,8.233136177062988,-0.9880833625793457,6.794443130493164,1.1245070695877075,173.40025329589844, -49.36477279663086
144,2238383911,0.8859347,0.22558893,-0.26451206,0.30702266,7.952073097229004,-0.8565671443939209,6.510067462921143,-1.4500435590744019,184.39779663085938, -47.52030563354492
145,2238400578,0.8949046,0.21848853,-0.23856495,0.3074008,7.599646091461182,-0.478471577167511,6.2525858879089355,-1.0793217420578003,189.16822814941406, -44.0506591796875
146,2238417245,0.90372413,0.20809199,-0.21310481,0.3075172,6.881065845489502,-0.1386861354112625,6.586139678955078,-22.54857063293457,192.57400512695312, -39.24201583862305
147,2238433912,0.9119398,0.19541845,-0.18826328,0.3077899,5.904256820678711,-0.3402259945869446,5.911694049835205,-36.87024688720703,192.95068359375, -32.79764938354492
148,2238450579,0.91958797,0.18037042,-0.1640432,0.30808172,5.506682395935059,0.5522885918617249,5.873901844024658,-52.24546432495117,193.43800354003906, -27.588804244995117
149,2238467246,0.92643386,0.16341826,-0.14038001,0.30872104,5.081254005432129,0.28632068634033203,6.101743221282959,-64.05780792236328,193.5482940673828, -20.857398986816406
150,2238483913,0.93221134,0.1459674,-0.116624795,0.3099584,4.111725330352783,0.060595717281103134,6.289308071136475,-65.23529815673828,194.903076171875, -14.403868675231934
151,2238500580,0.93671316,0.12965791,-0.09213915,0.3118778,3.697101354598999,0.458421915769577,6.989687919616699,-54.503665924072266,196.86495971679688, -8.95729923248291
152,2238517247,0.9401267,0.113671355,-0.06742991,0.31415617,3.269505262374878,1.5222718715667725,7.645999431610107,-50.724849700927734,197.28858947753906, -4.701771259307861
153,2238533914,0.9426134,0.09804365,-0.043493044,0.31618986,2.9470407962799072,1.8627440929412842,6.941701412200928,-49.07392120361328,191.29580688476562, -1.636953592300415
154,2238550581,0.9438238,0.08449134,-0.02051464,0.31880555,2.461367130279541,1.3266035318374634,6.386256694793701,-37.08865737915039,180.27212524414062, 2.7705938816070557
155,2238567248,0.9440135,0.07353825,0.0013511732,0.32160342,2.608153820037842,1.7280579805374146,5.796642780303955,-22.05494499206543,167.3603973388672, 6.484359264373779
156,2238583915,0.9434274,0.063764945,0.022274442,0.32462725,1.8012452125549316,1.1620988845825195,6.135880947113037,-16.122116088867188,158.818603515625, 10.16232681274414
157,2238600582,0.94227636,0.05836239,0.042672396,0.3269376,0.9592928290367126,1.5304558277130127,5.0313825607299805,11.401318550109863,145.4734344482422, 7.699634552001953
158,2238617249,0.9409601,0.05579902,0.06121501,0.32822755,-0.32200413942337036,1.3319231271743774,4.459808349609375,25.961008071899414,126.73518371582031, 3.039914131164551
159,2238633916,0.93964696,0.056213815,0.07730742,0.3285231,-1.3183889389038086,1.6116119623184204,3.993156671524048,40.090919494628906,103.76699829101562, -1.205014705657959
160,2238650583,0.9384926,0.05731193,0.0896747,0.32848996,-1.869242548942566,1.6871161460876465,3.5191659927368164,36.16901397705078,77.90343475341797, -1.88054621219635
161,2238667250,0.937693,0.05701013,0.0976418,0.32855424,-2.6281182765960693,1.7573806047439575,3.3685011863708496,16.959753036499023,52.43427276611328, -1.1761605739593506
162,2238683917,0.93755394,0.055951495,0.10133757,0.3280134,-2.849195718765259,2.2023677825927734,2.204613208770752,2.538999557495117,25.843563079833984, -5.394892692565918
163,2238700584,0.9380005,0.05475881,0.10126587,0.32695892,-2.809004545211792,1.7803503274917603,1.906162142753601,-6.749704837799072,1.1612098217010498, -8.659029960632324
164,2238717251,0.9389122,0.05280483,0.09758117,0.3257815,-2.5234224796295166,2.016660213470459,2.5616397857666016,-19.91920280456543,-20.892513275146484, -9.655661582946777
165,2238733918,0.9400723,0.050316438,0.09099364,0.32473502,-2.596277952194214,1.7285242080688477,3.734238624572754,-30.101743698120117,-38.63374328613281, -8.663763999938965
166,2238750585,0.9413015,0.049165923,0.08271773,0.32356152,-2.2248785495758057,1.8567020893096924,4.790968418121338,-25.20578956604004,-52.69921875, -8.208649635314941
167,2238767252,0.94252187,0.048922148,0.07422837,0.3221015,-1.7742464542388916,2.3914194107055664,6.981625080108643,-19.683740615844727,-56.250282287597656, -9.446738243103027
168,2238783919,0.9437628,0.047623236,0.064373046,0.32078052,-2.1066267490386963,3.3258843421936035,5.307699203491211,-29.670682907104492,-62.76542282104492, -8.667985916137695
169,2238800586,0.9450613,0.0436121,0.04298111,0.32110727,-1.7541263103485107,0.07539205253124237,-18.46576690673828,-73.55745697021484,-131.19705200195312, 4.481753826141357
170,2238817253,0.9469227,0.04208862,0.000055135923,0.3186942,21.67943572998047,-0.23621699213981628,-25.776376724243164,-104.39913177490234,-277.799072265625, -7.349055767059326
171,2238833920,0.9469838,0.03670624,-0.04372559,0.3161683,3.4080095291137695,-6.57708215713501,16.003860473632812,-130.98582458496094,-274.0211486816406, -3.939771890640259
172,2238850587,0.9462473,0.039404035,-0.08262137,0.310221,6.51879358291626,-3.722456693649292,-3.453810214996338,-68.27699279785156,-260.77166748046875, -28.16667366027832
173,2238867254,0.94319445,0.037793465,-0.121493205,0.3069129,-2.5453739166259766,-1.2376956939697266,2.4039459228515625,-96.58650207519531,-251.72654724121094, -16.00785255432129
174,2238883921,0.9393087,0.04156186,-0.15408328,0.3036944,-0.021888919174671173,4.149703502655029,3.8816256523132324,-49.13883590698242,-222.87179565429688, -20.274154663085938
175,2238900588,0.93561214,0.046941996,-0.18158944,0.29908502,4.9088053703308105,4.765730381011963,8.371434211730957,-30.405527114868164,-193.5335693359375, -32.02492141723633
176,2238917255,0.9323634,0.054451644,-0.20505074,0.29272482,9.798633575439453,2.9199516773223877,8.469417572021484,-6.72627067565918,-172.18960571289062, -36.02309799194336
177,2238933922,0.928032,0.061770365,-0.22725545,0.28861076,10.872088432312012,-1.4580488204956055,9.20340347290039,-1.9701778888702393,-164.16415405273438, -19.567838668823242
178,2238950589,0.9234645,0.06770092,-0.24681088,0.2858577,10.641714096069336,-4.749964714050293,5.55747127532959,-3.2983896732330322,-144.02102661132812, -9.37909984588623
179,2238967256,0.91867226,0.0737304,-0.26347882,0.2849281,10.34174633026123,-4.77503776550293,6.358915328979492,6.370993614196777,-125.09547424316406, 1.03290855884552
180,2238983923,0.91387284,0.08100843,-0.27702528,0.28553692,11.622132301330566,-4.735625267028809,8.314966201782227,23.330638885498047,-106.79022216796875, 6.801516056060791
181,2239000590,0.9091159,0.09074446,-0.2874319,0.28750095,12.608924865722656,-5.173460960388184,10.248527526855469,47.658592224121094,-90.83841705322266, 8.661161422729492
182,2239017257,0.90400875,0.1054632,-0.29442525,0.29147822,12.844433784484863,-3.0363404750823975,11.620868682861328,89.91239166259766,-78.69352722167969, 9.784489631652832
183,2239033924,0.8985445,0.12316924,-0.2983789,0.29735067,11.455850601196289,-0.23556356132030487,12.470419883728027,118.74607849121094,-65.16075897216797, 13.894445419311523
184,2239050591,0.8925159,0.1420643,-0.30101886,0.30433682,10.840655326843262,1.844254493713379,12.336082458496094,131.5266876220703,-59.85449981689453, 18.318744659423828
185,2239067258,0.8859934,0.16012721,-0.30395234,0.31142914,10.793130874633789,3.451105833053589,11.609487533569336,126.44190979003906,-61.04460525512695, 22.019018173217773
186,2239083925,0.879818,0.1748213,-0.3073294,0.31765816,11.273527145385742,3.5269758701324463,15.278858184814453,102.6873550415039,-56.95668411254883, 23.599382400512695
187,2239100592,0.874658,0.18635556,-0.30918008,0.32350114,8.390740394592285,2.515622138977051,15.992942810058594,84.81201934814453,-39.413055419921875, 23.950971603393555
188,2239117259,0.8687781,0.19974066,-0.3101514,0.3303553,7.245124340057373,1.335377812385559,13.644765853881836,100.96064758300781,-38.821346282958984, 26.623985290527344
189,2239133926,0.8608164,0.21471284,-0.31436157,0.337743,7.8818206787109375,3.339921236038208,6.746716022491455,107.09479522705078,-65.75472259521484, 35.62957000732422
190,2239150593,0.8523994,0.22703654,-0.3247997,0.3411378,11.656834602355957,6.6695332527160645,3.0803961753845215,68.93802642822266,-103.40936279296875, 28.029611587524414
191,2239167260,0.8461589,0.23160197,-0.33770925,0.34106943,12.174132347106934,1.4177134037017822,8.345149993896484,6.414934158325195,-100.1399917602539, 23.909406661987305
192,2239183927,0.83970314,0.23641147,-0.34962803,0.34171465,7.567352771759033,0.3360999822616577,16.252382278442383,12.174576759338379,-94.34370422363281, 26.412925720214844
193,2239200594,0.8326504,0.2434634,-0.36028397,0.3429497,9.431427955627441,3.0099332332611084,15.75722885131836,30.541553497314453,-93.08638763427734, 23.777050018310547
194,2239217261,0.82683754,0.2471984,-0.37069666,0.34324452,8.774679183959961,3.8329429626464844,13.934233665466309,7.7321696281433105,-82.58245086669922, 23.32105255126953
195,2239233928,0.820519,0.25238368,-0.3804256,0.34398818,8.97960376739502,2.5513200759887695,13.348660469055176,19.586544036865234,-82.80201721191406, 22.260875701904297
196,2239250595,0.81421024,0.25904015,-0.38770637,0.34589544,8.073949813842773,2.8453307151794434,14.14372730255127,36.71146011352539,-70.55143737792969, 20.72941017150879
197,2239267262,0.8086105,0.26496103,-0.3929056,0.3486691,8.091552734375,2.8047335147857666,14.465946197509766,38.59796142578125,-53.85768508911133, 22.17875862121582
198,2239283929,0.8037989,0.26961207,-0.3966242,0.35200295,7.665611267089844,2.3514204025268555,12.259912490844727,35.173099517822266,-39.56501770019531, 24.16474723815918
199,2239300596,0.7992928,0.2737261,-0.39905936,0.35631004,8.428523063659668,3.2753002643585205,11.392597198486328,37.40451431274414,-28.618627548217773, 27.908281326293945
200,2239317263,0.7955296,0.27642718,-0.40088892,0.36056787,8.063918113708496,3.261028528213501,9.769280433654785,29.58058738708496,-19.9335880279541, 28.583425521850586
201,2239333930,0.7920328,0.28006095,-0.40119594,0.36509153,8.440740585327148,3.3744170665740967,8.819746017456055,38.670875549316406,-12.70127010345459, 23.93956184387207
202,2239350597,0.7887682,0.28453922,-0.40062684,0.36929718,8.291099548339844,3.705866813659668,7.648322582244873,44.13014221191406,-10.022473335266113, 17.63360023498535
203,2239367264,0.7864971,0.28790602,-0.39967537,0.37254804,8.791342735290527,4.366912364959717,9.31254768371582,34.48160171508789,-4.241777420043945, 12.273158073425293
204,2239383931,0.78527397,0.28849962,-0.39997244,0.37434617,9.043622016906738,4.231381893157959,9.030330657958984,10.205960273742676,-3.8985257148742676, 11.857430458068848
205,2239400598,0.7847037,0.28850424,-0.39973637,0.37578782,9.186206817626953,3.8448002338409424,8.3645658493042,6.107926845550537,1.577217936515808, 8.837115287780762
206,2239417265,0.78370553,0.29018036,-0.3991311,0.37722063,9.083196640014648,4.163283824920654,7.76523494720459,16.893468856811523,-1.9366036653518677, 4.583364963531494
207,2239433932,0.78269064,0.2926275,-0.39820638,0.37841278,9.004293441772461,4.106924533843994,7.4202423095703125,21.23516082763672,-2.7287302017211914, 0.5975516438484192
208,2239450599,0.78163904,0.29552194,-0.39729556,0.37929386,9.150670051574707,4.6314697265625,7.023041248321533,22.816713333129883,-4.678834438323975, -2.159065008163452
209,2239467266,0.7813167,0.29685283,-0.3973171,0.3788955,10.182002067565918,5.1219635009765625,5.857766151428223,6.9893951416015625,-6.200106620788574, -4.748711585998535
210,2239483933,0.7814208,0.29775193,-0.3974129,0.37787345,10.87891960144043,4.791992664337158,6.095983982086182,1.8793838024139404,-5.536879062652588, -7.855776309967041
211,2239500600,0.7826164,0.29672682,-0.39736447,0.3762533,11.098587036132812,6.004403591156006,6.826352119445801,-11.969643592834473,2.038689374923706, -8.930900573730469
212,2239517267,0.7863972,0.29094592,-0.39742526,0.37280452,10.418283462524414,5.401302814483643,5.879491806030273,-48.1367301940918,17.115819931030273, -12.219873428344727
213,2239533934,0.79152775,0.2843962,-0.3957732,0.3687362,9.487597465515137,4.132964134216309,5.672063827514648,-52.31647872924805,30.8322696685791, -20.345985412597656
214,2239550601,0.7977156,0.27859318,-0.39163074,0.36422682,9.072160720825195,3.517545461654663,5.872878074645996,-45.215232849121094,44.53672409057617, -32.33685302734375
215,2239567268,0.80464894,0.27481154,-0.3847744,0.35912073,9.054561614990234,3.479832172393799,6.390267848968506,-30.369794845581055,55.2470703125, -48.13389205932617
216,2239583935,0.8129228,0.27099285,-0.37601766,0.35260528,9.68301773071289,3.560565948486328,6.626319885253906,-32.14335250854492,66.75291442871094, -62.7492561340332
217,2239600602,0.8226841,0.26610205,-0.36491606,0.3452782,9.863140106201172,2.3371148109436035,7.873920440673828,-37.322723388671875,84.8143310546875, -72.50843811035156
218,2239617269,0.83312356,0.26093453,-0.35118577,0.33835933,9.856070518493652,1.4769301414489746,7.859947204589844,-32.84940719604492,102.79899597167969, -75.96016693115234
219,2239633936,0.8442623,0.25393203,-0.33513647,0.33230045,9.726764678955078,0.07282775640487671,7.701746463775635,-37.12209701538086,123.60175323486328, -72.43563079833984
220,2239650603,0.85531133,0.24602717,-0.3173383,0.32742885,9.60146713256836,-0.2735987603664398,7.505354881286621,-35.43764114379883,137.7089080810547, -66.37178039550781
221,2239667270,0.8658958,0.23832135,-0.2980537,0.32340613,8.73898983001709,-0.9688485264778137,6.17750358581543,-28.246017456054688,146.46017456054688, -63.336761474609375
222,2239683937,0.8759612,0.23081698,-0.27726477,0.32021883,7.554811477661133,-0.6198040843009949,6.094870090484619,-21.100940704345703,155.32382202148438, -60.139556884765625
223,2239700604,0.88565886,0.22279425,-0.2549984,0.31772172,6.800430774688721,-0.2218315154314041,6.879827976226807,-19.039159774780273,165.79800415039062, -56.568416595458984
224,2239717271,0.89503604,0.21319354,-0.23179269,0.31580302,6.4086198806762695,-0.40411365032196045,7.2921061515808105,-25.063617706298828,175.31524658203125, -51.04572677612305
225,2239733938,0.9037687,0.20229624,-0.208156,0.31456238,6.371582984924316,-0.1196526363492012,7.4427385330200195,-30.05009651184082,180.77235412597656, -44.06142044067383
226,2239750605,0.9118827,0.18959418,-0.18464531,0.31373584,5.751106262207031,-0.005134373903274536,6.907552719116211,-40.058475494384766,183.6119842529297, -37.40752410888672
227,2239767272,0.9189919,0.17621,-0.1612481,0.31369254,5.135519027709961,-0.3648688495159149,5.9606404304504395,-42.25571823120117,184.1471405029297, -29.326377868652344
228,2239783939,0.92505896,0.16264443,-0.13789506,0.31432092,4.779078006744385,0.2266036868095398,5.99636697769165,-41.46872329711914,183.95211791992188, -22.58631706237793
229,2239800606,0.93024087,0.14824644,-0.11500892,0.31535366,4.061981201171875,0.5434128642082214,6.3370256423950195,-46.390262603759766,182.42726135253906, -16.791749954223633
230,2239817273,0.93452036,0.13379508,-0.09263175,0.3165284,3.6471078395843506,1.7282155752182007,7.506871223449707,-46.79782485961914,178.74151611328125, -13.359702110290527
231,2239833940,0.9380949,0.11838927,-0.07121521,0.3176325,3.3582167625427246,2.5243616104125977,8.110427856445312,-54.431514739990234,174.1471710205078, -10.778838157653809
232,2239850607,0.9407882,0.10359953,-0.050833132,0.31874895,3.0443437099456787,2.1775426864624023,7.9078369140625,-52.01824188232422,165.72085571289062, -8.222553253173828
233,2239867274,0.9425967,0.09107699,-0.031403184,0.31973496,2.393770456314087,2.05283784866333,7.312236309051514,-38.87449645996094,154.20510864257812, -7.233672618865967
234,2239883941,0.9437181,0.080574356,-0.013399746,0.32050687,1.707200527191162,1.7763539552688599,5.804542541503906,-28.555912017822266,140.24728393554688, -6.647834777832031
235,2239900608,0.9443125,0.07257219,0.0030455007,0.3209334,1.2508490085601807,2.0568013191223145,5.422998428344727,-15.524897575378418,124.39250946044922, -7.0913591384887695
236,2239917275,0.94457245,0.06757353,0.018414602,0.3207454,0.058680467307567596,2.062549114227295,6.163750171661377,1.7553080320358276,110.4812240600586, -9.741162300109863
237,2239933942,0.9446787,0.066098005,0.032443352,0.31962565,-0.3129395842552185,1.9002619981765747,5.301815509796143,21.846908569335938,93.5762939453125, -14.382369041442871
238,2239950609,0.94473076,0.06622496,0.045133047,0.3179011,-0.9407746195793152,1.4964888095855713,5.632334232330322,29.451440811157227,81.07546997070312, -17.22407341003418
239,2239967276,0.944657,0.0683148,0.056220602,0.31590432,-1.4202277660369873,1.3516217470169067,5.483928680419922,38.83082962036133,66.26628112792969, -17.37654685974121
240,2239983943,0.9446096,0.07055219,0.06505395,0.3138526,-1.538914680480957,1.4812039136886597,4.650506973266602,34.89522933959961,51.23603439331055, -16.670177459716797
241,2240000610,0.9446788,0.073111705,0.07166146,0.31161115,-1.9140963554382324,1.6623715162277222,4.317345142364502,32.2022819519043,35.9086799621582, -16.92654037475586
242,2240017277,0.9449887,0.07545955,0.07602733,0.30906644,-1.9172970056533813,1.5845685005187988,3.9267966747283936,26.040319442749023,21.49494171142578, -18.38437843322754
243,2240033944,0.94551986,0.07736852,0.0780748,0.30644876,-2.0000767707824707,1.0715700387954712,3.541154384613037,18.174514770507812,7.176742076873779, -18.348203659057617
244,2240050611,0.94621354,0.07863935,0.077576496,0.30410203,-2.052009344100952,0.9550312161445618,3.2862963676452637,8.428376197814941,-8.006195068359375, -15.910439491271973
245,2240067278,0.9470142,0.078941464,0.074595444,0.3022715,-2.3864941596984863,0.7873749732971191,3.796663999557495,-3.3983261585235596,-21.94489288330078, -11.942805290222168
246,2240083945,0.9478968,0.07891292,0.06996866,0.30061418,-2.301939010620117,1.036197543144226,5.281604290008545,-9.099858283996582,-31.960569381713867, -10.252422332763672
247,2240100612,0.9488381,0.07641395,0.06416529,0.29958326,-2.189779043197632,2.0818026065826416,7.229523658752441,-27.95985221862793,-34.24461364746094, -6.83358097076416
248,2240117279,0.9501948,0.06752873,0.05307361,0.29958868,-2.044478416442871,6.545357704162598,-1.5136408805847168,-81.20063018798828,-55.25666046142578, -0.963646411895752
249,2240133946,0.9512993,0.05999603,0.022651363,0.30152455,5.345556259155273,-1.7528901100158691,-37.20259475708008,-112.9134750366211,-183.40203857421875, 21.64143180847168
250,2240150613,0.9526103,0.054945935,-0.021132136,0.29844275,20.634307861328125,-2.671438694000244,2.523406744003296,-123.76399993896484,-277.9942321777344, -5.7158026695251465
251,2240167280,0.9530188,0.044705305,-0.060509134,0.29342058,2.0961055755615234,-1.545488953590393,5.892146110534668,-148.60052490234375,-238.8470458984375, -17.519420623779297
252,2240183947,0.95154613,0.043355953,-0.099184334,0.28782403,5.564535140991211,-8.449249267578125,-6.512724876403809,-88.520263671875,-253.1310272216797, -21.3873233795166
253,2240200614,0.94860816,0.04476738,-0.13359496,0.28335634,-3.3353729248046875,-1.0788850784301758,6.125914573669434,-60.63594055175781,-231.20799255371094, -14.286705017089844
254,2240217281,0.9444366,0.049419347,-0.16363664,0.28074965,4.44145393371582,4.748179912567139,8.078079223632812,-33.48772048950195,-209.48870849609375, -18.6303768157959
255,2240233948,0.94088876,0.054573566,-0.1883191,0.27619913,8.376233100891113,3.1630005836486816,8.639779090881348,-17.784713745117188,-175.81275939941406, -20.28343391418457
256,2240250615,0.93666047,0.058326356,-0.21084873,0.2735107,10.290083885192871,0.6478058099746704,9.533829689025879,-20.158477783203125,-159.30551147460938, -5.902228355407715
257,2240267282,0.9319994,0.064417586,-0.22999124,0.27263853,11.048887252807617,-0.6956509947776794,6.449864864349365,4.069013595581055,-141.67169189453125, 1.8695589303970337
258,2240283949,0.927147,0.068876825,-0.24652459,0.27364245,9.900400161743164,-2.8481407165527344,6.606775283813477,1.5710952281951904,-121.21450805664062, 15.668286323547363
259,2240300616,0.92238617,0.075415336,-0.2595803,0.27592456,10.945428848266602,-5.703438758850098,6.38825798034668,23.55316734313965,-102.09337615966797, 18.437557220458984
260,2240317283,0.9172501,0.0858255,-0.26983383,0.28013584,12.851608276367188,-6.057628154754639,9.23572826385498,57.17270278930664,-91.22322082519531, 22.93887710571289
261,2240333950,0.91200936,0.09964786,-0.2767693,0.28584692,12.57785701751709,-5.028737545013428,12.257444381713867,88.0425033569336,-76.07762145996094, 24.209850311279297
262,2240350617,0.9066657,0.11471779,-0.28108814,0.29289407,11.978525161743164,-3.2562179565429688,13.096012115478516,103.71560668945312,-61.36497497558594, 28.521900177001953
263,2240367284,0.90056056,0.13183115,-0.28418198,0.30141696,11.203685760498047,0.006801307201385498,13.056241035461426,122.44084167480469,-58.152950286865234, 34.25545883178711
264,2240383951,0.8945649,0.14560357,-0.2881399,0.3090775,9.57075309753418,2.723365306854248,12.19229793548584,98.18370056152344,-57.169498443603516, 35.9586296081543
265,2240400618,0.8890278,0.15569767,-0.29384738,0.3147089,9.77984619140625,3.9615747928619385,13.565497398376465,67.32151794433594,-61.2811393737793, 31.55032730102539
266,2240417285,0.88470024,0.16223316,-0.2986534,0.31904885,9.641814231872559,4.150668144226074,16.220823287963867,43.56034469604492,-47.07344055175781, 27.297590255737305
267,2240433952,0.880865,0.17092012,-0.3000784,0.3237539,7.728083610534668,3.0834245681762695,15.591442108154297,64.2195816040039,-29.926910400390625, 20.29163360595703
268,2240450619,0.874995,0.1796616,-0.30662534,0.3287651,7.362621307373047,3.098798990249634,7.076890468597412,56.150238037109375,-65.05757904052734, 32.611759185791016
269,2240467286,0.86820793,0.18435694,-0.3196955,0.3316964,11.25670337677002,5.760218620300293,5.316533088684082,13.76662826538086,-99.66068267822266, 38.789852142333984
270,2240483953,0.86189824,0.18644652,-0.33435997,0.33252445,11.38921070098877,3.0237693786621094,8.212590217590332,-10.749394416809082,-104.73768615722656, 32.96537399291992
271,2240500620,0.8543839,0.19289836,-0.3472516,0.33501497,7.752944469451904,0.6988505125045776,14.10422134399414,24.489532470703125,-104.79908752441406, 33.29663848876953
272,2240517287,0.8447106,0.20600328,-0.35824206,0.34013128,9.106289863586426,2.8525359630584717,15.611346244812012,77.11516571044922,-110.79939270019531, 35.279998779296875
273,2240533954,0.8361377,0.21571192,-0.36859524,0.34420878,8.418598175048828,3.965306282043457,16.293874740600586,54.756004333496094,-98.09970092773438, 34.1660270690918
274,2240550621,0.82810545,0.22313929,-0.3793226,0.34722444,8.28547191619873,3.128087282180786,15.004846572875977,37.24443054199219,-95.27914428710938, 33.18040084838867
275,2240567288,0.8212632,0.22929414,-0.38809967,0.34975696,8.291370391845703,3.5803377628326416,14.97184944152832,31.56313133239746,-78.97982788085938, 27.96288299560547
276,2240583955,0.8158287,0.23493919,-0.39397115,0.35215628,8.24543285369873,3.54988956451416,14.888711929321289,33.08521270751953,-58.011924743652344, 20.665979385375977
277,2240600622,0.81171083,0.23946209,-0.39766574,0.3544651,7.654313564300537,3.5560050010681152,13.465229988098145,29.67952537536621,-39.88029479980469, 16.55615234375
278,2240617289,0.80901766,0.24178757,-0.40003467,0.35637283,7.647751331329346,3.6297531127929688,11.491436004638672,17.19112205505371,-24.085683822631836, 14.734893798828125
279,2240633956,0.80746925,0.24216309,-0.4020239,0.3573897,7.417333602905273,3.368558883666992,9.359315872192383,2.9010581970214844,-15.672852516174316, 11.76846694946289
280,2240650623,0.8062656,0.24222936,-0.40380952,0.3580486,7.4566545486450195,2.845074415206909,8.142218589782715,0.09764210879802704,-13.518256187438965, 9.502967834472656
281,2240667290,0.8055516,0.24218503,-0.40477768,0.35859206,8.241947174072266,3.1140215396881104,8.346465110778809,0.3417952060699463,-7.607538223266602, 6.642483234405518
282,2240683957,0.8057579,0.2408783,-0.40545002,0.35824874,7.892516613006592,3.0016119480133057,8.425582885742188,-9.943814277648926,-1.8252769708633423, 2.524139165878296
283,2240700624,0.8061531,0.23877636,-0.40653867,0.35753244,8.470417022705078,2.684433698654175,8.337857246398926,-16.747854232788086,-2.3271853923797607, 2.9372098445892334
284,2240717291,0.8062525,0.23731321,-0.40708333,0.3576631,8.074743270874023,1.8179535865783691,8.219773292541504,-9.034549713134766,-0.36865654587745667, 5.708029747009277
285,2240733958,0.8055126,0.23932204,-0.4061014,0.35910505,8.206205368041992,3.3699800968170166,8.383220672607422,19.001848220825195,-0.7051441073417664, 2.8468618392944336
286,2240750625,0.8052062,0.23929626,-0.4062524,0.3596381,9.22529125213623,4.062778472900391,7.022719383239746,1.6560214757919312,-2.2958972454071045, 4.343165874481201
287,2240767292,0.80456805,0.23905563,-0.40757155,0.35973346,9.817695617675781,3.219999074935913,6.438114166259766,-3.145599365234375,-9.874674797058105, 5.326348781585693
288,2240783959,0.8031731,0.24084647,-0.4088618,0.36019185,9.693258285522461,2.6069562435150146,7.1731719970703125,10.392756462097168,-16.23182487487793, 3.5086941719055176
289,2240800626,0.80082667,0.24641089,-0.40931633,0.36113486,9.699506759643555,3.5233330726623535,6.6394219398498535,36.2225456237793,-22.827077865600586, -3.4163079261779785
290,2240817293,0.7994366,0.24968138,-0.41038197,0.3607589,10.8075532913208,3.962477207183838,7.765812873840332,16.712425231933594,-20.018667221069336, -5.503645420074463
291,2240833960,0.7984807,0.25212923,-0.4109397,0.3605387,11.906706809997559,4.2235026359558105,8.702568054199219,13.111472129821777,-13.693412780761719, -4.213282108306885
292,2240850627,0.7997399,0.24909557,-0.41201207,0.35862744,12.168279647827148,5.718092918395996,8.379423141479492,-26.910343170166016,0.382443368434906, -2.5519914627075195
293,2240867294,0.80361795,0.24044965,-0.41309068,0.35459602,10.725336074829102,4.0146989822387695,7.387581825256348,-68.3459243774414,17.961585998535156, -4.675898551940918
294,2240883961,0.8090028,0.2308178,-0.41214254,0.3498231,9.548483848571777,3.5080173015594482,7.111010551452637,-73.49598693847656,34.602474212646484, -12.964739799499512
295,2240900628,0.81573874,0.22200002,-0.40797412,0.3447372,8.982354164123535,2.3119711875915527,7.226889133453369,-64.29608154296875,53.86065673828125, -25.350650787353516
296,2240917295,0.82326955,0.21680094,-0.3997198,0.3397779,9.332914352416992,3.068189859390259,7.765786170959473,-35.195011138916016,70.58914184570312, -42.91753387451172
297,2240933962,0.8324527,0.21106143,-0.38858476,0.3338826,10.330445289611816,2.4816477298736572,8.013059616088867,-36.59740447998047,91.27207946777344, -54.86992263793945
298,2240950629,0.8425892,0.20640911,-0.3738558,0.328132,10.369932174682617,1.4417753219604492,8.13828182220459,-23.1486759185791,112.09964752197266, -64.36050415039062
299,2240967296,0.8536403,0.2004683,-0.3564239,0.32260332,10.457327842712402,0.4786250591278076,7.7096428871154785,-25.24728012084961,133.34397888183594, -65.70470428466797
300,2240983963,0.86532813,0.19312695,-0.33655956,0.3172332,10.417887687683105,-0.5035438537597656,7.396656036376953,-28.549341201782227,152.55384826660156, -66.18616485595703
301,2241000630,0.8768213,0.18634155,-0.3143481,0.31248486,9.543232917785645,-1.7149903774261475,6.692887306213379,-18.3829402923584,165.76702880859375, -66.57439422607422
302,2241017297,0.8877937,0.18040803,-0.29006597,0.30844268,8.539233207702637,-1.9094700813293457,6.355941295623779,-6.524127006530762,176.3180694580078, -65.8292236328125
303,2241033964,0.89853853,0.17282835,-0.2646588,0.3044913,7.804551601409912,-1.479566216468811,6.524131774902344,-13.631091117858887,186.46177673339844, -63.03660202026367
304,2241050631,0.9087458,0.1632877,-0.23880747,0.30081433,7.4592509269714355,-1.389207124710083,6.67949914932251,-23.593421936035156,192.78152465820312, -57.289146423339844
305,2241067298,0.91826814,0.1512175,-0.21325704,0.29738632,7.082428455352783,-1.0425775051116943,6.391567707061768,-38.75865173339844,195.41517639160156, -49.92608642578125
306,2241083965,0.92687935,0.1373266,-0.18801364,0.29442677,6.182860851287842,-0.9466450214385986,5.7959160804748535,-49.17674255371094,196.48890686035156, -42.1977653503418
307,2241100632,0.9343643,0.12261145,-0.162794,0.29228082,4.972784996032715,-1.2697422504425049,4.801375389099121,-52.300193786621094,197.4488525390625, -33.7069206237793
308,2241117299,0.9406722,0.10729475,-0.13718441,0.29121193,4.224463939666748,-1.4062423706054688,5.413816928863525,-53.119361877441406,200.86788940429688, -24.123659133911133
309,2241133966,0.94554806,0.09384618,-0.11038802,0.2914555,3.9173965454101562,-1.5791248083114624,6.78842830657959,-36.29826736450195,204.505859375, -15.43753433227539
310,2241150633,0.94900495,0.08326743,-0.08237135,0.29269707,3.708789825439453,-0.6076154112815857,7.9121503829956055,-13.448966979980469,206.321044921875, -9.091935157775879
311,2241167300,0.9513397,0.0734434,-0.053883936,0.29437268,3.605921506881714,0.7622215747833252,8.75843620300293,-6.650374889373779,207.54710388183594, -4.70327091217041
312,2241183967,0.9525365,0.063852325,-0.026520558,0.29646915,3.5818405151367188,0.7644950747489929,6.956698417663574,-6.677182197570801,199.57461547851562, 0.8384533524513245
313,2241200634,0.9527552,0.0546323,-0.0015869464,0.29878148,3.184950590133667,1.2615635395050049,5.740600109100342,-8.744403839111328,182.89833068847656, 5.244109630584717
314,2241217301,0.9523271,0.045571312,0.020548204,0.30095586,2.2699036598205566,1.9199856519699097,5.446956157684326,-13.241448402404785,164.2533416748047, 6.717594623565674
315,2241233968,0.95156056,0.03679251,0.04023816,0.30258888,1.2495391368865967,1.8135242462158203,5.258429527282715,-16.320030212402344,147.5838623046875, 4.677556037902832
316,2241250635,0.9506507,0.02858222,0.057888158,0.30347222,-0.2770286798477173,1.3348309993743896,4.631214141845703,-16.643314361572266,132.92236328125, 0.7428216934204102
317,2241267302,0.94966537,0.023330795,0.07321043,0.30369693,-1.1083592176437378,1.3239800930023193,4.386555194854736,-1.9100353717803955,111.40615844726562, -1.7684165239334106
318,2241283969,0.9486718,0.02116836,0.08525203,0.30381855,-1.6626739501953125,1.0180684328079224,2.8878870010375977,11.436759948730469,83.47570037841797, -0.3416435718536377
319,2241300636,0.94779944,0.021600164,0.09427337,0.3038456,-2.266423225402832,1.1178206205368042,2.8918824195861816,22.06827163696289,58.210227966308594, 0.7507504224777222
320,2241317303,0.9472272,0.025140693,0.10078373,0.30326772,-2.4801902770996094,1.5974788665771484,2.553386926651001,37.40916442871094,34.99638748168945, -1.427972674369812
321,2241333970,0.94703424,0.029197572,0.1043606,0.3022956,-2.710712194442749,1.6558810472488403,2.44525408744812,34.832237243652344,14.412191390991211, -3.919339418411255
322,2241350637,0.94731855,0.032294247,0.10458601,0.3010092,-2.8009049892425537,1.8055682182312012,2.302837610244751,21.714492797851562,-5.892712116241455, -6.968165874481201
323,2241367304,0.9480569,0.03370933,0.10137399,0.29962516,-2.826350450515747,1.856896162033081,2.9748761653900146,3.5866639614105225,-25.219388961791992, -8.983420372009277
324,2241383971,0.9491235,0.033533875,0.09475113,0.2984334,-3.0618364810943604,1.972676157951355,3.5900790691375732,-14.044858932495117,-44.42218017578125, -8.718194961547852
325,2241400638,0.9503453,0.030337086,0.08527896,0.29774374,-1.964656114578247,2.040950059890747,4.828877925872803,-39.99697494506836,-56.864418029785156, -7.063899993896484
326,2241417305,0.95151234,0.024163865,0.07398124,0.29760262,-2.0287764072418213,3.388484001159668,4.9362711906433105,-63.51759719848633,-62.576499938964844, -4.731566905975342
327,2241433972,0.95259637,0.017298006,0.055140745,0.29869798,-1.2472227811813354,3.1398608684539795,-14.124778747558594,-84.1608657836914,-110.28575134277344, 4.427923202514648
328,2241450639,0.9537364,0.02038752,0.01775469,0.29942614,16.325984954833984,-0.978584349155426,-29.130348205566406,-57.010990142822266,-252.3736572265625, 7.901609420776367
329,2241467306,0.95432216,0.014371771,-0.02289806,0.29755414,5.129124641418457,-0.3359214961528778,17.248027801513672,-123.07109069824219,-254.91897583007812, -8.666444778442383
330,2241483973,0.9537582,0.013604689,-0.05759105,0.29469264,5.834378719329834,-5.594934940338135,-0.2971939146518707,-76.42112731933594,-226.67628479003906, -14.200274467468262
331,2241500640,0.95190334,0.01563309,-0.09421448,0.29113457,4.257547378540039,-1.314297080039978,-1.4606961011886597,-61.99655532836914,-245.4393768310547, -17.07828712463379
332,2241517307,0.9494089,0.016161876,-0.12582414,0.28728,-1.024240493774414,3.2201688289642334,6.088364124298096,-61.85395431518555,-209.95286560058594, -17.295839309692383
333,2241533974,0.94640946,0.016910108,-0.15323183,0.28380153,3.620044231414795,2.552603244781494,6.7966742515563965,-51.80921173095703,-183.44036865234375, -14.464302062988281
334,2241550641,0.94334567,0.024428137,-0.17639238,0.27997872,6.7450690269470215,3.1758065223693848,8.094330787658691,0.12568804621696472,-169.0980224609375, -24.171859741210938
335,2241567308,0.9394586,0.028903736,-0.19837165,0.27790454,10.3455810546875,0.18276596069335938,8.666990280151367,-15.141548156738281,-156.20449829101562, -7.70854377746582
336,2241583975,0.9351856,0.034910843,-0.2177945,0.277083,10.902222633361816,-3.2445037364959717,7.619876861572266,1.4292209148406982,-142.74935913085938, -1.4588122367858887
337,2241600642,0.9308254,0.04136802,-0.23443572,0.27729523,10.021809577941895,-4.644508361816406,6.63212776184082,11.275538444519043,-125.45907592773438, 3.987537145614624
338,2241617309,0.92653674,0.049235083,-0.24767917,0.27885613,10.543487548828125,-5.008369445800781,7.669966697692871,29.038734436035156,-105.79281616210938, 9.192360877990723
339,2241633976,0.9222834,0.058868654,-0.2573253,0.28233236,11.007928848266602,-5.063094139099121,9.214818954467773,50.544647216796875,-85.46464538574219, 17.034238815307617
340,2241650643,0.91793936,0.0709179,-0.26397038,0.28753754,11.122554779052734,-3.4366471767425537,10.893550872802734,74.8834457397461,-70.52204132080078, 22.609865188598633
341,2241667310,0.9129919,0.086326934,-0.26827037,0.29499978,10.7467622756958,-1.8700690269470215,11.934986114501953,105.17781829833984,-62.33156204223633, 30.742231369018555
342,2241683977,0.9076054,0.1033688,-0.27098024,0.3035411,10.037140846252441,0.4944644570350647,12.130975723266602,120.93651580810547,-55.836891174316406, 34.397708892822266
343,2241700644,0.90220314,0.11891058,-0.27379867,0.3113265,9.663655281066895,3.098802089691162,12.12410831451416,109.93919372558594,-53.9802360534668, 32.56182861328125
344,2241717311,0.89758945,0.13150991,-0.27594042,0.3176403,9.804391860961914,3.4946844577789307,15.000187873840332,89.66223907470703,-43.24076461791992, 26.744752883911133
345,2241733978,0.8943637,0.14245488,-0.27544886,0.32241055,8.398497581481934,4.532595634460449,15.686643600463867,80.96952056884766,-22.219585418701172, 14.970449447631836
346,2241750645,0.8897101,0.15060686,-0.2816246,0.32622275,6.191295623779297,2.1478002071380615,9.487774848937988,48.53935241699219,-60.78764724731445, 24.10785484313965
347,2241767312,0.88296384,0.15924764,-0.29283032,0.3305535,9.258660316467285,2.005988359451294,6.172886848449707,43.402156829833984,-96.23682403564453, 36.25318145751953
348,2241783979,0.8765323,0.16477858,-0.30597448,0.33304465,11.133925437927246,3.2919812202453613,8.364126205444336,16.048887252807617,-102.2682876586914, 32.76127624511719
349,2241800646,0.8699071,0.16913943,-0.3200655,0.33498013,9.039002418518066,1.5989117622375488,12.945323944091797,5.843864440917969,-106.29188537597656, 33.41838455200195
350,2241817313,0.8616492,0.17784487,-0.33456817,0.337633,9.108938217163086,2.1596286296844482,14.994614601135254,34.36738967895508,-121.61363983154297, 32.39787673950195
351,2241833980,0.8536362,0.18461655,-0.34902138,0.33971477,9.109971046447754,2.951075315475464,15.910575866699219,21.414413452148438,-117.10139465332031, 32.85293197631836
352,2241850647,0.8455433,0.19061898,-0.36338136,0.3415776,8.7283353805542,2.484288215637207,15.654611587524414,16.68544578552246,-115.38699340820312, 33.52010726928711
353,2241867314,0.8379578,0.1958301,-0.3761361,0.34350997,8.756484031677246,2.6887383460998535,15.478910446166992,15.36294174194336,-103.00471496582031, 32.636329650878906
354,2241883981,0.8305773,0.20292087,-0.38610163,0.3462514,8.654495239257812,2.3337924480438232,14.196707725524902,34.59103775024414,-89.9233627319336, 28.2321834564209
355,2241900648,0.82368153,0.21111731,-0.39338288,0.34961152,8.18307876586914,2.7718355655670166,12.408967971801758,48.259944915771484,-75.22396850585938, 23.96153450012207
356,2241917315,0.8172687,0.21865967,-0.3992407,0.353365,8.559357643127441,3.3229575157165527,11.68203353881836,48.32859420776367,-63.83292770385742, 24.770639419555664
357,2241933982,0.8118427,0.22369982,-0.40490028,0.35626647,8.2326021194458,3.5985660552978516,10.590564727783203,30.909595489501953,-55.3126220703125, 24.203746795654297
358,2241950649,0.8069719,0.22780995,-0.4100154,0.35886884,7.972438335418701,2.649914026260376,10.33134937286377,25.342374801635742,-48.99403381347656, 22.978328704833984
359,2241967316,0.8025678,0.23290814,-0.41331878,0.36167178,8.093745231628418,2.990262508392334,10.74577522277832,35.11992263793945,-39.83467483520508, 17.34977912902832
360,2241983983,0.7997508,0.23600997,-0.41528496,0.36364353,8.253726959228516,3.5195412635803223,11.041327476501465,22.515012741088867,-24.40542221069336, 12.388923645019531
361,2242000650,0.79795676,0.23714124,-0.41704562,0.3648313,7.97153902053833,2.883101463317871,9.359434127807617,8.277276039123535,-16.798309326171875, 10.859602928161621
362,2242017317,0.79593104,0.23937735,-0.41758594,0.36717075,8.460348129272461,2.7569315433502197,9.058945655822754,21.067171096801758,-11.724357604980469, 12.634092330932617
363,2242033984,0.7945692,0.2411173,-0.41744167,0.36914083,7.945965766906738,3.495712995529175,8.428634643554688,17.91578483581543,-5.4755682945251465, 9.263967514038086
364,2242050651,0.79350644,0.24228847,-0.41743803,0.3706607,8.46093463897705,3.820540189743042,7.433534145355225,12.64140796661377,-4.729952812194824, 7.953985691070557
365,2242067318,0.79290956,0.2426181,-0.4176469,0.37148625,9.136818885803223,4.013068675994873,6.661740303039551,4.7122321128845215,-3.575546979904175, 5.793895721435547
366,2242083985,0.7923304,0.24343166,-0.4178085,0.37200776,9.537456512451172,3.412876844406128,6.832826137542725,6.536535739898682,-4.995476722717285, 2.6672239303588867
367,2242100652,0.7913726,0.24685025,-0.41679192,0.37293315,9.844903945922852,3.447166919708252,7.044688701629639,25.514556884765625,-5.63508939743042, -3.585530996322632
368,2242117319,0.7902236,0.25193217,-0.41512603,0.37382787,9.69876766204834,3.6869659423828125,7.205810070037842,36.44773483276367,-6.951195240020752, -9.094988822937012
369,2242133986,0.78946257,0.25618172,-0.41333443,0.37453222,11.127250671386719,4.739490509033203,7.485950946807861,31.0140380859375,-3.3421878814697266, -8.928863525390625
370,2242150653,0.7895914,0.2577972,-0.41207072,0.3745449,11.572687149047852,6.079392433166504,5.458743572235107,11.791333198547363,1.9043117761611938, -6.507205486297607
371,2242167320,0.79273117,0.25222346,-0.41209143,0.3716737,11.206291198730469,5.688954830169678,5.152985572814941,-44.10954666137695,16.927946090698242, -7.204923152923584
372,2242183987,0.7973713,0.24409631,-0.41182026,0.36745098,10.633476257324219,4.201671600341797,5.969854354858398,-63.76793670654297,27.005109786987305, -11.62679386138916
373,2242200654,0.80289716,0.23748009,-0.40901932,0.3628533,9.838357925415039,2.803239583969116,5.990090370178223,-51.67573547363281,38.95999526977539, -24.425670623779297
374,2242217321,0.80918413,0.23437048,-0.40265444,0.35799566,9.632022857666016,3.857212781906128,6.868635654449463,-25.416547775268555,51.61996841430664, -43.44769287109375
375,2242233988,0.81739795,0.2308552,-0.3937114,0.3515083,9.93556022644043,3.7468409538269043,8.248246192932129,-28.975025177001953,69.66718292236328, -60.274105072021484
376,2242250655,0.82692844,0.22701427,-0.38221368,0.34433535,10.506033897399902,2.943474531173706,7.933424472808838,-28.604434967041016,87.26063537597656, -70.47831726074219
377,2242267322,0.83816016,0.22058748,-0.36852682,0.3361797,10.980363845825195,1.4714974164962769,7.4650139808654785,-43.37961959838867,108.76567840576172, -76.73699951171875
378,2242283989,0.84979975,0.213876,-0.3524707,0.32842338,10.489232063293457,-0.42008304595947266,6.697836399078369,-39.148433685302734,124.74688720703125, -78.31220245361328
379,2242300656,0.86127484,0.20778611,-0.33412218,0.32154787,9.790905952453613,-0.7917873859405518,6.3850836753845215,-27.929443359375,137.689208984375, -77.76969909667969
380,2242317323,0.872749,0.2011853,-0.31390446,0.3151158,9.791864395141602,-0.5422397255897522,6.734947204589844,-25.76249885559082,150.58448791503906, -76.73928833007812
381,2242333990,0.8837206,0.19502884,-0.29183543,0.3095707,8.790247917175293,-1.5518633127212524,7.317030906677246,-16.4365177154541,160.94668579101562, -73.94110107421875
382,2242350657,0.8939978,0.18910418,-0.26819777,0.30508628,7.582180500030518,-1.2732975482940674,7.633462905883789,-8.564342498779297,170.0706787109375, -68.69014739990234
383,2242367324,0.9037893,0.18121128,-0.24395068,0.30135626,6.857512474060059,-1.0947903394699097,7.246408939361572,-17.296764373779297,178.07101440429688, -60.28316879272461
384,2242383991,0.9128355,0.17190665,-0.21949808,0.29832917,6.370210647583008,-1.0247247219085693,6.391796112060547,-23.47336196899414,181.9445343017578, -52.33296203613281
385,2242400658,0.92122936,0.16040415,-0.19527502,0.2957614,5.921028137207031,-0.8683449625968933,6.058197021484375,-36.217838287353516,184.6349334716797, -44.590850830078125
386,2242417325,0.9288928,0.14657009,-0.17134236,0.29379833,5.3493170738220215,-0.7378478050231934,6.340419769287109,-49.90711212158203,187.29574584960938, -35.88204574584961
387,2242433992,0.9356202,0.13102385,-0.14729947,0.29283214,4.7202606201171875,-0.5442682504653931,7.138815402984619,-58.450416564941406,191.42767333984375, -25.761016845703125
388,2242450659,0.9411414,0.11553561,-0.122546494,0.29306495,4.50870418548584,-0.015526819974184036,7.497867584228516,-54.296875,195.78970336914062, -16.35021209716797
389,2242467326,0.94540715,0.100300975,-0.09745319,0.29436058,4.086422920227051,0.07863010466098785,7.489040374755859,-50.041961669921875,197.32418823242188, -7.446420192718506
390,2242483993,0.9484337,0.08531784,-0.07314413,0.2963854,3.7794718742370605,0.853923499584198,7.046897888183594,-48.62154769897461,191.44656372070312, 0.16050483286380768
391,2242500660,0.95030797,0.071096286,-0.05021693,0.2988957,3.5986080169677734,0.7276889085769653,6.662437915802002,-45.548614501953125,180.65225219726562, 6.096190929412842
392,2242517327,0.9511215,0.059506126,-0.028662033,0.30167097,3.2930116653442383,1.3222099542617798,7.233850002288818,-30.561965942382812,166.11280822753906, 9.76430892944336
393,2242533994,0.95136553,0.049538143,-0.008731115,0.30392995,2.326606273651123,1.5429998636245728,6.173634052276611,-23.206939697265625,151.87599182128906, 7.908753871917725
394,2242550661,0.95135134,0.04132297,0.009438963,0.30517855,1.5698457956314087,2.531402587890625,6.509057998657227,-15.421561241149902,136.38824462890625, 2.331237316131592
395,2242567328,0.95122844,0.03395482,0.025339168,0.30556434,0.9115399718284607,1.8310163021087646,4.953714847564697,-14.615906715393066,119.56137084960938, -2.388071298599243
396,2242583995,0.95103526,0.027425043,0.03906108,0.30537543,-0.4210016131401062,1.2564617395401,5.408193111419678,-13.634047508239746,103.45252990722656, -5.34999418258667
397,2242600662,0.9507385,0.023825226,0.0508393,0.30486736,-0.8730790019035339,1.424858808517456,5.087233543395996,1.526664137840271,84.5393295288086, -6.068185329437256
398,2242617329,0.9503905,0.022370098,0.060447,0.30430862,-1.2579995393753052,1.3917709589004517,3.8540802001953125,10.99395751953125,65.83544921875, -5.190046787261963
399,2242633996,0.9500248,0.022319162,0.06803522,0.3038522,-1.9139330387115479,1.4025651216506958,4.3120198249816895,15.874577522277832,49.68254470825195, -3.593074083328247
400,2242650663,0.9497699,0.024539435,0.07417359,0.3030399,-1.9982435703277588,1.3636596202850342,4.374116897583008,27.80223846435547,35.30073928833008, -4.865154266357422
401,2242667330,0.94968265,0.026694022,0.07881707,0.3019576,-2.0207393169403076,1.6133424043655396,4.286710739135742,24.34247398376465,25.48497200012207, -6.7576069831848145
402,2242683997,0.9497811,0.027893424,0.080549546,0.30108076,-2.346088409423828,1.3013049364089966,1.5698670148849487,11.884092330932617,8.339381217956543, -5.785568714141846
403,2242700664,0.9502524,0.027426234,0.07716885,0.30052167,-1.8932710886001587,4.249444484710693,-2.077942132949829,-9.861383438110352,-21.8270206451416, -4.4168548583984375
404,2242717331,0.9510731,0.025079397,0.059884068,0.3020681,-1.4292136430740356,0.8380279541015625,-23.79624366760254,-52.196632385253906,-108.65489959716797, 10.244333267211914
405,2242733998,0.95261997,0.02989923,0.018731335,0.30211058,18.692691802978516,-0.6862627267837524,-33.86003875732422,-54.51448440551758,-280.3948669433594, 6.008668422698975
406,2242750665,0.9531634,0.024600433,-0.026958253,0.30024606,9.157488822937012,-3.892914056777954,19.220712661743164,-129.85484313964844,-288.7428894042969, -4.77351188659668
407,2242767332,0.95233893,0.026173571,-0.06760744,0.29630196,1.011966586112976,-3.765376091003418,1.946653962135315,-74.37483978271484,-270.1604309082031, -17.674280166625977
408,2242783999,0.9495238,0.027081287,-0.10686065,0.29368713,-1.9332350492477417,-3.661954164505005,0.5406193137168884,-74.772705078125,-260.3329772949219, -4.829960346221924
409,2242800666,0.9458867,0.033039324,-0.13943286,0.29114524,-1.0583120584487915,5.32623815536499,2.770707368850708,-27.957378387451172,-227.57794189453125, -7.649435520172119
410,2242817333,0.94263196,0.0298416,-0.16804172,0.28690854,5.356692314147949,7.041767120361328,4.948847770690918,-81.45885467529297,-183.55755615234375, -11.482492446899414
411,2242834000,0.939639,0.03275096,-0.19013675,0.28258467,10.5782470703125,3.6030120849609375,6.940643310546875,-29.406539916992188,-152.96347045898438, -20.832660675048828
412,2242850667,0.9359241,0.038530312,-0.20960991,0.28040206,11.146380424499512,-0.05722561106085777,10.812932014465332,-2.9260497093200684,-141.7803497314453, -9.849860191345215
413,2242867334,0.9318598,0.044397928,-0.22684568,0.279656,10.38459300994873,-3.0220961570739746,6.085396766662598,4.121440887451172,-127.4549789428711, -0.6165457367897034
414,2242884001,0.9278505,0.0484863,-0.24176499,0.27980763,9.741803169250488,-5.463383197784424,6.134579181671143,-1.3342597484588623,-108.58251190185547, 7.072903633117676
415,2242900668,0.92383635,0.05378155,-0.2543852,0.28093114,11.11385440826416,-6.04314661026001,7.797050476074219,12.589373588562012,-95.71495819091797, 10.429946899414062
416,2242917335,0.9196721,0.062062833,-0.26392066,0.28407338,11.159337043762207,-5.548685073852539,9.098644256591797,41.296268463134766,-81.19661712646484, 17.068635940551758
417,2242934002,0.9152346,0.07458063,-0.2697762,0.28983483,11.377735137939453,-2.9446799755096436,11.199443817138672,80.31897735595703,-65.41352844238281, 24.771446228027344
418,2242950669,0.91100866,0.09057311,-0.27069914,0.29762703,11.55876350402832,0.47435247898101807,11.820418357849121,115.76908874511719,-39.75005340576172, 28.039770126342773
419,2242967336,0.90711117,0.1081817,-0.26822338,0.30578184,10.193781852722168,2.4736855030059814,11.664579391479492,133.31336975097656,-20.833749771118164, 24.442670822143555
420,2242984003,0.9026001,0.12143159,-0.26964077,0.3128279,9.362936019897461,4.407572269439697,13.183500289916992,96.29702758789062,-37.85888671875, 29.720417022705078
421,2243000670,0.89703554,0.13136353,-0.27707985,0.318273,7.27284049987793,4.862192153930664,10.50069808959961,60.561676025390625,-71.41004180908203, 33.25827407836914
422,2243017337,0.8913662,0.13656595,-0.2900498,0.3204485,9.040264129638672,4.7576985359191895,8.395994186401367,13.045080184936523,-98.38127899169922, 27.40651512145996
423,2243034004,0.8856098,0.14543347,-0.29984075,0.32348138,11.038522720336914,0.1225862056016922,16.8385066986084,44.19483947753906,-86.30693817138672, 22.63714599609375
424,2243050671,0.8787454,0.15920256,-0.30612755,0.32976854,8.720739364624023,0.34740427136421204,19.390668869018555,89.71633911132812,-75.05120849609375, 31.253061294555664
425,2243067338,0.87150025,0.17024311,-0.3142292,0.33580452,8.794082641601562,2.3774220943450928,13.929218292236328,69.07491302490234,-81.22349548339844, 38.28355407714844
426,2243084005,0.8646025,0.17715688,-0.32500872,0.33977538,8.941598892211914,4.019344806671143,12.498550415039062,33.294212341308594,-89.58529663085938, 37.17668914794922
427,2243100672,0.85847926,0.18054461,-0.33774936,0.3410901,9.939481735229492,5.007636070251465,14.46572208404541,0.8249176740646362,-94.65518188476562, 29.924400329589844
428,2243117339,0.8532483,0.18269597,-0.350489,0.3402162,9.556614875793457,4.055251121520996,15.640581130981445,-12.726473808288574,-92.58077239990234, 17.896799087524414
429,2243134006,0.84897155,0.18458307,-0.3612888,0.33859593,9.229317665100098,3.3921749591827393,17.664966583251953,-12.77099323272705,-79.4652328491211, 9.578200340270996
430,2243150673,0.84530854,0.18672837,-0.36973563,0.3374637,8.05636215209961,2.2752809524536133,17.169565200805664,-5.363264560699463,-64.50814056396484, 7.443488121032715
431,2243167340,0.8414487,0.1916429,-0.37545845,0.33803576,7.4650468826293945,2.0984606742858887,13.98071002960205,21.651960372924805,-53.746986389160156, 7.308126449584961
432,2243184007,0.8376168,0.19911149,-0.3784225,0.3399253,7.6619439125061035,2.7405354976654053,11.136656761169434,46.21392822265625,-42.156646728515625, 4.667614936828613
433,2243200674,0.83349264,0.20736413,-0.3806614,0.34261808,7.6227922439575195,2.2302958965301514,9.365130424499512,54.903202056884766,-39.6164665222168, 6.988186836242676
434,2243217341,0.8288753,0.21673392,-0.38225922,0.3462227,7.672706604003906,2.670790910720825,9.431295394897461,65.90463256835938,-38.651161193847656, 9.563321113586426
435,2243234008,0.82452816,0.22516367,-0.38395348,0.34933466,7.810972213745117,3.750556468963623,9.709650039672852,58.61391830444336,-37.07295608520508, 8.761953353881836
436,2243250675,0.8212017,0.23061553,-0.38594604,0.35141182,8.24223518371582,3.4701614379882812,9.96165657043457,36.680965423583984,-30.61045265197754, 8.82763671875
437,2243267342,0.8183122,0.23446243,-0.38814023,0.35318515,8.620647430419922,3.09572434425354,9.444766998291016,25.62104034423828,-27.28276824951172, 10.67988109588623
438,2243284009,0.8160876,0.23580636,-0.39127374,0.35397956,8.76695442199707,3.2648112773895264,9.135808944702148,5.570248126983643,-26.35993003845215, 11.780667304992676
439,2243300676,0.81404155,0.23659706,-0.3944914,0.3545909,8.327913284301758,2.7193827629089355,8.22693920135498,1.4698208570480347,-25.357616424560547, 11.971659660339355
440,2243317343,0.8122188,0.23683164,-0.397311,0.3554649,8.792497634887695,3.514920473098755,8.16003131866455,-0.3237323760986328,-20.779109954833984, 13.772955894470215
441,2243334010,0.81040806,0.23743296,-0.3999798,0.35620308,8.967583656311035,3.5381250381469727,6.822564125061035,1.6849157810211182,-21.049047470092773, 11.770244598388672
442,2243350677,0.808557,0.23870115,-0.40217432,0.3570902,9.519742965698242,3.33565616607666,6.381856441497803,7.0157999992370605,-19.89312744140625, 10.122740745544434
443,2243367344,0.8065505,0.24174199,-0.40347067,0.35811824,9.720290184020996,3.6168324947357178,7.302941799163818,19.702526092529297,-19.414413452148438, 4.936944484710693
444,2243384011,0.8043854,0.2464564,-0.4038303,0.3593672,9.9354829788208,3.045189380645752,6.46307897567749,32.14750289916992,-18.40266990661621, 0.38491585850715637
445,2243400678,0.80229145,0.251266,-0.40333992,0.36126277,11.874739646911621,4.699457168579102,5.817822456359863,36.441463470458984,-12.606391906738281, 2.095571517944336
446,2243417345,0.80307806,0.24838835,-0.4039089,0.36086956,12.772878646850586,6.772280216217041,6.278376579284668,-19.95880126953125,4.760696887969971, 5.504426956176758
447,2243434012,0.80742776,0.2354329,-0.40602264,0.35745984,10.954099655151367,4.468277931213379,6.506826877593994,-93.97865295410156,26.04338264465332, 10.714059829711914
448,2243450679,0.81302786,0.22189276,-0.40594137,0.35349837,9.823195457458496,2.2280635833740234,6.450791835784912,-95.43563842773438,42.277244567871094, 2.679158926010132
449,2243467346,0.81898785,0.21275645,-0.40192878,0.34992445,8.988678932189941,2.4289534091949463,6.703995704650879,-60.73838806152344,55.14593505859375, -14.346280097961426
450,2243484013,0.8262526,0.20574936,-0.39467174,0.3452657,9.472452163696289,3.8789942264556885,7.207925319671631,-45.86281204223633,70.29937744140625, -34.239585876464844
451,2243500680,0.835298,0.19836839,-0.38454765,0.3391908,9.593677520751953,2.4021763801574707,7.228353977203369,-47.588340759277344,90.2937240600586, -49.53990936279297
452,2243517347,0.8455842,0.19077298,-0.37150922,0.33252704,9.727161407470703,1.8083748817443848,7.462787628173828,-45.29121017456055,110.01170349121094, -59.25400924682617
453,2243534014,0.85660964,0.18267658,-0.35580152,0.325967,9.912099838256836,-0.026664428412914276,7.203009128570557,-42.8151741027832,128.71238708496094, -62.612953186035156
454,2243550681,0.8679461,0.1744618,-0.33747065,0.31991678,10.027544021606445,-0.3913463354110718,7.544848918914795,-36.74907684326172,145.8677978515625, -63.404659271240234
455,2243567348,0.87904906,0.1666688,-0.31667286,0.31498057,9.270716667175293,-1.2553684711456299,7.444968223571777,-25.90475082397461,160.50796508789062, -60.279048919677734
456,2243584015,0.8896009,0.16013339,-0.29367265,0.3110055,8.826094627380371,-0.8136175274848938,7.040096759796143,-10.751803398132324,171.05227661132812, -58.644100189208984
457,2243600682,0.899931,0.15254861,-0.2692525,0.30717486,7.871880054473877,-1.1324125528335571,6.467607498168945,-13.553085327148438,181.76336669921875, -56.8242301940918
458,2243617349,0.90968215,0.14498916,-0.24339405,0.30367124,6.798032760620117,-1.2790383100509644,6.532766819000244,-9.0903959274292,189.95364379882812, -55.21954345703125
459,2243634016,0.9187188,0.13675079,-0.21658044,0.30057943,6.094700336456299,-1.3616727590560913,7.164264678955078,-9.881705284118652,196.61788940429688, -51.04759979248047
460,2243650683,0.92705655,0.12650786,-0.18987584,0.29750457,6.039193153381348,-0.38833898305892944,6.763127326965332,-22.020854949951172,199.08908081054688, -46.474491119384766
461,2243667350,0.9346073,0.11377528,-0.16396454,0.29441518,5.822033405303955,-0.2508585453033447,6.202932357788086,-38.809791564941406,198.14515686035156, -41.06645202636719
462,2243684017,0.94099504,0.10080259,-0.1383483,0.29193693,5.364704608917236,-0.5264958739280701,6.040679931640625,-39.316551208496094,195.9752960205078, -34.32029342651367
463,2243700684,0.94615775,0.087765545,-0.112637214,0.29050964,4.527040958404541,-0.6267197132110596,6.49528694152832,-37.65464782714844,196.3546142578125, -25.10004234313965
464,2243717351,0.95001453,0.075940505,-0.08675907,0.29013506,3.565066337585449,-0.3926342725753784,6.28317928314209,-27.789264678955078,194.69900512695312, -16.70644760131836
465,2243734018,0.9526906,0.064905025,-0.060943335,0.2906098,2.8407034873962402,0.45467865467071533,6.847022533416748,-21.59841537475586,192.49441528320312, -9.256657600402832
466,2243750685,0.95427454,0.05444822,-0.035748865,0.2917496,2.4658985137939453,0.4520241320133209,6.595882415771484,-18.271942138671875,187.13165283203125, -2.6931135654449463
467,2243767352,0.95489764,0.045204848,-0.011711041,0.2932408,2.1761562824249268,1.1189037561416626,7.076520919799805,-12.173913955688477,177.0272979736328, 1.6670787334442139
468,2243784019,0.9548673,0.036343504,0.009932659,0.2946338,1.6822870969772339,1.8608063459396362,6.222451210021973,-14.305219650268555,160.47811889648438, 3.0509886741638184
469,2243800686,0.9545057,0.02658425,0.029221533,0.2955648,0.924085795879364,2.5870003700256348,6.422412395477295,-24.8865909576416,146.76431274414062, 1.2103650569915771
470,2243817353,0.9539016,0.016830057,0.04638967,0.29603466,0.8015792965888977,2.071798324584961,5.380077362060547,-29.07465362548828,132.80682373046875, -0.939880907535553
471,2243834020,0.9531493,0.009026389,0.062082473,0.29592392,-0.803250789642334,0.46323877573013306,5.211071968078613,-19.11760711669922,119.14886474609375, -3.6615231037139893
472,2243850687,0.9523891,0.0065838373,0.07626083,0.29512042,-1.2267405986785889,0.6058340072631836,4.159200191497803,13.238569259643555,98.24225616455078, -5.80496072769165
473,2243867354,0.95170313,0.007140285,0.088386916,0.29393542,-2.048687696456909,0.6892033219337463,3.8872551918029785,28.909910202026367,78.61933898925781, -6.792836666107178
474,2243884021,0.9511459,0.009224302,0.098054126,0.29261258,-2.6240785121917725,1.41801917552948,3.707324981689453,34.0120849609375,59.29590606689453, -6.908269882202148
475,2243900688,0.950859,0.012117275,0.10466331,0.29114634,-2.9910266399383545,1.8159452676773071,2.566028594970703,33.20954132080078,37.40625762939453, -7.652888298034668
476,2243917355,0.95095724,0.0146983545,0.1077804,0.2895649,-2.7737326622009277,1.8985873460769653,1.93094003200531,24.199737548828125,14.830327987670898, -9.110669136047363
477,2243934022,0.9514181,0.017081905,0.10751505,0.2880148,-2.4235482215881348,1.676931619644165,1.6392979621887207,16.08124351501465,-7.232946872711182, -9.4310941696167
478,2243950689,0.95219207,0.01915412,0.10421865,0.28653437,-2.73384165763855,2.0261354446411133,2.8724141120910645,7.927249908447266,-26.731477737426758, -9.464778900146484
479,2243967356,0.95323366,0.021596827,0.0985441,0.2849007,-2.938232183456421,2.359726667404175,4.230732440948486,5.710256576538086,-43.305938720703125, -10.410329818725586
480,2243984023,0.954357,0.024406759,0.091910675,0.28312436,-2.8031249046325684,2.008070707321167,6.267866134643555,6.287278652191162,-50.44675827026367, -11.10744857788086
481,2244000690,0.9553829,0.026793312,0.085522614,0.28144553,-2.6390295028686523,1.857850193977356,8.389487266540527,3.921381950378418,-47.981468200683594, -10.577750205993652
482,2244017357,0.9562075,0.027062811,0.07982149,0.2802915,-2.9207816123962402,1.317004919052124,9.299636840820312,-8.93719482421875,-39.19068145751953, -8.103675842285156
483,2244034024,0.95703477,0.02266096,0.07404934,0.27944198,-3.166288375854492,1.8363584280014038,8.993060111999512,-39.94620132446289,-30.63958740234375, -8.647772789001465
484,2244050691,0.95764256,0.011807462,0.06741006,0.27970955,-3.32940673828125,1.672685980796814,8.561712265014648,-84.61021423339844,-23.71281623840332, -4.020995616912842
485,2244067358,0.9578434,-0.0041403486,0.060032316,0.2809183,-2.659677267074585,-0.4867783784866333,6.8136372566223145,-119.99028015136719,-18.56745719909668, 0.6566861271858215
486,2244084025,0.95738333,-0.023114596,0.052253857,0.2831117,-1.186464548110962,1.736250877380371,6.360188961029053,-141.0873260498047,-15.157583236694336, 7.155562877655029
487,2244100692,0.95660496,-0.04259904,0.03418088,0.28622356,-2.4018771648406982,6.270880699157715,-21.740983963012695,-164.9064178466797,-81.96398162841797, 11.99123764038086
488,2244117359,0.9580659,-0.040273253,0.004296858,0.2836714,22.720279693603516,9.083281517028809,-11.9073486328125,-42.83256149291992,-201.57223510742188, -28.010297775268555
489,2244134026,0.957732,-0.0587428,-0.038737256,0.2789232,16.06304359436035,2.9694697856903076,-10.97978687286377,-206.17283630371094,-246.37937927246094, -43.167930603027344
490,2244150693,0.9551433,-0.057557892,-0.079206996,0.2794906,2.85516357421875,-21.881898880004883,16.735706329345703,-71.2991714477539,-269.4605712890625, -7.898585319519043
491,2244167360,0.9534428,-0.03570632,-0.115656905,0.2762162,5.352797508239746,-2.999800205230713,5.818877220153809,70.989013671875,-280.7742004394531, -44.54621887207031
492,2244184027,0.9495585,-0.031051712,-0.15036468,0.27343187,3.564730644226074,0.5290247797966003,6.338088512420654,-38.5435905456543,-238.4154815673828, -23.059131622314453
493,2244200694,0.94508547,-0.032420397,-0.17958264,0.27113158,7.836043357849121,-3.028921604156494,6.403655052185059,-67.20071411132812,-191.91184997558594, -11.355538368225098
494,2244217361,0.94101435,-0.019057838,-0.20200674,0.2707811,10.585205078125,1.9422954320907593,11.28296184539795,43.7572021484375,-175.02267456054688, -16.099430084228516
495,2244234028,0.9368878,-0.0069253757,-0.2215555,0.2703824,11.416570663452148,1.934906005859375,10.887791633605957,40.986228942871094,-154.04196166992188, -14.172823905944824
496,2244250695,0.9326087,0.00507986,-0.23762296,0.27157083,10.117574691772461,-2.3149497509002686,9.369842529296875,48.97256088256836,-131.5284423828125, -3.249824047088623
497,2244267362,0.9284726,0.021300796,-0.2506524,0.27323696,9.667999267578125,-1.6719739437103271,10.604365348815918,82.49202728271484,-119.55133056640625, -7.468681335449219
498,2244284029,0.9243578,0.035968564,-0.261012,0.27593833,9.063441276550293,-2.831329822540283,9.905957221984863,79.39463806152344,-99.32441711425781, 1.3594907522201538
499,2244300696,0.9204282,0.050169002,-0.26845706,0.27968895,7.078011989593506,-2.738231897354126,9.110206604003906,83.84712982177734,-79.26891326904297, 7.738286018371582
500,2244317363,0.9164874,0.06496843,-0.2739303,0.2842397,8.604004859924316,-1.237363576889038,9.5382719039917,92.97010803222656,-67.68489074707031, 10.969277381896973
501,2244334030,0.9124168,0.076679155,-0.27889434,0.2895407,8.348766326904297,0.06950115412473679,11.279882431030273,75.99821472167969,-58.32026672363281, 21.490663528442383
502,2244350697,0.90826494,0.08574571,-0.2836416,0.29538122,7.857810974121094,-0.027453526854515076,13.032200813293457,60.92435073852539,-51.58253860473633, 29.973421096801758
503,2244367364,0.90458584,0.09540241,-0.28588703,0.30148238,6.24622106552124,-0.44349852204322815,12.736586570739746,69.92967224121094,-36.145172119140625, 27.989931106567383
504,2244384031,0.9011419,0.110272154,-0.28383315,0.30858123,7.211833953857422,0.6012284755706787,12.663905143737793,113.09358215332031,-19.20058250427246, 20.599618911743164
505,2244400698,0.8968976,0.12633432,-0.28222814,0.316167,7.33253812789917,2.1296141147613525,10.09477710723877,121.08953094482422,-25.784114837646484, 23.296836853027344
506,2244417365,0.8922271,0.13805152,-0.28469786,0.32221082,8.325227737426758,2.1733081340789795,8.518221855163574,82.78360748291016,-43.66282653808594, 26.68029022216797
507,2244434032,0.88864654,0.1433844,-0.28998372,0.3250508,10.111654281616211,3.063546895980835,9.8019437789917,30.043991088867188,-47.67927932739258, 19.785770416259766
508,2244450699,0.88695747,0.14044029,-0.2966584,0.32492626,9.069381713867188,-0.13874086737632751,12.326300621032715,-31.449302673339844,-36.779720306396484, 15.356008529663086
509,2244467366,0.88312435,0.14816427,-0.30089766,0.32802346,5.465170383453369,-0.6683675646781921,15.548421859741211,47.722957611083984,-47.0674934387207, 15.660723686218262
510,2244484033,0.8778544,0.15757814,-0.30561092,0.33338052,6.949079513549805,3.234653949737549,15.386383056640625,63.10966491699219,-54.63248825073242, 29.5787296295166
511,2244500700,0.8725346,0.16425337,-0.31233776,0.33786017,7.551133155822754,4.1467814445495605,12.272414207458496,40.1434211730957,-61.72993087768555, 32.37461853027344
512,2244517367,0.867111,0.16935793,-0.32125774,0.3409258,8.399906158447266,3.7087111473083496,10.604201316833496,22.651723861694336,-73.14823913574219, 30.04513168334961
513,2244534034,0.86137277,0.1743253,-0.3307881,0.3438415,8.530029296875,2.3355977535247803,11.630707740783691,20.391433715820312,-77.37630462646484, 30.95762825012207
514,2244550701,0.8552666,0.1796025,-0.34057072,0.34680527,7.491237163543701,2.4318203926086426,12.9166841506958,22.168790817260742,-80.45121002197266, 31.739356994628906
515,2244567368,0.8491497,0.18312687,-0.35129148,0.34929043,7.686600208282471,2.622535228729248,11.242875099182129,8.50754451751709,-82.53773498535156, 34.252113342285156
516,2244584035,0.8425013,0.18667258,-0.3621593,0.35240018,7.573491096496582,1.5334763526916504,9.675695419311523,10.439973831176758,-84.0433578491211, 39.35395050048828
517,2244600702,0.8354062,0.1912065,-0.37250146,0.35606077,7.83791971206665,1.8903316259384155,8.995217323303223,19.384069442749023,-83.8685531616211, 40.51220703125
518,2244617369,0.8280033,0.19719978,-0.3815666,0.36045757,8.301539421081543,2.321881055831909,9.494121551513672,33.175270080566406,-79.98255157470703, 40.10890197753906
519,2244634036,0.8212995,0.20398968,-0.38840112,0.3646916,8.019388198852539,3.6495745182037354,11.98833179473877,41.84641647338867,-67.71036529541016, 32.37594223022461
520,2244650703,0.8164557,0.20731296,-0.39459035,0.36704215,7.666565895080566,3.862508773803711,13.072422981262207,16.212778091430664,-53.19546127319336, 25.507070541381836
521,2244667370,0.8126702,0.20882621,-0.39986438,0.36887312,7.729041576385498,2.3735265731811523,10.848919868469238,5.403139114379883,-41.552677154541016, 23.611587524414062
522,2244684037,0.8093751,0.21114969,-0.4031396,0.3712227,7.5072503089904785,2.955564260482788,8.427313804626465,15.703957557678223,-30.479883193969727, 20.21542739868164
523,2244700704,0.80625945,0.21254827,-0.406616,0.37340692,7.546789169311523,3.1268386840820312,7.062350749969482,9.290534973144531,-29.055065155029297, 21.753799438476562
524,2244717371,0.8031663,0.21392596,-0.4098938,0.37569508,7.834456443786621,3.2813363075256348,6.860955715179443,9.90230655670166,-27.722394943237305, 22.105802536010742
525,2244734038,0.80027854,0.21481523,-0.4132109,0.37771076,8.814257621765137,3.9386215209960938,6.882697582244873,5.99076509475708,-26.52713394165039, 21.574403762817383
526,2244750705,0.79733944,0.21615846,-0.41639203,0.37966204,9.441953659057617,4.162863731384277,6.513952732086182,8.680188179016113,-27.210613250732422, 19.9500789642334
527,2244767372,0.7939087,0.21849588,-0.4197226,0.38184,9.323887825012207,4.240561485290527,7.439392566680908,15.061692237854004,-31.68571662902832, 19.945600509643555
528,2244784039,0.79038084,0.22186354,-0.4223418,0.38432035,8.862677574157715,4.477807521820068,7.81805944442749,23.51594352722168,-30.35488510131836, 17.90940284729004
529,2244800706,0.7866208,0.22529724,-0.42518914,0.38688913,9.886938095092773,4.879467964172363,5.902874946594238,23.82411766052246,-32.35198211669922, 19.26729393005371
530,2244817373,0.7825315,0.22969456,-0.4268949,0.39069918,13.07089614868164,6.980808734893799,5.692432403564453,36.144710540771484,-27.746902465820312, 22.38897705078125
531,2244834040,0.7806982,0.22640896,-0.43149307,0.39123288,14.052518844604492,9.390530586242676,5.576387405395508,-26.2453556060791,-21.13324737548828, 25.987377166748047
532,2244850707,0.7829363,0.21144396,-0.4396885,0.38597497,13.089213371276855,6.559352397918701,5.583415985107422,-122.28959655761719,-5.892127513885498, 24.427907943725586
533,2244867374,0.7860185,0.19813494,-0.44533122,0.38026023,11.471931457519531,3.3461995124816895,6.801816463470459,-109.31463623046875,5.3672099113464355, 11.160639762878418
534,2244884041,0.78947145,0.1923886,-0.44546232,0.3758793,10.61269474029541,4.068458557128906,7.888956069946289,-50.50857925415039,18.30083465576172, -13.201567649841309
535,2244900708,0.7951584,0.1891339,-0.4415729,0.37008792,10.490406036376953,5.3024187088012695,7.83737325668335,-33.94869613647461,38.58915328979492, -39.496192932128906
536,2244917375,0.8043212,0.18294735,-0.435225,0.36080024,10.487992286682129,3.797825336456299,7.316836833953857,-58.97343826293945,65.4159927368164, -61.645572662353516
537,2244934042,0.8158669,0.1761718,-0.42520207,0.35004,10.26447868347168,1.0552663803100586,7.504522800445557,-60.619869232177734,92.40632629394531, -78.51835632324219
538,2244950709,0.82874334,0.17014436,-0.41141072,0.3390824,10.305100440979004,-0.8831681609153748,7.671540260314941,-49.595096588134766,115.3236312866211, -89.6314468383789
539,2244967376,0.84220797,0.16564767,-0.39412352,0.3285017,10.209894180297852,-1.934003233909607,7.8741536140441895,-32.35810852050781,133.72467041015625, -97.39221954345703
540,2244984043,0.85611093,0.15998454,-0.37425748,0.31845012,10.393376350402832,-2.603867292404175,8.663827896118164,-32.341094970703125,153.04476928710938, -95.24869537353516
541,2245000710,0.87012655,0.1532825,-0.35162595,0.30942467,10.361212730407715,-3.952599287033081,8.7854642868042,-29.846837997436523,172.98912048339844, -90.00630950927734
542,2245017377,0.8833469,0.14887796,-0.32557878,0.3025433,9.403743743896484,-5.065225601196289,8.4661226272583,-2.724156141281128,188.88034057617188, -84.86292266845703
543,2245034044,0.8958248,0.14402966,-0.29723927,0.29732567,8.525102615356445,-3.813958168029785,8.45767593383789,3.968726634979248,203.79957580566406, -74.80494689941406
544,2245050711,0.90748787,0.13738465,-0.26753563,0.29328528,7.963679790496826,-3.1624603271484375,7.506490707397461,-0.9792324900627136,215.4172821044922, -63.76593780517578
545,2245067378,0.9180499,0.12898272,-0.23723334,0.29029006,7.294644832611084,-2.580732822418213,6.784586429595947,-7.665851593017578,221.73428344726562, -52.535057067871094
546,2245084045,0.9273822,0.11923252,-0.20698576,0.2879287,6.703246116638184,-1.7215995788574219,5.984711647033691,-14.062271118164062,222.73313903808594, -43.982513427734375
547,2245100712,0.93562925,0.10744223,-0.17676176,0.28602389,6.510495662689209,-0.7295516133308411,6.322875499725342,-25.500080108642578,225.5686492919922, -36.119686126708984
548,2245117379,0.94260794,0.09493642,-0.14637686,0.284695,6.356301307678223,-0.4304227828979492,6.319945812225342,-28.099430084228516,227.01858520507812, -29.270124435424805
549,2245134046,0.9481228,0.08381644,-0.11577019,0.28396413,5.380014896392822,-0.2375802993774414,6.4286627769470215,-17.07931137084961,224.79563903808594, -24.153568267822266
550,2245150713,0.95225644,0.07482779,-0.08512978,0.28348097,4.590270519256592,1.096053957939148,6.8740997314453125,-2.0813777446746826,220.0126495361328, -21.62859344482422
551,2245167380,0.95526433,0.066571206,-0.05528269,0.28281116,3.9265873432159424,1.910062551498413,6.313681602478027,1.6371263265609741,212.7332000732422, -20.732784271240234
552,2245184047,0.95717514,0.05846874,-0.0269822,0.28225732,4.011773586273193,1.7603815793991089,6.163365840911865,0.1642332375049591,202.00033569335938, -17.23314666748047
553,2245200714,0.9580619,0.05234789,-0.00039460816,0.28173974,3.191735029220581,0.85498046875,4.902176380157471,10.285088539123535,186.80868530273438, -14.735701560974121
554,2245217381,0.95814496,0.048607092,0.024406938,0.28106904,1.8534797430038452,1.701227068901062,6.176581859588623,22.808032989501953,170.45941162109375, -13.602191925048828
555,2245234048,0.95780224,0.04654846,0.047297176,0.27966258,1.1152896881103516,1.532904863357544,5.00457763671875,30.45598793029785,154.48439025878906, -16.74073600769043
556,2245250715,0.95736074,0.044614226,0.06763029,0.27730146,-0.16681155562400818,2.3978567123413086,5.233734607696533,26.69837760925293,137.1515655517578, -22.016742706298828
557,2245267382,0.9567791,0.042282358,0.084805414,0.2749437,-0.5466208457946777,2.6961309909820557,5.135561943054199,18.074398040771484,117.1707763671875, -20.970748901367188
558,2245284049,0.95596486,0.04039503,0.09864341,0.27343902,-0.9063761830329895,2.1564629077911377,3.3288583755493164,14.227497100830078,94.73898315429688, -13.714362144470215
559,2245300716,0.9551605,0.039715834,0.10889117,0.27245948,-1.9356275796890259,0.9238168001174927,0.9607589840888977,15.040501594543457,68.97288513183594, -8.483846664428711
560,2245317383,0.9546692,0.042382155,0.11542928,0.27108437,-2.0362613201141357,1.566373586654663,-0.48332679271698,30.28260040283203,37.9218864440918, -8.14832592010498
561,2245334050,0.95451134,0.04674367,0.11791009,0.26985252,-2.2014577388763428,1.7301613092422485,-0.8566539883613586,33.61870193481445,7.820928573608398, -5.297190189361572
562,2245350717,0.9547298,0.050161928,0.11546133,0.2695248,-1.5695747137069702,3.013462781906128,-1.2720317840576172,17.40383529663086,-22.883525848388672, 0.7701184153556824
563,2245367384,0.955555,0.0515644,0.10545421,0.2704356,-1.8168597221374512,4.11025333404541,-6.955296516418457,-11.093629837036133,-68.88069915771484, 8.793396949768066
564,2245384051,0.95727336,0.052214168,0.08320735,0.27198914,0.5931816101074219,4.163812637329102,-18.481386184692383,-39.70988464355469,-148.42190551757812, 15.177868843078613
565,2245400718,0.959053,0.04910282,0.042633474,0.27566084,13.502212524414062,-5.147918701171875,-19.644168853759766,-100.17414093017578,-261.4031982421875, 33.4949836730957
566,2245417385,0.96005464,0.044257503,-0.0021020733,0.2762828,6.66261625289917,-4.991924285888672,15.934202194213867,-118.2347183227539,-285.9916076660156, 15.800191879272461
567,2245434052,0.9596138,0.03722866,-0.043879256,0.2753723,3.2188286781311035,-4.200157642364502,5.2539777755737305,-126.36808013916016,-262.5743103027344, 7.6148295402526855
568,2245450719,0.9579002,0.031022113,-0.08428567,0.27269205,0.9754140377044678,-1.327734112739563,-0.9336813688278198,-118.37925720214844,-255.8485870361328, -2.2006702423095703
569,2245467386,0.95502657,0.025076011,-0.11860902,0.2706059,-0.11438990384340286,3.3153762817382812,2.3163723945617676,-104.5865249633789,-216.78439331054688, 2.4879050254821777
570,2245484053,0.95164984,0.02063567,-0.146455,0.2692353,3.895906925201416,3.5797033309936523,2.050368309020996,-82.03392791748047,-177.36599731445312, 5.844818115234375
571,2245500720,0.9486655,0.026294883,-0.16806826,0.2666375,7.214120864868164,4.363287925720215,7.765344619750977,-5.768306255340576,-154.97044372558594, -13.901839256286621
572,2245517387,0.9451278,0.036255997,-0.18756418,0.26502576,9.874860763549805,-0.7264083027839661,7.866446018218994,27.317583084106445,-149.3909149169922, -11.741859436035156
573,2245534054,0.9409599,0.042544954,-0.20698081,0.26446816,9.666003227233887,-4.010905742645264,7.965845108032227,5.169518947601318,-142.5602569580078, 0.9907381534576416
574,2245550721,0.93666816,0.04296163,-0.22545023,0.26453608,8.976537704467773,-6.193203449249268,6.282638072967529,-30.032711029052734,-125.6058120727539, 13.313944816589355
575,2245567388,0.93232626,0.044229306,-0.24186535,0.26516536,9.825817108154297,-4.681992530822754,7.8404011726379395,-19.73779296875,-113.71463012695312, 15.034252166748047
576,2245584055,0.9278296,0.04806224,-0.25623944,0.26676476,10.018900871276855,-3.240463972091675,9.139592170715332,2.2233800888061523,-105.16410827636719, 16.594524383544922
577,2245600722,0.9232663,0.05442958,-0.26810625,0.26969588,10.304845809936523,-0.6852484345436096,10.405322074890137,25.44887924194336,-93.42007446289062, 19.877948760986328
578,2245617389,0.91841453,0.06380865,-0.27774334,0.27441207,11.049704551696777,1.195786952972412,12.782190322875977,52.12228012084961,-84.66509246826172, 25.3416748046875
579,2245634056,0.913133,0.07633645,-0.28568482,0.28061587,10.631261825561523,2.42637038230896,11.538545608520508,78.21092987060547,-80.04979705810547, 28.789329528808594
580,2245650723,0.90746385,0.090379104,-0.29283503,0.28738245,11.443483352661133,2.4187722206115723,12.531475067138672,90.5152587890625,-78.4537582397461, 29.689664840698242
581,2245667390,0.9018801,0.104486205,-0.29961056,0.29313612,10.386140823364258,2.91314959526062,13.86834716796875,89.52871704101562,-76.69187927246094, 22.842130661010742
582,2245684057,0.89657617,0.117521934,-0.30563712,0.29820475,10.980537414550781,3.171377658843994,14.721182823181152,82.73957061767578,-69.85548400878906, 19.708293914794922
583,2245700724,0.8920809,0.12757254,-0.30998072,0.30303308,10.197982788085938,1.999214768409729,15.371463775634766,66.59149169921875,-51.9160270690918, 21.49903678894043
584,2245717391,0.88662803,0.14062141,-0.31476375,0.30828613,6.642984390258789,2.187229871749878,9.094111442565918,85.8077392578125,-62.626564025878906, 20.09014129638672
585,2245734058,0.87888694,0.15219717,-0.326918,0.3122796,10.184928894042969,4.513770580291748,4.419984340667725,60.684967041015625,-110.67803955078125, 27.586349487304688
586,2245750725,0.87068534,0.16144097,-0.3416103,0.31487492,11.953218460083008,2.249938488006592,8.98275089263916,38.42619323730469,-123.41264343261719, 28.07129669189453
587,2245767392,0.8619185,0.17136933,-0.35510197,0.31879717,9.297629356384277,0.036573514342308044,16.176576614379883,48.87479782104492,-117.53436279296875, 34.30652618408203
588,2245784059,0.8519053,0.1837247,-0.36780855,0.32437575,10.787003517150879,1.942325234413147,15.413106918334961,70.55706787109375,-119.48250579833984, 39.97416305541992
589,2245800726,0.842985,0.19263078,-0.37991247,0.32853705,10.119803428649902,3.9180357456207275,14.269085884094238,46.75638198852539,-107.43597412109375, 37.20109558105469
590,2245817393,0.83464146,0.19871806,-0.3926006,0.33128458,9.70140266418457,3.261699676513672,12.96924877166748,24.631147384643555,-104.97073364257812, 35.89446258544922
591,2245834060,0.8268886,0.20494528,-0.4039369,0.3332981,9.385451316833496,3.651456117630005,12.428497314453125,25.7232723236084,-97.07807922363281, 28.15516471862793
592,2245850727,0.8202588,0.21007696,-0.41407114,0.33404857,9.650703430175781,3.4863572120666504,12.218404769897461,17.149534225463867,-86.53427124023438, 19.8040714263916
593,2245867394,0.8144683,0.21397306,-0.42306748,0.33447117,9.868898391723633,2.8259992599487305,12.420564651489258,10.642057418823242,-75.4992904663086, 17.951311111450195
594,2245884061,0.8096166,0.21639928,-0.430946,0.3346315,9.56888484954834,2.779029607772827,13.124698638916016,2.8409976959228516,-63.65739822387695, 16.990924835205078
595,2245900728,0.805772,0.21741769,-0.43803695,0.3340432,8.809476852416992,2.3872337341308594,10.170615196228027,-6.895989894866943,-54.33130645751953, 13.541926383972168
596,2245917395,0.80173373,0.21923436,-0.44390163,0.3348294,9.81716251373291,2.6000688076019287,9.308123588562012,4.773630142211914,-48.00960922241211, 17.390474319458008
597,2245934062,0.79847455,0.22057405,-0.44817722,0.33603987,9.348321914672852,3.000124454498291,10.519948959350586,5.918557643890381,-35.2100715637207, 17.025182723999023
598,2245950729,0.79586303,0.22079872,-0.45179385,0.33724222,9.604330062866211,3.1048033237457275,10.137674331665039,0.3039022386074066,-27.144620895385742, 17.959890365600586
599,2245967396,0.79327303,0.22205329,-0.4538539,0.33974582,9.07553482055664,2.097625970840454,9.041630744934082,13.543853759765625,-19.071086883544922, 19.508302688598633
600,2245984063,0.79059404,0.22526115,-0.45408046,0.34355432,9.53868293762207,3.428285598754883,7.857814311981201,32.68507385253906,-11.994172096252441, 17.958755493164062
601,2246000730,0.7886604,0.22683986,-0.45423555,0.34673986,9.982666015625,3.594377040863037,7.721951007843018,20.876384735107422,-6.433619976043701, 17.836368560791016
602,2246017397,0.7871816,0.22821847,-0.45389932,0.3496241,10.700974464416504,3.451359748840332,6.945138931274414,19.285062789916992,-2.371523141860962, 15.02402400970459
603,2246034064,0.7859531,0.22965215,-0.4527053,0.35298154,12.48480224609375,4.003468036651611,5.209873199462891,22.70326805114746,3.6612491607666016, 15.505977630615234
604,2246050731,0.78638095,0.22716457,-0.45175156,0.35485527,13.159423828125,5.614694595336914,5.9520416259765625,-6.337143898010254,14.754279136657715, 16.099050521850586
605,2246067398,0.7889621,0.22000971,-0.4511157,0.3544424,11.589040756225586,4.200123310089111,5.987115859985352,-42.87089920043945,27.582923889160156, 13.54820442199707
606,2246084065,0.79251385,0.21264295,-0.44937286,0.3532262,11.234170913696289,2.9568207263946533,5.282278060913086,-45.323883056640625,35.916595458984375, 5.846365928649902
607,2246100732,0.79650664,0.20898315,-0.44521064,0.35169697,11.02759838104248,3.468250274658203,5.118084907531738,-20.88902473449707,41.03402328491211, -11.909358978271484
608,2246117399,0.80210716,0.20612828,-0.4390118,0.34843078,10.739546775817871,4.59946870803833,6.2713398933410645,-19.214603424072266,52.70305633544922, -30.674901962280273
609,2246134066,0.8098866,0.20187968,-0.43082854,0.3430965,10.264368057250977,3.1125710010528564,6.15499210357666,-31.532846450805664,70.63597106933594, -45.86747741699219
610,2246150733,0.8196034,0.19645442,-0.4201574,0.336339,10.397980690002441,2.556274652481079,6.664397716522217,-39.154998779296875,91.02999114990234, -58.33016586303711
611,2246167400,0.8311307,0.1884404,-0.4076172,0.32796428,10.800755500793457,1.2261466979980469,6.231075286865234,-56.56935119628906,110.59054565429688, -66.69792175292969
612,2246184067,0.8435066,0.18056788,-0.3922092,0.3194744,10.331746101379395,-0.6901705861091614,7.029653549194336,-50.72853088378906,128.907470703125, -73.43572235107422
613,2246200734,0.85586214,0.17473057,-0.37377033,0.3118738,10.299428939819336,-0.31903713941574097,7.371975421905518,-29.823759078979492,143.0735626220703, -77.57779693603516
614,2246217401,0.8684368,0.16858059,-0.35315263,0.30443633,10.15392017364502,-1.1683803796768188,7.4081807136535645,-26.82044219970703,157.34451293945312, -78.987060546875
615,2246234068,0.88063264,0.16336536,-0.33021846,0.2979158,9.313841819763184,-1.6955792903900146,7.216012954711914,-13.690494537353516,169.39627075195312, -77.77322387695312
616,2246250735,0.8926701,0.1561854,-0.30579448,0.2919521,7.7250494956970215,-2.0981297492980957,7.260531902313232,-21.048242568969727,182.7469940185547, -71.3936767578125
617,2246267402,0.9039644,0.1484555,-0.27957344,0.28748614,6.722796440124512,-1.7781511545181274,7.257238388061523,-16.81089210510254,194.9507293701172, -61.585201263427734
618,2246284069,0.91443866,0.13969249,-0.25229198,0.28396624,6.3386054039001465,-1.7235461473464966,5.898739337921143,-18.422447204589844,202.99459838867188, -53.26403045654297
619,2246300736,0.9238529,0.1307273,-0.224091,0.28140682,6.1959757804870605,-1.557802438735962,5.807971954345703,-15.160499572753906,208.3028106689453, -45.769317626953125
620,2246317403,0.9320994,0.12128613,-0.1956266,0.2796621,5.882931709289551,-0.7092491984367371,6.209103107452393,-15.31645393371582,209.88949584960938, -37.90583419799805
621,2246334070,0.93931484,0.11043214,-0.1668018,0.27869293,5.174737453460693,-0.9477628469467163,6.169224262237549,-21.73764991760254,214.23739624023438, -29.402820587158203
622,2246350737,0.9451835,0.10121913,-0.13723694,0.2784761,4.638242244720459,-0.33388522267341614,6.399168491363525,-7.790043354034424,214.9544677734375, -24.453794479370117
623,2246367404,0.94977045,0.09310447,-0.10775196,0.27867046,4.224209308624268,-0.10354895889759064,6.160610198974609,0.5076795816421509,211.4595947265625, -20.340240478515625
624,2246384071,0.95309246,0.08518167,-0.07896948,0.2795043,3.7176766395568848,0.600681483745575,6.206167221069336,1.723731279373169,206.02883911132812, -13.46316146850586
625,2246400738,0.9553478,0.075774886,-0.05162064,0.2808993,3.6394739151000977,1.445753574371338,5.87469482421875,-9.818111419677734,199.28419494628906, -6.110651969909668
626,2246417405,0.9566961,0.065546475,-0.025262658,0.28248575,2.9862754344940186,1.6623653173446655,6.615617275238037,-16.59973907470703,194.19969177246094, -2.3071935176849365
627,2246434072,0.95729446,0.056610655,-0.00012627151,0.28351846,2.418647289276123,2.5875964164733887,6.482439041137695,-10.242122650146484,183.3188934326172, -4.187508583068848
628,2246450739,0.9574545,0.0478268,0.022673223,0.28368926,1.5861284732818604,2.9429214000701904,6.465919017791748,-13.665416717529297,167.34422302246094, -8.110005378723145
629,2246467406,0.95732874,0.03980709,0.042874962,0.2830177,1.015252947807312,2.397721767425537,4.901383876800537,-13.522893905639648,148.54408264160156, -12.141388893127441
630,2246484073,0.95688426,0.033029296,0.061524965,0.28195146,0.5075499415397644,2.295285940170288,4.773656845092773,-8.199908256530762,135.9155731201172, -13.34449291229248
631,2246500740,0.9560763,0.029483626,0.07852853,0.28085974,-0.5009134411811829,1.654036521911621,4.299488544464111,9.934165000915527,118.97242736816406, -11.085482597351074
632,2246517407,0.9551177,0.02941685,0.09308208,0.2796801,-1.4595626592636108,2.041367292404175,3.3246078491210938,28.13344955444336,96.19556427001953, -9.012110710144043
633,2246534074,0.95417845,0.03231805,0.10442466,0.27855805,-1.635848879814148,1.7561126947402954,1.9654937982559204,41.380760192871094,69.35968017578125, -6.135202407836914
634,2246550741,0.9533964,0.03740002,0.11231145,0.2775301,-2.1747236251831055,1.6198313236236572,1.9537416696548462,48.943050384521484,42.37101745605469, -3.494213104248047
635,2246567408,0.952969,0.042492047,0.11655123,0.27651507,-2.5200178623199463,1.7619504928588867,2.33768367767334,41.929443359375,18.114925384521484, -3.1438026428222656
636,2246584075,0.95298433,0.047101453,0.117411435,0.27534884,-2.58260178565979,2.182352066040039,2.804425001144409,32.31269836425781,-3.5735485553741455, -4.371579170227051
637,2246600742,0.9535754,0.049252596,0.114684016,0.27407274,-2.81600022315979,2.388598680496216,3.54719614982605,9.286693572998047,-22.987552642822266, -6.998429775238037
638,2246617409,0.9547661,0.048484515,0.108172484,0.27270886,-2.7962684631347656,2.6015255451202393,3.3598320484161377,-17.14833641052246,-42.85966491699219, -9.713141441345215
639,2246634076,0.9562387,0.045100044,0.09946444,0.2714414,-2.553226947784424,2.212721109390259,5.879007339477539,-38.64548873901367,-52.61115646362305, -10.810173034667969
640,2246650743,0.95768756,0.039340105,0.09003498,0.27051973,-2.0456507205963135,2.04673433303833,8.159109115600586,-55.85723114013672,-52.83900833129883, -9.879437446594238
641,2246667410,0.95901996,0.029359624,0.07984258,0.27026665,-2.049734115600586,2.5882840156555176,8.515755653381348,-85.45840454101562,-49.778526306152344, -7.655299186706543
642,2246684077,0.95983106,0.014187984,0.06682399,0.27213538,-1.6581333875656128,4.056656837463379,0.8740419149398804,-126.029296875,-58.07313919067383, 5.031578540802002
643,2246700744,0.960487,0.0010222668,0.040697765,0.27533206,1.87837553024292,3.5842998027801514,-30.50071144104004,-138.01231384277344,-148.17698669433594, 16.299673080444336
644,2246717411,0.96091014,-0.004716551,0.00048305758,0.27682015,19.289281845092773,-2.6008434295654297,-6.738772869110107,-115.28376007080078,-255.2909698486328, 7.670713424682617
645,2246734078,0.9608631,-0.016989812,-0.038463898,0.27381396,3.732046127319336,5.981817245483398,11.78610610961914,-155.9668426513672,-233.7830047607422, -21.05057144165039
646,2246750745,0.9591858,-0.024659568,-0.080492064,0.26995492,9.29269790649414,-9.418993949890137,-5.077499866485596,-131.9174041748047,-263.07305908203125, -25.103824615478516
647,2246767412,0.95592546,-0.028476568,-0.11974372,0.26656565,-3.8096923828125,1.1463632583618164,8.682892799377441,-101.06019592285156,-252.59957885742188, -20.667804718017578
648,2246784079,0.95212,-0.02825742,-0.15336765,0.2629593,3.146482467651367,3.123096227645874,5.760770797729492,-64.51769256591797,-223.57321166992188, -23.264123916625977
649,2246800746,0.9481728,-0.024053156,-0.18175511,0.25952867,6.08490514755249,0.36518269777297974,5.133465766906738,-28.871490478515625,-196.6416015625, -24.967626571655273
650,2246817413,0.94388974,-0.016710088,-0.20531201,0.2581478,10.273775100708008,-1.3765920400619507,8.259387969970703,2.723188877105713,-171.39862060546875, -14.066564559936523
651,2246834080,0.93960524,-0.0023952744,-0.22531474,0.2576229,12.103141784667969,0.015758246183395386,9.261933326721191,55.521156311035156,-160.6295166015625, -17.905567169189453
652,2246850747,0.9352453,0.010603185,-0.24279372,0.25740105,10.347686767578125,-2.76945161819458,7.770355701446533,51.950252532958984,-141.91285705566406, -13.685102462768555
653,2246867414,0.9307318,0.024051493,-0.25747398,0.2585869,10.877228736877441,-5.158566951751709,7.750067234039307,62.22898864746094,-124.71168518066406, -5.327345371246338
654,2246884081,0.9261726,0.037398838,-0.26975784,0.26083785,11.173828125,-5.166920185089111,10.183459281921387,67.86408233642578,-108.94931030273438, 1.2870168685913086
655,2246900748,0.92167014,0.04979641,-0.27951348,0.2644178,11.8905668258667,-5.730082035064697,11.018111228942871,68.92821502685547,-90.59211730957031, 10.688883781433105
656,2246917415,0.91657364,0.06409755,-0.28721994,0.27071992,12.525598526000977,-5.691919326782227,13.139840126037598,90.2892074584961,-81.18048095703125, 24.553321838378906
657,2246934082,0.91076887,0.08192262,-0.2931763,0.2789918,11.477897644042969,-4.0671281814575195,11.995306968688965,120.09677124023438,-77.18010711669922, 30.427465438842773
658,2246950749,0.90445876,0.10103275,-0.29826847,0.28772026,9.907068252563477,-0.35299158096313477,11.271310806274414,131.11367797851562,-74.95637512207031, 31.06073570251465
659,2246967416,0.89842355,0.116718456,-0.3036761,0.2949457,9.809049606323242,2.248711347579956,12.648394584655762,105.93338012695312,-70.62083435058594, 28.34315299987793
660,2246984083,0.8928158,0.13143869,-0.30735594,0.301888,9.508580207824707,2.433291435241699,14.278653144836426,102.50636291503906,-57.35853576660156, 26.34547233581543
661,2247000750,0.88795465,0.14439397,-0.30866474,0.30889022,8.029305458068848,4.654111385345459,13.630647659301758,96.01322174072266,-37.59035873413086, 26.739957809448242
662,2247017417,0.8810262,0.15744814,-0.3161631,0.31471244,8.223349571228027,7.3116984367370605,3.569655179977417,82.9486083984375,-81.25914764404297, 29.90322494506836
663,2247034084,0.87478316,0.16139737,-0.3293266,0.31662202,12.593812942504883,4.693944454193115,4.570403575897217,6.144013404846191,-98.52223205566406, 30.751977920532227
664,2247050751,0.8687966,0.16860968,-0.3396391,0.31844756,10.40833568572998,3.7765090465545654,14.843438148498535,31.425085067749023,-87.81906127929688, 19.195789337158203
665,2247067418,0.8618646,0.17999992,-0.34795043,0.32205597,7.559679985046387,2.812126398086548,15.891839027404785,65.992919921875,-85.27176666259766, 19.879404067993164
666,2247084085,0.8550187,0.19015975,-0.35607612,0.3255651,9.349014282226562,5.467704772949219,12.404787063598633,58.76737976074219,-81.58150482177734, 21.84054183959961
667,2247100752,0.8484563,0.19824469,-0.3652585,0.32773048,9.054449081420898,4.366289138793945,12.339189529418945,40.482723236083984,-84.31686401367188, 19.853076934814453
668,2247117419,0.84138614,0.20690349,-0.37468207,0.32996014,8.597197532653809,3.0458123683929443,13.313711166381836,44.108154296875,-88.3251953125, 20.32649803161621
669,2247134086,0.83467084,0.21586563,-0.38211763,0.3327352,8.777212142944336,3.3823461532592773,14.108513832092285,51.27593994140625,-75.98667907714844, 19.105915069580078
670,2247150753,0.8287232,0.2245777,-0.38735038,0.33577156,8.566390991210938,3.861384868621826,14.24541187286377,54.425514221191406,-60.55876541137695, 16.283187866210938
671,2247167420,0.8236342,0.2320606,-0.39070505,0.33930013,8.171361923217773,3.1803035736083984,13.20065689086914,51.7359504699707,-44.17851638793945, 17.539466857910156
672,2247184087,0.81912696,0.23867609,-0.39262825,0.34337735,7.887038707733154,3.8812575340270996,11.426759719848633,50.71245193481445,-31.801876068115234, 19.380369186401367
673,2247200754,0.8159198,0.2429542,-0.39390612,0.34653464,7.505627155303955,4.322565078735352,8.919761657714844,34.44129943847656,-20.801414489746094, 16.44532585144043
674,2247217421,0.8125282,0.24724287,-0.3952526,0.34992042,7.828780651092529,3.226240396499634,6.811320781707764,35.229000091552734,-21.424728393554688, 18.32695770263672
675,2247234088,0.80897886,0.25247088,-0.39583448,0.35373256,8.556097030639648,3.7768383026123047,7.096951961517334,43.722869873046875,-19.147228240966797, 17.280271530151367
676,2247250755,0.80625707,0.25646737,-0.39598134,0.35689345,8.619243621826172,4.626506328582764,9.127700805664062,34.69315719604492,-12.637104988098145, 14.296849250793457
677,2247267422,0.80478394,0.25866407,-0.39559868,0.35905114,8.673008918762207,4.29518985748291,9.202638626098633,21.046438217163086,-3.7417924404144287, 9.715511322021484
678,2247284089,0.8037956,0.25900036,-0.39616287,0.36039785,8.511924743652344,3.916600465774536,6.830328941345215,5.315336227416992,-4.6041669845581055, 10.840959548950195
679,2247300756,0.8025532,0.25902396,-0.39732847,0.36186376,9.14283561706543,4.173488616943359,5.623791217803955,2.843172073364258,-7.660816192626953, 14.10935115814209
680,2247317423,0.801067,0.260106,-0.3984507,0.36314452,9.684514045715332,5.445862770080566,6.209942817687988,8.677726745605469,-11.031542778015137, 10.785910606384277
681,2247334090,0.7997414,0.26060727,-0.40027368,0.36370146,9.813613891601562,4.91402530670166,6.253603458404541,1.396181583404541,-14.286201477050781, 9.33677864074707
682,2247350757,0.7980304,0.26257694,-0.40213168,0.36399335,9.814393043518066,4.843887805938721,5.775655269622803,9.293347358703613,-19.676607131958008, 4.945199966430664
683,2247367424,0.79630536,0.26532298,-0.40437034,0.36329964,9.681941032409668,5.452133655548096,5.869543075561523,9.852123260498047,-25.50543785095215, -1.8074288368225098
684,2247384091,0.7950586,0.26800126,-0.40600368,0.36224028,10.537788391113281,5.585030555725098,5.912501811981201,9.047658920288086,-21.348125457763672, -5.821598529815674
685,2247400758,0.7948402,0.26896662,-0.40695274,0.36093703,11.751919746398926,7.080048561096191,5.475651264190674,-1.2460328340530396,-10.899221420288086, -6.0993475914001465
686,2247417425,0.79790807,0.2626752,-0.4085311,0.35699728,10.998190879821777,7.521838665008545,5.663248538970947,-56.0140380859375,8.028962135314941, -7.067521572113037
687,2247434092,0.80395186,0.25010136,-0.410455,0.3501969,9.726778984069824,5.034549713134766,5.594759941101074,-104.85064697265625,24.73908233642578, -11.657732963562012
688,2247450759,0.81035775,0.24020919,-0.40937963,0.34355274,8.991236686706543,3.7340903282165527,6.108309745788574,-83.0604248046875,36.113277435302734, -24.323022842407227
689,2247467426,0.81751966,0.23297878,-0.40508583,0.33658314,9.32281494140625,4.609055995941162,6.518367767333984,-62.84715270996094,49.290740966796875, -40.69983673095703
690,2247484093,0.82643557,0.22509049,-0.39822987,0.32825553,9.607882499694824,4.218543529510498,7.335284233093262,-67.29006958007812,67.86631774902344, -54.61845779418945
691,2247500760,0.8367923,0.21701013,-0.38831875,0.31920794,9.596590042114258,2.2058403491973877,6.9657206535339355,-65.76565551757812,88.41606903076172, -66.145263671875
692,2247517427,0.8481379,0.20859672,-0.37511936,0.31054017,10.162477493286133,1.0517876148223877,7.003129482269287,-60.97016143798828,111.22306823730469, -70.20692443847656
693,2247534094,0.8600567,0.19924793,-0.3592216,0.3025933,10.37121295928955,-0.5633877515792847,7.346942901611328,-59.6451530456543,131.4512481689453, -68.79359436035156
694,2247550761,0.87177896,0.19120735,-0.34042132,0.2958966,9.542304992675781,-1.381148338317871,7.973106861114502,-42.48834228515625,147.1254119873047, -68.36056518554688
695,2247567428,0.88310325,0.18378425,-0.31929177,0.29052505,8.62997817993164,-1.6793787479400635,7.634408473968506,-30.36884880065918,160.64013671875, -64.2959976196289
696,2247584095,0.89410365,0.1753649,-0.29648662,0.28621998,8.173161506652832,-1.757385492324829,7.556820392608643,-30.253253936767578,173.45445251464844, -57.28766632080078
697,2247600762,0.90486497,0.16467355,-0.2726872,0.28238973,7.887310028076172,-1.9610239267349243,7.113627910614014,-40.93231964111328,184.15158081054688, -50.64601135253906
698,2247617429,0.9146307,0.15464759,-0.24760295,0.27969244,7.148037910461426,-1.9973328113555908,6.879082679748535,-30.954605102539062,190.32571411132812, -44.5375862121582
