PacketCounter,SampleTimeFine,Quat_W,Quat_X,Quat_Y,Quat_Z,Acc_X,Acc_Y,Acc_Z,Gyr_X,Gyr_Y,Gyr_Z 
1,2848710695,0.90169394,-0.060067788,-0.3449983,0.2536064,-0.15670937299728394,-0.034993622452020645,0.24264664947986603,-0.40965408086776733,-0.15450245141983032, -0.8066086173057556
2,2848727362,0.90727484,-0.046981737,-0.34215903,0.23994242,8.466081619262695,-2.567274332046509,13.554464340209961,-84.75704193115234,-100.38624572753906, -44.27283477783203
3,2848744029,0.9126869,-0.035669204,-0.33634645,0.22935033,8.778923988342285,-4.32205057144165,11.326794624328613,-64.9754867553711,-83.67647552490234, -40.50440216064453
4,2848760696,0.9126622,-0.036267295,-0.3409754,0.22241466,9.262492179870605,-3.367978572845459,10.034625053405762,-49.345863342285156,-72.12254333496094, -38.78654861450195
5,2848777363,0.9102021,-0.036785025,-0.35141402,0.21607329,8.771790504455566,-4.5201568603515625,9.625247955322266,-35.16830825805664,-63.397891998291016, -35.45939254760742
6,2848794030,0.90723366,-0.03751974,-0.36083087,0.21288612,8.552759170532227,-4.03148889541626,10.032264709472656,-5.054814338684082,-48.82947540283203, -30.25021743774414
7,2848810697,0.9049646,-0.037602562,-0.36736053,0.21135633,8.130559921264648,-4.56362247467041,9.194998741149902,7.270542621612549,-37.00050735473633, -24.10359001159668
8,2848827364,0.9030622,-0.03784766,-0.3717409,0.21179,8.463647842407227,-5.665380001068115,9.310952186584473,17.97673225402832,-26.245452880859375, -16.073131561279297
9,2848844031,0.9017029,-0.037204217,-0.3737248,0.21419121,8.89991283416748,-5.0964484214782715,10.201181411743164,38.07472610473633,-13.55113697052002, -12.534025192260742
10,2848860698,0.90079844,-0.036678724,-0.37443665,0.21682848,8.92176628112793,-4.649089813232422,9.519902229309082,37.5936393737793,-7.737666130065918, -10.163098335266113
11,2848877365,0.90029985,-0.03625308,-0.37415823,0.21943487,9.043295860290527,-4.497504234313965,8.758713722229004,35.33074951171875,-0.052954498678445816, -7.455634593963623
12,2848894032,0.89954627,-0.038086466,-0.37447965,0.22165607,8.887337684631348,-3.9826879501342773,7.686273097991943,17.120153427124023,1.775301218032837, -0.8218867182731628
13,2848910699,0.8989026,-0.041945398,-0.3746629,0.22325444,8.72572135925293,-3.84328556060791,8.063126564025879,0.8247612714767456,9.889060020446777, 3.9195189476013184
14,2848927366,0.89857155,-0.04708842,-0.37395045,0.22475146,10.721419334411621,-5.173524379730225,7.469789981842041,-8.556784629821777,19.33867073059082, 9.34315299987793
15,2848944033,0.8984091,-0.048249193,-0.37229607,0.22787958,11.364490509033203,-5.672694683074951,5.013719081878662,22.45714569091797,24.232934951782227, 10.692519187927246
16,2848960700,0.89832973,-0.04723608,-0.36982968,0.23237665,11.485579490661621,-4.92266321182251,5.775112628936768,43.08148193359375,33.619930267333984, 14.631897926330566
17,2848977367,0.89831,-0.04583394,-0.36672905,0.23758958,10.298933982849121,-3.984078884124756,6.8566179275512695,48.28973388671875,41.24818420410156, 19.994436264038086
18,2848994034,0.898418,-0.04633086,-0.36277136,0.2430969,10.554104804992676,-3.5559322834014893,7.1782732009887695,36.85746383666992,50.004539489746094, 28.657384872436523
19,2849010701,0.8986935,-0.04750068,-0.3577621,0.24919932,10.573893547058105,-3.7039794921875,6.186380386352539,33.898250579833984,57.772159576416016, 36.23904037475586
20,2849027368,0.8993053,-0.047954626,-0.35084873,0.25662407,10.88018798828125,-3.63226318359375,5.37127161026001,43.85542297363281,69.43372344970703, 44.305877685546875
21,2849044035,0.9006933,-0.048741836,-0.34089094,0.2648954,10.587126731872559,-2.7841339111328125,6.334634780883789,48.827171325683594,91.83419799804688, 51.447513580322266
22,2849060702,0.9027618,-0.050031018,-0.32838824,0.27327496,10.608331680297852,-1.9895986318588257,7.044912815093994,49.2840576171875,110.21478271484375, 54.646358489990234
23,2849077369,0.90556973,-0.049972214,-0.31310794,0.28179792,10.808810234069824,-1.506130337715149,6.966573715209961,61.33944320678711,126.37684631347656, 53.908870697021484
24,2849094036,0.9090438,-0.048593894,-0.29521066,0.2900501,10.566526412963867,-0.9303304553031921,7.521193981170654,72.20431518554688,141.93252563476562, 50.6329460144043
25,2849110703,0.9128581,-0.047779508,-0.27562162,0.2973889,10.428264617919922,-0.20357707142829895,7.569316864013672,68.08621978759766,154.69100952148438, 47.329349517822266
26,2849127370,0.9167725,-0.048112255,-0.25475967,0.30382776,9.636549949645996,-0.06821955740451813,7.075483322143555,59.502506256103516,165.73114013671875, 45.294715881347656
27,2849144037,0.9206194,-0.05027697,-0.23279084,0.30942023,8.137186050415039,0.42158961296081543,7.256978511810303,46.88764190673828,176.79074096679688, 44.47129440307617
28,2849160704,0.9242554,-0.054996215,-0.21046197,0.31374162,7.002256393432617,1.351232886314392,7.0237860679626465,27.49364471435547,183.93563842773438, 41.57546615600586
29,2849177371,0.92763084,-0.060571272,-0.1876665,0.31719652,6.389173984527588,1.0555787086486816,6.763941287994385,19.626602172851562,187.74560546875, 38.432064056396484
30,2849194038,0.9307997,-0.06515985,-0.16400811,0.32010585,5.881507873535156,0.29157134890556335,6.686863422393799,25.442367553710938,190.1682586669922, 34.50876235961914
31,2849210705,0.93400615,-0.06823415,-0.13871579,0.32207924,4.79721212387085,0.7709254026412964,7.449667453765869,36.75722885131836,196.930419921875, 27.09904670715332
32,2849227372,0.9369785,-0.07168674,-0.112517126,0.32291254,4.150529861450195,1.0217056274414062,7.310412406921387,34.01810073852539,202.72979736328125, 20.546916961669922
33,2849244039,0.93962073,-0.074537635,-0.084701724,0.32308334,4.004513263702393,0.46092087030410767,7.599221229553223,39.77980422973633,210.75469970703125, 16.70458221435547
34,2849260706,0.94179535,-0.077182904,-0.05621565,0.32234192,3.8905928134918213,0.7970066070556641,6.932708740234375,41.21254348754883,213.92276000976562, 11.334822654724121
35,2849277373,0.94349384,-0.07864055,-0.027906941,0.32071272,4.391508102416992,-0.3488085865974426,6.360894680023193,47.3543815612793,209.76756286621094, 5.339563369750977
36,2849294040,0.9446104,-0.07945646,-0.0009486208,0.31842887,4.005370140075684,-0.03600816801190376,6.583197116851807,48.174686431884766,199.5778350830078, 0.8175443410873413
37,2849310707,0.9450453,-0.081796154,0.02311461,0.3156973,3.278998613357544,0.11015378683805466,6.573524475097656,31.563499450683594,184.05441284179688, -2.7887847423553467
38,2849327374,0.94490933,-0.08525831,0.04483924,0.31283697,2.8572425842285156,-0.10285235941410065,5.9493279457092285,18.9027156829834,171.0009765625, -4.382137298583984
39,2849344041,0.9442629,-0.08968402,0.065197095,0.30995807,1.9009438753128052,-0.1250154823064804,6.102427959442139,9.56627368927002,163.85289001464844, -4.892017364501953
40,2849360708,0.94309705,-0.095140904,0.08337591,0.30751437,1.0054150819778442,-0.6480728387832642,4.975297451019287,-2.107966661453247,151.16867065429688, -3.0864250659942627
41,2849377375,0.9418648,-0.09952838,0.09890473,0.30529147,0.050833798944950104,-1.1318243741989136,3.801844835281372,-0.5553423762321472,130.71009826660156, -2.856064796447754
42,2849394042,0.9406333,-0.10363358,0.11135994,0.30342796,-1.328687071800232,-0.8552426099777222,3.7279436588287354,-4.875171661376953,108.8458023071289, -2.5917809009552
43,2849410709,0.9396113,-0.10716222,0.12033422,0.30193835,-1.6713649034500122,-0.9742610454559326,2.8772809505462646,-8.119209289550781,83.34822845458984, -2.7872941493988037
44,2849427376,0.93898445,-0.1087668,0.12658606,0.30075604,-2.026329755783081,-0.912459671497345,2.5987582206726074,-0.8559873700141907,59.87179946899414, -2.132054090499878
45,2849444043,0.9389497,-0.10720507,0.12987022,0.30002442,-2.1063573360443115,-1.6864769458770752,-0.044775936752557755,13.904777526855469,32.018402099609375, -0.018479641526937485
46,2849460710,0.93977046,-0.10153061,0.12980597,0.29945582,-2.2771008014678955,-1.835769772529602,-1.844273567199707,34.67234420776367,-0.33460572361946106, 0.402524471282959
47,2849477377,0.94128925,-0.09248758,0.12633336,0.29909992,-2.522413492202759,-1.920086145401001,-0.5139644742012024,50.38032150268555,-31.463970184326172, 0.8903982639312744
48,2849494044,0.9431824,-0.07994433,0.12036599,0.2992125,-2.259997606277466,-2.472931385040283,1.0578911304473877,68.32093048095703,-56.652671813964844, 4.516841888427734
49,2849510711,0.9449596,-0.06577229,0.11303904,0.29991293,-2.5449962615966797,-1.5732969045639038,5.228542327880859,76.16065216064453,-69.99935913085938, 9.1091890335083
50,2849527378,0.9462875,-0.053027757,0.105053276,0.3011517,-2.2821409702301025,-0.825661301612854,8.424678802490234,65.24093627929688,-71.92849731445312, 12.028468132019043
51,2849544045,0.94715506,-0.043555394,0.09725139,0.30256042,-2.296339511871338,0.3219110369682312,10.974425315856934,44.191932678222656,-64.14188385009766, 11.709158897399902
52,2849560712,0.94764423,-0.035809744,0.08821284,0.3048064,-1.8853497505187988,-0.6323326230049133,4.962636947631836,29.635438919067383,-68.94924926757812, 16.339649200439453
53,2849577379,0.94844615,-0.028573023,0.06365745,0.30916303,2.799145221710205,-1.2108043432235718,-30.909120559692383,-7.23227071762085,-170.22366333007812, 25.326274871826172
54,2849594046,0.94933575,-0.0051133037,0.024837526,0.3132394,25.232036590576172,-1.0208324193954468,-13.696244239807129,68.76549530029297,-298.5277404785156, 27.618789672851562
55,2849610713,0.9480877,0.015782667,-0.011628813,0.31740466,0.28542593121528625,3.1693272590637207,14.773412704467773,57.28925323486328,-273.27191162109375, 32.329193115234375
56,2849627380,0.94554543,0.038269315,-0.044285074,0.3201848,6.254976272583008,3.666393280029297,-1.6339194774627686,75.5512924194336,-252.54458618164062, 25.4434871673584
57,2849644047,0.9425076,0.056674648,-0.072233774,0.32132548,-0.3499241769313812,-2.4223251342773438,-0.9317784309387207,58.44602584838867,-212.87889099121094, 15.800019264221191
58,2849660714,0.9396239,0.06659969,-0.094939224,0.3219601,1.391655445098877,-0.23137293756008148,3.050917148590088,15.185592651367188,-160.7481231689453, 14.249503135681152
59,2849677381,0.93597925,0.07098218,-0.1160717,0.324703,6.070145130157471,-3.08097505569458,10.369781494140625,-15.300409317016602,-138.13479614257812, 32.4623908996582
60,2849694048,0.9320021,0.07566662,-0.13635492,0.3271915,9.527091979980469,-0.028462857007980347,9.686622619628906,-10.936992645263672,-134.80136108398438, 30.87555694580078
61,2849710715,0.9276419,0.07872656,-0.16004162,0.3281309,9.910834312438965,0.38128554821014404,10.497139930725098,-30.28813362121582,-156.1121368408203, 25.246688842773438
62,2849727382,0.9225239,0.085704155,-0.18177323,0.3294895,9.90418529510498,4.164641857147217,7.132564067840576,-0.12305407971143723,-155.00926208496094, 24.386091232299805
63,2849744049,0.9182285,0.08624802,-0.20144677,0.3299049,9.273344039916992,4.418400287628174,6.2996602058410645,-38.193870544433594,-128.16122436523438, 23.540925979614258
64,2849760716,0.91469985,0.08173879,-0.22011131,0.32892865,10.099010467529297,2.491136074066162,8.167190551757812,-70.28707122802734,-110.87469482421875, 19.51629638671875
65,2849777383,0.9123874,0.07454855,-0.23593602,0.32607707,11.493424415588379,2.9224729537963867,10.450539588928223,-84.22130584716797,-86.62303924560547, 7.447845935821533
66,2849794050,0.9110288,0.064983204,-0.24965581,0.32167682,11.571393966674805,1.8150115013122559,10.169181823730469,-97.3955307006836,-67.60601043701172, -1.6277165412902832
67,2849810717,0.9103119,0.05272661,-0.26254213,0.3156333,11.705521583557129,0.842336118221283,11.51812744140625,-115.4934310913086,-56.223243713378906, -9.098150253295898
68,2849827384,0.9094757,0.039835114,-0.27558294,0.3087417,11.245231628417969,-0.505898118019104,11.51087760925293,-121.25724029541016,-56.441986083984375, -12.939413070678711
69,2849844051,0.90832233,0.027557598,-0.28831324,0.30177316,10.796859741210938,-2.141608476638794,13.7684326171875,-116.80732727050781,-56.49409484863281, -14.031682968139648
70,2849860718,0.90673476,0.016294654,-0.300666,0.29524058,9.559477806091309,-4.1710734367370605,15.13127326965332,-108.70675659179688,-57.084678649902344, -12.492048263549805
71,2849877385,0.9047534,0.006453439,-0.31250608,0.28934428,8.42244815826416,-3.9987528324127197,14.271191596984863,-97.42031860351562,-57.575775146484375, -10.750395774841309
72,2849894052,0.9022824,-0.0053949077,-0.32511786,0.28311852,8.085494041442871,-4.2965617179870605,13.470001220703125,-112.11229705810547,-59.4968147277832, -7.488005638122559
73,2849910719,0.8995561,-0.0136782285,-0.3377358,0.2766701,9.021075248718262,-4.229946136474609,9.798881530761719,-90.5108642578125,-67.06526947021484, -16.36064338684082
74,2849927386,0.8948583,-0.020430915,-0.35462317,0.27028477,11.826089859008789,-6.431224346160889,5.6827168464660645,-89.19607543945312,-100.96743774414062, -16.178951263427734
75,2849944053,0.88932663,-0.016191224,-0.37094438,0.2669018,13.352190971374512,-5.203529357910156,8.850735664367676,-13.282060623168945,-120.32254028320312, -22.893112182617188
76,2849960720,0.883348,-0.011195473,-0.3867423,0.26457828,9.412220001220703,-2.7291009426116943,14.797615051269531,-5.035614013671875,-119.74945831298828, -17.458066940307617
77,2849977387,0.8768399,-0.010284519,-0.40334868,0.2614502,9.173944473266602,-4.618041515350342,16.409955978393555,-33.527130126953125,-118.62544250488281, -10.581830024719238
78,2849994054,0.8706656,-0.009240145,-0.41779545,0.25942913,9.481496810913086,-4.699694633483887,15.312765121459961,-25.75646209716797,-105.05221557617188, -4.731821060180664
79,2850010721,0.8647421,-0.011066482,-0.43108884,0.257413,9.682435989379883,-4.834445476531982,14.529010772705078,-40.85687255859375,-92.34844970703125, 3.1681807041168213
80,2850027388,0.8592218,-0.01249794,-0.44280332,0.25594422,9.43239688873291,-4.674838066101074,13.45970630645752,-34.070613861083984,-82.53439331054688, 4.64799690246582
81,2850044055,0.8544221,-0.014083144,-0.45355964,0.25307864,8.890687942504883,-2.250267744064331,14.694395065307617,-37.48923873901367,-74.31068420410156, -4.327678203582764
82,2850060722,0.850313,-0.01950063,-0.46374604,0.24804723,8.231764793395996,-2.302130699157715,13.943259239196777,-65.71516418457031,-61.96782684326172, -6.233567714691162
83,2850077389,0.84679663,-0.02634665,-0.47240737,0.24304941,8.032086372375488,-3.0116209983825684,9.983373641967773,-71.29708099365234,-48.75977325439453, -2.2848281860351562
84,2850094056,0.84388745,-0.03293586,-0.4796809,0.2380671,8.557065963745117,-3.1972367763519287,7.809853553771973,-67.32807159423828,-39.137752532958984, -3.7960634231567383
85,2850110723,0.8404911,-0.03572913,-0.48557183,0.23773658,9.577173233032227,-4.728100776672363,8.318782806396484,-50.397579193115234,-31.820016860961914, -3.2679781913757324
86,2850127390,0.8379925,-0.034456965,-0.48901486,0.23967956,9.862117767333984,-5.530449390411377,9.392206192016602,-8.006318092346191,-24.37562370300293, 0.37431126832962036
87,2850144057,0.83774596,-0.031775355,-0.49004143,0.23881306,9.899588584899902,-3.689310073852539,10.520926475524902,26.403305053710938,-15.836819648742676, -3.499807596206665
88,2850160724,0.8378164,-0.030393634,-0.49087763,0.23702186,9.963052749633789,-3.1412155628204346,10.32011890411377,17.783506393432617,-11.814414024353027, -3.951148748397827
89,2850177391,0.8382,-0.028570652,-0.4906572,0.23634838,9.574942588806152,-3.405320644378662,9.920266151428223,19.368152618408203,-3.2740118503570557, -3.461138963699341
90,2850194058,0.83870876,-0.025836296,-0.48900932,0.23826529,9.866754531860352,-3.5341832637786865,8.667009353637695,24.9102840423584,7.140215873718262, 1.595143437385559
91,2850210725,0.8400204,-0.02317217,-0.48559794,0.24088146,11.16364574432373,-3.7544984817504883,7.194672107696533,29.888511657714844,20.01403045654297, 4.863368511199951
92,2850227392,0.84275454,-0.018019363,-0.4788092,0.24532045,10.460413932800293,-4.343237400054932,6.434686660766602,56.17323303222656,39.89030456542969, 5.26685905456543
93,2850244059,0.84684145,-0.009669469,-0.46867394,0.25121954,10.251797676086426,-3.254189968109131,6.612398624420166,85.33248901367188,58.189632415771484, 1.3340044021606445
94,2850260726,0.8517083,-0.0007561703,-0.4564704,0.2573474,9.951424598693848,-2.5953524112701416,6.62489128112793,92.98046112060547,71.77908325195312, -0.35482996702194214
95,2850277393,0.85695946,0.005746426,-0.44323692,0.26292387,10.108121871948242,-1.8442187309265137,7.007542133331299,78.95796203613281,83.30195617675781, 3.3132781982421875
96,2850294060,0.86242557,0.008152052,-0.42956933,0.26763144,9.789254188537598,-2.0464723110198975,7.132986068725586,52.9440803527832,93.90067291259766, 10.281571388244629
97,2850310727,0.86818254,0.008170973,-0.41482702,0.2722344,10.061570167541504,-2.268545389175415,5.7188005447387695,40.44258499145508,105.53093719482422, 16.117910385131836
98,2850327394,0.8745121,0.00807809,-0.39779133,0.27735513,9.596820831298828,-2.023404836654663,5.130084037780762,45.52009963989258,121.11712646484375, 18.330806732177734
99,2850344061,0.8814801,0.008678346,-0.37815365,0.28269765,9.800710678100586,-1.5333930253982544,5.695659160614014,55.22831726074219,137.22593688964844, 16.41086769104004
100,2850360728,0.88882244,0.010274232,-0.35619885,0.28811812,10.321517944335938,-1.8785227537155151,6.290112018585205,65.94390106201172,150.33778381347656, 13.428375244140625
101,2850377395,0.89626586,0.012185428,-0.3323309,0.29345492,9.997325897216797,-1.188119649887085,6.648195266723633,71.45316314697266,161.67214965820312, 11.812148094177246
102,2850394062,0.90355486,0.012002735,-0.30742055,0.29822433,9.480979919433594,-1.320438265800476,6.777804851531982,59.36471176147461,171.94271850585938, 13.325600624084473
103,2850410729,0.91040474,0.007949271,-0.28239378,0.30224913,8.30862808227539,-1.108854055404663,6.100039005279541,34.01862335205078,179.63226318359375, 17.776580810546875
104,2850427396,0.91670966,0.0006957735,-0.25705487,0.30588603,7.362399578094482,-1.3415628671646118,5.668666362762451,13.910452842712402,187.1747589111328, 22.677324295043945
105,2850444063,0.9223044,-0.008411467,-0.23155746,0.30929825,6.376899719238281,-0.971653163433075,5.734938621520996,2.170684814453125,190.8301239013672, 26.033916473388672
106,2850460730,0.92715704,-0.018161014,-0.20552343,0.31274718,5.18359899520874,-1.021357536315918,6.060997486114502,-0.7486202716827393,194.42483520507812, 28.89446258544922
107,2850477397,0.9312483,-0.029001825,-0.17953438,0.31575823,4.682199001312256,-0.9576533436775208,5.582431316375732,-8.514527320861816,195.462646484375, 29.280765533447266
108,2850494064,0.9348318,-0.0384847,-0.15191309,0.31863964,4.2262163162231445,-1.0638785362243652,6.22456693649292,3.463801383972168,202.36891174316406, 28.20367431640625
109,2850510731,0.9376536,-0.04808062,-0.12380868,0.32119444,3.795565366744995,-0.514094352722168,6.279407978057861,3.252131700515747,205.0143280029297, 28.016353607177734
110,2850527398,0.9398398,-0.05605548,-0.09475112,0.32339096,3.3391170501708984,-0.2927055358886719,5.483659267425537,15.289185523986816,207.15830993652344, 26.048629760742188
111,2850544065,0.9414314,-0.06261966,-0.06574359,0.3247523,3.2251644134521484,0.7342434525489807,4.988390922546387,23.515546798706055,203.6355438232422, 21.030832290649414
112,2850560732,0.94260836,-0.067832865,-0.037252355,0.32480872,3.047729730606079,0.2622251510620117,5.640412330627441,30.325712203979492,197.6555633544922, 12.679614067077637
113,2850577399,0.9434598,-0.07065307,-0.009410137,0.32373393,2.2988321781158447,-0.1854177564382553,6.7652506828308105,43.93660354614258,188.55496215820312, 5.156844139099121
114,2850594066,0.9438601,-0.07169285,0.017233543,0.3220123,1.812461495399475,-1.1960111856460571,6.537546157836914,52.5533332824707,177.10235595703125, 1.2638505697250366
115,2850610733,0.94384897,-0.07114008,0.04210445,0.31986865,1.696149468421936,-0.978348970413208,4.750192165374756,58.818992614746094,162.32821655273438, -1.2563707828521729
116,2850627400,0.94329077,-0.071810976,0.06355731,0.31781545,1.4619874954223633,-0.6950253248214722,3.6089353561401367,43.07265090942383,142.94984436035156, -1.4890472888946533
117,2850644067,0.94221663,-0.07438103,0.081450514,0.31632537,0.03463749587535858,0.4623585641384125,3.7093348503112793,22.48096466064453,123.95858001708984, 0.7015261650085449
118,2850660734,0.94086164,-0.078422554,0.09548703,0.31545523,-0.8953642249107361,-0.046676866710186005,1.9211513996124268,4.062419891357422,101.99851989746094, 2.5272789001464844
119,2850677401,0.93982613,-0.08091274,0.10660905,0.31434843,-2.035536050796509,-0.21653814613819122,2.7513294219970703,8.105186462402344,79.67081451416016, -0.2524060010910034
120,2850694068,0.9390894,-0.0824799,0.11422572,0.31346625,-2.534517765045166,-0.5957967042922974,1.897539734840393,6.4959821701049805,54.64756393432617, -0.7196861505508423
121,2850710735,0.9387441,-0.081887946,0.11964036,0.3126349,-2.5578742027282715,-0.6187503933906555,4.129122257232666,15.879923820495605,35.40336990356445, -0.7933959364891052
122,2850727402,0.9389621,-0.078416996,0.12238447,0.3118067,-2.5379910469055176,-1.0764516592025757,2.318647861480713,29.039409637451172,11.488840103149414, -1.1175755262374878
123,2850744069,0.9396756,-0.07194598,0.122972615,0.31098506,-2.892411231994629,-0.5445775985717773,3.3547420501708984,44.05733871459961,-9.309181213378906, -0.7747000455856323
124,2850760736,0.9405693,-0.065247536,0.120333135,0.3107938,-2.8332626819610596,-0.6371117234230042,3.525514841079712,38.18449020385742,-31.13758659362793, 1.5072625875473022
125,2850777403,0.94163555,-0.058261953,0.11581024,0.31067094,-2.773162841796875,0.224445179104805,5.619156360626221,36.04176330566406,-44.12661361694336, 0.974094033241272
126,2850794070,0.9426684,-0.051569484,0.11039819,0.31069267,-2.797532081604004,0.3119286894798279,7.258186340332031,32.108741760253906,-49.30084991455078, 1.3900822401046753
127,2850810737,0.94353354,-0.04493665,0.10486095,0.31101444,-2.8215785026550293,0.10997967422008514,8.269341468811035,31.159589767456055,-49.97146987915039, 3.6033859252929688
128,2850827404,0.94425976,-0.038173024,0.09954526,0.31146035,-2.639660596847534,0.20602282881736755,7.809023380279541,32.346195220947266,-48.75732421875, 4.86508846282959
129,2850844071,0.94486815,-0.03122009,0.09436831,0.3120008,-2.856235980987549,0.7317811250686646,7.2975358963012695,33.7719841003418,-48.21229934692383, 5.901168346405029
130,2850860738,0.94537175,-0.022900892,0.088760324,0.31284207,-2.7510979175567627,0.386636346578598,4.560191631317139,41.49725341796875,-53.952571868896484, 8.86815357208252
131,2850877405,0.9457616,-0.011157082,0.077889554,0.31518954,-2.893535614013672,-2.991666555404663,-11.272363662719727,51.49660873413086,-95.71623229980469, 20.17026138305664
132,2850894072,0.94595253,0.0022027611,0.045923956,0.32102975,23.62018394470215,-8.07813549041748,-28.949787139892578,14.44324779510498,-236.65499877929688, 42.57671356201172
133,2850910739,0.9456641,0.025573973,0.013180675,0.32387063,6.421073913574219,5.081704139709473,16.325210571289062,78.92117309570312,-263.39276123046875, 27.285259246826172
134,2850927406,0.9428866,0.04526759,-0.017360844,0.32956785,8.782258987426758,-2.361395835876465,1.3235669136047363,60.016361236572266,-240.04681396484375, 50.668270111083984
135,2850944073,0.9399408,0.06544152,-0.04816334,0.33152592,1.5280475616455078,0.9092958569526672,1.8597285747528076,62.182064056396484,-243.89366149902344, 26.80748176574707
136,2850960740,0.9368865,0.08068418,-0.07430999,0.33198258,0.15066799521446228,-1.0500941276550293,0.9407949447631836,40.45104217529297,-203.26612854003906, 16.879579544067383
137,2850977407,0.93363744,0.09055296,-0.095005594,0.33331,3.3534815311431885,-2.780351161956787,9.344645500183105,18.83584213256836,-155.51890563964844, 22.648664474487305
138,2850994074,0.92949504,0.098286904,-0.114440575,0.33657527,8.02546501159668,-1.0535987615585327,8.71570110321045,9.892361640930176,-141.9138946533203, 37.73357009887695
139,2851010741,0.9256344,0.10512837,-0.13393222,0.33795214,10.346790313720703,3.8102211952209473,7.986598491668701,2.4052388668060303,-141.19601440429688, 25.739500045776367
140,2851027408,0.9216893,0.11108716,-0.15385991,0.33834368,9.985692024230957,4.624186992645264,9.12004280090332,-5.127385139465332,-142.61424255371094, 20.786338806152344
141,2851044075,0.9180047,0.10855013,-0.17524144,0.3387848,8.978199005126953,5.911227703094482,6.413285255432129,-62.555423736572266,-131.6785430908203, 30.612546920776367
142,2851060742,0.9143499,0.10049,-0.1981486,0.33853164,7.9075517654418945,3.839599132537842,7.020552635192871,-101.90924835205078,-128.86685180664062, 33.995094299316406
143,2851077409,0.9112761,0.09014255,-0.22002292,0.33621526,9.615974426269531,3.145643711090088,9.411115646362305,-117.13391876220703,-117.65166473388672, 22.124605178833008
144,2851094076,0.9090548,0.07875773,-0.23879385,0.33225676,10.932107925415039,1.96189546585083,10.911474227905273,-119.50619506835938,-95.50189971923828, 9.54382038116455
145,2851110743,0.9074156,0.06678824,-0.2555125,0.32687902,12.087358474731445,0.014533564448356628,11.172113418579102,-121.13523864746094,-81.11712646484375, -0.7723831534385681
146,2851127410,0.9058589,0.05520163,-0.27145246,0.32044706,11.76500415802002,-0.37868303060531616,12.45567512512207,-118.87133026123047,-77.41576385498047, -8.52447509765625
147,2851144077,0.90384734,0.043532964,-0.28756446,0.3138027,11.15970230102539,-1.899253010749817,13.200407028198242,-119.99285888671875,-79.21971130371094, -8.614142417907715
148,2851160744,0.9015401,0.032617494,-0.3025055,0.30765632,9.971406936645508,-3.13871169090271,14.68763256072998,-111.67874908447266,-74.01422119140625, -6.6828789710998535
149,2851177411,0.89887714,0.021804199,-0.3166901,0.30208007,8.476221084594727,-3.885056972503662,13.253996849060059,-108.1727294921875,-70.20016479492188, -2.802488088607788
150,2851194078,0.89621,0.0089922985,-0.33024302,0.29608586,8.076203346252441,-4.172897815704346,14.368623733520508,-120.08587646484375,-62.281471252441406, -1.1182457208633423
151,2851210745,0.89348346,0.00008684638,-0.34182626,0.2912776,7.671719074249268,-4.582359313964844,11.723401069641113,-89.28695678710938,-58.24150085449219, -2.69882869720459
152,2851227412,0.88955003,-0.0084695555,-0.35710824,0.2847865,10.043098449707031,-5.093424320220947,8.186493873596191,-98.48004913330078,-84.55963134765625, -11.460895538330078
153,2851244079,0.8838677,-0.012910812,-0.3752548,0.2789184,13.236645698547363,-5.387494087219238,6.6266255378723145,-77.44473266601562,-114.44442749023438, -14.507135391235352
154,2851260746,0.87787676,-0.011483672,-0.39163032,0.2753667,11.402729988098145,-4.26981782913208,12.16943645477295,-32.38615798950195,-115.84153747558594, -14.831687927246094
155,2851277413,0.8718402,-0.010214325,-0.40736166,0.27174884,9.343923568725586,-3.520092248916626,15.491365432739258,-32.302364349365234,-111.8056869506836, -14.676594734191895
156,2851294080,0.8660373,-0.008738143,-0.42213753,0.26777536,8.60665225982666,-3.6875879764556885,14.38464641571045,-30.29230308532715,-105.91496276855469, -17.767335891723633
157,2851310747,0.86076194,-0.009811136,-0.435661,0.2630449,9.090717315673828,-3.8340022563934326,13.7407808303833,-45.36000442504883,-92.31690979003906, -15.788909912109375
158,2851327414,0.8557308,-0.01263615,-0.44745186,0.25952384,9.45258903503418,-5.213521957397461,12.971390724182129,-48.97810363769531,-78.3635025024414, -3.723071336746216
159,2851344081,0.85141975,-0.012175591,-0.4565537,0.25786713,8.731912612915039,-3.9608280658721924,12.632455825805664,-19.051610946655273,-66.455078125, -3.946394443511963
160,2851360748,0.84762967,-0.013020554,-0.46526995,0.25471318,8.06608772277832,-2.3625450134277344,12.087148666381836,-30.692405700683594,-60.23531723022461, -9.526248931884766
161,2851377415,0.8445859,-0.017267385,-0.4731784,0.24995852,7.930317401885986,-2.454026222229004,11.759753227233887,-54.198551177978516,-47.155452728271484, -9.204977035522461
162,2851394082,0.8414303,-0.021860728,-0.4794973,0.24819359,8.140830039978027,-3.555084466934204,9.304805755615234,-60.6324577331543,-32.43441390991211, -1.8617157936096191
163,2851410749,0.8388039,-0.025740834,-0.4847053,0.24659005,9.087015151977539,-3.6291043758392334,7.982130527496338,-53.73391342163086,-25.524673461914062, -3.5442776679992676
164,2851427416,0.8379517,-0.030001607,-0.48839524,0.24167638,9.254663467407227,-4.936285495758057,8.07412052154541,-32.92947769165039,-20.588132858276367, -3.5797390937805176
165,2851444083,0.8378617,-0.029915376,-0.4897744,0.23919532,8.764242172241211,-4.655542850494385,9.586956977844238,4.659753799438477,-12.598947525024414, -4.872141361236572
166,2851460750,0.8381126,-0.0273219,-0.48993263,0.23830113,8.897225379943848,-2.8384804725646973,9.651230812072754,23.094133377075195,-7.664463520050049, -6.747129917144775
167,2851477417,0.8383233,-0.024926096,-0.48970386,0.23829247,9.14315414428711,-3.5605733394622803,9.010384559631348,14.002788543701172,-1.46025812625885, -8.200233459472656
168,2851494084,0.83913493,-0.021794688,-0.4882869,0.2386509,9.069475173950195,-3.596975088119507,8.959429740905762,21.515806198120117,6.090859889984131, -9.345081329345703
169,2851510751,0.8400241,-0.019044565,-0.48637548,0.23965898,9.636551856994629,-3.8417539596557617,7.65560245513916,22.308908462524414,9.680999755859375, -4.3757853507995605
170,2851527418,0.84139353,-0.016869966,-0.4833503,0.24113394,11.403767585754395,-4.772197246551514,5.7093963623046875,22.449127197265625,18.594341278076172, -0.4059368371963501
171,2851544085,0.8438405,-0.01156562,-0.47737068,0.24478057,11.159944534301758,-4.895931243896484,5.747058391571045,52.82753372192383,33.88866424560547, 0.30063962936401367
172,2851560752,0.8467236,-0.0043806005,-0.46961465,0.2500055,10.952649116516113,-3.708195447921753,6.027442455291748,71.98644256591797,42.393333435058594, 2.6823625564575195
173,2851577419,0.849936,0.0020507015,-0.4607831,0.2555081,10.465850830078125,-3.1177096366882324,6.532866477966309,70.36775207519531,51.05825424194336, 6.202569484710693
174,2851594086,0.8533505,0.006114249,-0.45116898,0.26115674,10.454632759094238,-2.7497541904449463,7.190882682800293,58.37919998168945,60.468204498291016, 14.207133293151855
175,2851610753,0.8569691,0.0083443355,-0.44068,0.26708874,9.895562171936035,-2.902616024017334,6.397202014923096,50.06251907348633,69.56613159179688, 21.16864013671875
176,2851627420,0.86130595,0.010857121,-0.4276222,0.27417973,9.837082862854004,-2.9714789390563965,5.647685527801514,59.926475524902344,86.47090911865234, 25.68106460571289
177,2851644087,0.8665658,0.014624034,-0.41120365,0.28242186,9.418680191040039,-2.016808032989502,6.323744773864746,77.02706146240234,106.8802261352539, 26.827022552490234
178,2851660754,0.87245625,0.018370884,-0.39230224,0.29083064,9.664718627929688,-1.4753471612930298,7.1354217529296875,82.13958740234375,123.56874084472656, 26.42556381225586
179,2851677421,0.8789479,0.021087125,-0.3715032,0.29831532,10.032184600830078,-1.0435709953308105,6.915627479553223,77.16999053955078,138.57574462890625, 22.24724006652832
180,2851694088,0.8858021,0.022923002,-0.34895584,0.30505684,9.617116928100586,-0.58832848072052,6.838956832885742,73.47126007080078,151.8547821044922, 19.043380737304688
181,2851710755,0.89264846,0.021772917,-0.32576284,0.31077975,9.439040184020996,-0.9377107620239258,6.371382236480713,54.1742057800293,161.9656982421875, 19.950883865356445
182,2851727422,0.89936966,0.019424213,-0.30162838,0.31587613,8.48799991607666,-0.36876246333122253,5.891314506530762,47.43938446044922,170.04144287109375, 18.934494018554688
183,2851744089,0.905615,0.014919631,-0.27737752,0.32047024,7.3506317138671875,-0.28271180391311646,5.868466377258301,33.370243072509766,174.48484802246094, 21.33474349975586
184,2851760756,0.9113075,0.00771752,-0.2530003,0.32473132,6.11733341217041,-0.19650480151176453,6.206210613250732,16.261667251586914,180.1934051513672, 25.618040084838867
185,2851777423,0.9163805,-0.0015413209,-0.22874708,0.32851154,5.069899082183838,-0.16012631356716156,6.447279453277588,2.28283429145813,182.93553161621094, 27.57619857788086
186,2851794090,0.9209371,-0.0113142785,-0.2039669,0.33188123,4.458510875701904,-0.42235511541366577,6.585519790649414,-0.4280546307563782,186.6160125732422, 26.969818115234375
187,2851810757,0.9249279,-0.020102134,-0.17803052,0.3352761,4.064800262451172,-0.5218608975410461,6.171886444091797,8.438372611999512,190.89234924316406, 27.124122619628906
188,2851827424,0.92836237,-0.029063646,-0.15109453,0.33833417,4.010178565979004,-0.15904633700847626,6.457242012023926,9.15183162689209,197.01913452148438, 26.60957908630371
189,2851844091,0.93107766,-0.038720585,-0.124192454,0.34084007,4.223748683929443,-0.14651082456111908,5.777726173400879,3.9097378253936768,197.79112243652344, 25.467565536499023
190,2851860758,0.9331815,-0.047307454,-0.09684135,0.34286556,3.970215082168579,0.04593072831630707,6.012665271759033,11.238564491271973,197.787353515625, 23.028512954711914
191,2851877425,0.93481344,-0.05529928,-0.06989515,0.343775,3.365889072418213,0.6785452365875244,7.241811752319336,13.199512481689453,193.855712890625, 16.447933197021484
192,2851894092,0.93602884,-0.062236756,-0.04385615,0.34358966,3.0834059715270996,-0.1794881671667099,7.2750139236450195,17.12628936767578,185.7548370361328, 9.5385160446167
193,2851910759,0.93697083,-0.066712715,-0.01875488,0.3424674,2.6623752117156982,-0.627041220664978,6.577329635620117,30.352739334106445,174.2313995361328, 3.0051686763763428
194,2851927426,0.9375832,-0.06911987,0.004741793,0.340791,1.9815441370010376,-1.002312183380127,5.913529396057129,39.6895637512207,159.2412567138672, -0.7994738817214966
195,2851944093,0.93791926,-0.06975016,0.025943836,0.33877727,1.9464386701583862,-0.7304752469062805,3.8847568035125732,45.664791107177734,140.45323181152344, -3.367112159729004
196,2851960760,0.9378954,-0.070597745,0.044737335,0.33670092,0.8167484402656555,-0.23178522288799286,3.6644251346588135,38.50746536254883,125.52255249023438, -4.130977630615234
197,2851977427,0.93750054,-0.072644494,0.06011454,0.33496678,-0.3320492208003998,0.6368867754936218,3.611867666244507,22.58567237854004,106.19662475585938, -3.0970113277435303
198,2851994094,0.9370519,-0.0741027,0.072330944,0.33348387,-1.2661874294281006,0.14307616651058197,3.473628282546997,18.959497451782227,84.32691192626953, -2.6994314193725586
199,2852010761,0.93680096,-0.074015684,0.08190947,0.33198962,-1.8557379245758057,0.24689988791942596,3.9263534545898438,22.97258758544922,63.64828109741211, -3.806556224822998
200,2852027428,0.93689024,-0.071627885,0.08906815,0.3304145,-2.093148708343506,-0.518742561340332,3.2340590953826904,32.48432159423828,42.60985565185547, -5.047328472137451
201,2852044095,0.93733996,-0.06713901,0.09318549,0.32894266,-2.0258419513702393,-0.5731267929077148,1.8559131622314453,39.235591888427734,17.924571990966797, -5.414535045623779
202,2852060762,0.93802744,-0.06124215,0.09381455,0.32795334,-2.3065073490142822,-0.8317040205001831,1.4124492406845093,40.23467254638672,-8.16334056854248, -3.551542043685913
203,2852077429,0.9389281,-0.05363171,0.0917246,0.32729965,-2.6502344608306885,-1.2189406156539917,2.8951523303985596,45.04606246948242,-29.892044067382812, -1.9061551094055176
204,2852094096,0.9399256,-0.044462148,0.08791543,0.3268555,-2.47643780708313,-1.5626035928726196,4.60410737991333,51.16765594482422,-44.683311462402344, -0.41979894042015076
205,2852110763,0.9407875,-0.036211856,0.082595795,0.32678175,-2.5123815536499023,-1.2176589965820312,7.2313551902771,41.59196090698242,-52.441532135009766, 1.2680085897445679
206,2852127430,0.94139284,-0.0294331,0.076895624,0.3271103,-2.1903464794158936,-1.3718634843826294,9.54191780090332,30.944347381591797,-51.572574615478516, 3.51621413230896
207,2852144097,0.9416533,-0.024743252,0.07190523,0.32788277,-2.667415142059326,-0.5312119126319885,10.864710807800293,18.735748291015625,-42.195411682128906, 6.209352970123291
208,2852160764,0.941628,-0.019638808,0.06705029,0.32932666,-2.3251402378082275,-1.922255516052246,5.57585334777832,21.349958419799805,-42.24162673950195, 11.428757667541504
209,2852177431,0.9413004,-0.011891929,0.05259427,0.33323663,-1.7569689750671387,-3.4536185264587402,-20.356990814208984,15.571126937866211,-110.60652923583984, 28.000226974487305
210,2852194098,0.9407608,0.0101571195,0.020845965,0.33827832,23.98228645324707,-5.1115312576293945,-28.11056900024414,68.15042877197266,-255.44126892089844, 39.581050872802734
211,2852210765,0.93940073,0.031168738,-0.01204769,0.34118998,3.02912974357605,6.076926231384277,13.900737762451172,59.224815368652344,-260.00567626953125, 27.61020278930664
212,2852227432,0.9362278,0.05024803,-0.042930316,0.34512386,9.821179389953613,2.943223714828491,-0.8529666662216187,51.81764221191406,-242.37831115722656, 38.18588638305664
213,2852244099,0.93253493,0.06374233,-0.07175938,0.3480904,0.08589519560337067,0.32124683260917664,3.4896252155303955,20.574750900268555,-216.2152862548828, 34.1187744140625
214,2852260766,0.92954886,0.070435144,-0.09634831,0.34884867,2.5012598037719727,2.3953304290771484,2.801050901412964,-14.293769836425781,-173.4107666015625, 19.770042419433594
215,2852277433,0.9261207,0.071025334,-0.11966137,0.35062447,5.840547561645508,-3.57541823387146,9.35087776184082,-49.38998794555664,-150.42347717285156, 30.76629066467285
216,2852294100,0.92221236,0.07330165,-0.14117822,0.35244936,10.143616676330566,0.016088269650936127,11.055262565612793,-33.97228240966797,-143.3927459716797, 29.956317901611328
217,2852310767,0.91836697,0.074776486,-0.16268899,0.35290712,9.912306785583496,1.269176959991455,10.423699378967285,-40.389896392822266,-141.9566650390625, 21.911441802978516
218,2852327434,0.9143577,0.07735498,-0.18282107,0.35290673,9.350540161132812,3.271533727645874,7.797979354858398,-30.52177619934082,-136.28395080566406, 17.478551864624023
219,2852344101,0.910794,0.077345155,-0.201638,0.35187322,7.8642683029174805,3.1969165802001953,6.839927673339844,-45.18906784057617,-121.6702880859375, 12.482707023620605
220,2852360768,0.9072728,0.074671336,-0.22138838,0.3496685,8.92286491394043,0.9514387249946594,8.014219284057617,-65.82154846191406,-121.61383819580078, 9.272252082824707
221,2852377435,0.90427226,0.07011633,-0.24001202,0.3460785,9.869477272033691,0.4136822819709778,10.757176399230957,-77.23160552978516,-109.95616912841797, 1.6839821338653564
222,2852394102,0.90187395,0.06434424,-0.25624612,0.34179237,10.383984565734863,-0.5908803939819336,10.206372261047363,-80.55501556396484,-91.53726959228516, -3.1987712383270264
223,2852410769,0.90007305,0.05798654,-0.27082267,0.33639532,10.793006896972656,-0.15112167596817017,11.183844566345215,-82.50855255126953,-79.30663299560547, -11.183526039123535
224,2852427436,0.8988051,0.05126142,-0.2838714,0.3300597,11.000699996948242,-0.8596866130828857,12.946130752563477,-83.2116928100586,-68.38118743896484, -18.122350692749023
225,2852444103,0.8974267,0.045006,-0.29565585,0.3243269,9.603231430053711,-2.1135075092315674,13.424896240234375,-76.22586059570312,-61.65529251098633, -15.49112319946289
226,2852460770,0.8959402,0.037445948,-0.30714408,0.31867236,8.836429595947266,-1.9106413125991821,14.866720199584961,-83.42106628417969,-57.16192626953125, -12.21556568145752
227,2852477437,0.894455,0.030171257,-0.31742764,0.31349704,6.885541915893555,-2.497156858444214,15.025672912597656,-78.00778198242188,-50.32098388671875, -10.168232917785645
228,2852494104,0.8932987,0.02248575,-0.32676807,0.30779058,6.084499835968018,-2.3811702728271484,13.853630065917969,-79.7319107055664,-43.13802719116211, -13.455427169799805
229,2852510771,0.8921315,0.015097847,-0.33609152,0.30152363,9.633235931396484,-3.8869709968566895,9.268399238586426,-79.1258544921875,-43.88090896606445, -17.551088333129883
230,2852527438,0.8890108,0.008457449,-0.35047996,0.29453868,11.574315071105957,-5.158759593963623,5.116183280944824,-86.47525024414062,-81.0746841430664, -19.127626419067383
231,2852544105,0.88419384,0.0056317416,-0.36713484,0.2887603,14.072153091430664,-4.598849773406982,7.793353080749512,-64.67716979980469,-106.58167266845703, -17.387290954589844
232,2852560772,0.87915325,0.0033715335,-0.38270053,0.28393513,9.204094886779785,-2.148775815963745,15.290444374084473,-56.62870788574219,-101.52820587158203, -12.621612548828125
233,2852577439,0.8740415,-0.0021089658,-0.3988636,0.27740875,8.612110137939453,-3.975576639175415,15.813658714294434,-81.77303314208984,-99.19400787353516, -14.267986297607422
234,2852594106,0.8690941,-0.005047359,-0.4131458,0.27195904,8.853776931762695,-4.784730911254883,14.07397747039795,-59.976470947265625,-92.4328842163086, -15.078814506530762
235,2852610773,0.8641207,-0.007443363,-0.4264012,0.26725075,9.126920700073242,-3.7035391330718994,12.93954849243164,-52.71137237548828,-87.5143814086914, -12.130560874938965
236,2852627440,0.85913813,-0.010946636,-0.43889517,0.26293325,9.072247505187988,-5.503873348236084,12.944040298461914,-56.76044845581055,-81.08806610107422, -6.517492294311523
237,2852644107,0.8550907,-0.010602167,-0.44806823,0.26065874,8.289421081542969,-4.446313381195068,13.18559455871582,-21.789146423339844,-65.84671783447266, -7.53834342956543
238,2852660774,0.8519076,-0.01067242,-0.4560832,0.2571541,7.435330867767334,-1.9668400287628174,12.088390350341797,-25.892728805541992,-55.64842224121094, -14.981629371643066
239,2852677441,0.8493818,-0.01149067,-0.46240562,0.25416636,7.787274360656738,-3.9797961711883545,10.428976058959961,-25.655574798583984,-42.48585891723633, -10.642786979675293
240,2852694108,0.84627825,-0.010525904,-0.4681585,0.2540289,8.124555587768555,-2.9956376552581787,8.253162384033203,-18.531173706054688,-40.08964920043945, -8.187067031860352
241,2852710775,0.8429568,-0.011837665,-0.47407717,0.25403768,8.854388236999512,-3.946979522705078,8.589582443237305,-36.8543586730957,-36.09198760986328, -3.042893886566162
242,2852727442,0.8405393,-0.010429971,-0.4776861,0.2553461,8.610234260559082,-5.000861167907715,7.971179008483887,-3.787424087524414,-27.54058074951172, 0.6268149018287659
243,2852744109,0.83991146,-0.006453996,-0.47894385,0.2551877,8.522078514099121,-2.2108211517333984,10.664862632751465,25.76875877380371,-17.4580135345459, -8.927928924560547
244,2852760776,0.83963096,-0.0065054107,-0.48108247,0.25206694,8.175834655761719,-2.994818687438965,8.849517822265625,-1.4941694736480713,-16.54322052001953, -8.574090957641602
245,2852777443,0.84021956,-0.0064905747,-0.4816327,0.24903765,8.234319686889648,-3.447878360748291,9.178634643554688,1.0280365943908691,-4.312924385070801, -10.393074989318848
246,2852794110,0.84093857,-0.0074408157,-0.48181733,0.24621084,8.727951049804688,-2.726308584213257,8.7257661819458,-6.024391174316406,0.7209529280662537, -8.09227180480957
247,2852810777,0.84115785,-0.006281823,-0.48152286,0.24606994,9.542872428894043,-3.915114641189575,7.576266288757324,6.562441825866699,0.9675263166427612, -4.782826900482178
248,2852827444,0.8415695,-0.004712967,-0.48031324,0.24705963,10.505414962768555,-3.314958333969116,6.780492305755615,14.254100799560547,6.156394958496094, 0.11080702394247055
249,2852844111,0.8422085,-0.0047751744,-0.4787334,0.24794595,11.010934829711914,-2.7578330039978027,7.181031703948975,5.107463359832764,11.859308242797852, 4.523339748382568
250,2852860778,0.8435007,-0.005681104,-0.47600722,0.2487815,11.4532470703125,-3.2614057064056396,6.938178062438965,2.029355525970459,22.117176055908203, 5.947426795959473
251,2852877445,0.8455731,-0.0053961016,-0.4715106,0.2503113,10.802166938781738,-3.3493237495422363,5.632861137390137,14.27491283416748,32.91520309448242, 4.820799350738525
252,2852894112,0.84830004,-0.0018315683,-0.46472734,0.25379768,10.927684783935547,-4.113744735717773,4.47921085357666,43.660804748535156,42.67121124267578, 4.530747890472412
253,2852910779,0.85138506,0.005019338,-0.4559361,0.25930914,10.023880004882812,-2.8856356143951416,4.51993989944458,72.83842468261719,49.852447509765625, 5.234540939331055
254,2852927446,0.8544289,0.011452433,-0.44638053,0.26564133,9.840087890625,-2.9643189907073975,5.185103416442871,74.34925079345703,55.040157318115234, 11.407419204711914
255,2852944113,0.85756725,0.017854393,-0.43535694,0.27335826,9.636605262756348,-2.9843664169311523,5.4283833503723145,81.10839080810547,64.1764907836914, 19.355754852294922
256,2852960780,0.8612605,0.02393609,-0.42239526,0.28149724,9.204611778259277,-1.6961077451705933,6.191037654876709,84.07489013671875,77.97173309326172, 21.521812438964844
257,2852977447,0.8657406,0.027757905,-0.40779024,0.28884357,8.838369369506836,-1.592427134513855,6.945231914520264,71.43795776367188,94.26654815673828, 21.615842819213867
258,2852994114,0.8710209,0.030220486,-0.39108545,0.29574063,8.894620895385742,-1.387689471244812,6.781640529632568,66.09896850585938,111.64453887939453, 20.777910232543945
259,2853010781,0.8770022,0.030685436,-0.37271163,0.30168268,8.864555358886719,-1.072943091392517,6.373961925506592,54.80760192871094,127.42424011230469, 18.673095703125
260,2853027448,0.8833999,0.029784152,-0.35258168,0.30725306,8.273969650268555,-0.8914735913276672,5.552759170532227,49.16639709472656,141.8894805908203, 18.719558715820312
261,2853044115,0.88985276,0.02708063,-0.3313809,0.31243598,8.148530960083008,-1.1509343385696411,5.72728157043457,39.52471923828125,152.32334899902344, 20.414167404174805
262,2853060782,0.89609665,0.023032052,-0.3091644,0.31764588,7.239082336425781,-1.1610382795333862,5.933413505554199,33.57729721069336,161.0279083251953, 23.9136962890625
263,2853077449,0.9021549,0.016083844,-0.28642878,0.32220685,6.193061351776123,-0.43469998240470886,7.017185688018799,15.496231079101562,170.12042236328125, 26.410261154174805
264,2853094116,0.90779835,0.0066794986,-0.26337278,0.32633302,5.428696632385254,-1.0745915174484253,7.579061508178711,0.14022617042064667,176.71066284179688, 29.447284698486328
265,2853110783,0.91287667,-0.0034577504,-0.23985119,0.33032817,4.760173320770264,-0.7539178729057312,6.961650371551514,-3.60784649848938,180.24404907226562, 31.208486557006836
266,2853127450,0.91735756,-0.014535159,-0.21591146,0.33410606,4.417255401611328,-0.6969541907310486,6.464735507965088,-8.9440336227417,184.04270935058594, 32.76698303222656
267,2853144117,0.92127883,-0.025126223,-0.1910508,0.33780852,4.5877814292907715,-0.7318539023399353,6.610960483551025,-3.9379332065582275,187.9384765625, 32.95597457885742
268,2853160784,0.9247866,-0.035058774,-0.16513206,0.34098804,4.85469388961792,-0.16401083767414093,7.139698028564453,1.9224717617034912,192.7023468017578, 29.929410934448242
269,2853177451,0.9277535,-0.044777725,-0.13903205,0.3434227,4.651065826416016,-0.40987738966941833,7.433100700378418,2.7021358013153076,192.97691345214844, 26.27419662475586
270,2853194118,0.93012726,-0.0536792,-0.11337148,0.34515145,4.121527671813965,-0.837559163570404,7.0162177085876465,5.99918270111084,187.95457458496094, 22.262805938720703
271,2853210785,0.93195635,-0.060158364,-0.088426486,0.34643885,3.2331647872924805,-0.6062747836112976,6.293219089508057,19.24016571044922,177.42796325683594, 18.586158752441406
272,2853227452,0.93343973,-0.06424898,-0.06469723,0.34695458,2.3290653228759766,-0.544853150844574,5.5871405601501465,31.02690315246582,164.10546875, 12.5083589553833
273,2853244119,0.93468636,-0.06640469,-0.042348962,0.3466396,1.955532193183899,-0.8518858551979065,6.131442070007324,39.66779327392578,150.92129516601562, 6.263861179351807
274,2853260786,0.93565,-0.06702802,-0.021623459,0.34583175,1.6995782852172852,-1.094590425491333,5.6982011795043945,45.37423324584961,137.01197814941406, 2.5764999389648438
275,2853277453,0.9362916,-0.06709393,-0.0028535442,0.34474546,1.0580778121948242,-1.0573761463165283,6.385918617248535,44.12983322143555,123.21690368652344, 0.557141900062561
276,2853294120,0.936561,-0.06786007,0.013469845,0.34361014,0.36242541670799255,-0.38758668303489685,5.882070064544678,33.65787124633789,109.158935546875, 0.0011718348832800984
277,2853310787,0.9364914,-0.07051187,0.027125906,0.342457,0.09143050014972687,-0.38429689407348633,5.629155158996582,15.04870319366455,96.47706604003906, -0.7391432523727417
278,2853327454,0.93620956,-0.07414006,0.038476568,0.3413725,-0.6530155539512634,-0.21459941565990448,5.946629047393799,3.2121877670288086,83.93488311767578, -1.1020523309707642
279,2853344121,0.9357601,-0.07818696,0.047117867,0.34061772,-0.8225469589233398,-1.145594596862793,4.066371917724609,-6.026419639587402,67.33238983154297, -0.08388293534517288
280,2853360788,0.9353354,-0.081161685,0.053654436,0.34012094,-1.4730377197265625,-1.1642425060272217,3.411365270614624,-4.10460090637207,51.10468292236328, 0.734636664390564
281,2853377455,0.93478215,-0.083988994,0.05725718,0.3403684,-1.8130158185958862,-1.7142853736877441,2.683199167251587,-10.33843994140625,31.474498748779297, 4.238053798675537
282,2853394122,0.9343649,-0.08428052,0.0586688,0.34120035,-1.9262278079986572,-1.891185998916626,1.680377721786499,0.7240906953811646,11.004612922668457, 7.409829616546631
283,2853410789,0.93422836,-0.08141238,0.058115948,0.34236333,-2.3251287937164307,-1.7343697547912598,1.7997941970825195,16.495264053344727,-9.40195083618164, 9.012836456298828
284,2853427456,0.9344381,-0.07437819,0.056194823,0.3437098,-2.287374258041382,-1.902156114578247,2.8333568572998047,40.20091247558594,-28.31995391845703, 10.271403312683105
285,2853444123,0.9348806,-0.06450389,0.05280516,0.34503558,-2.333636999130249,-1.6863183975219727,4.456404685974121,55.15262222290039,-44.61882781982422, 9.931431770324707
286,2853460790,0.9352791,-0.052990045,0.048866708,0.3464939,-2.007236957550049,-1.3054052591323853,7.22340726852417,64.3600845336914,-52.1446418762207, 11.229774475097656
287,2853477457,0.93553466,-0.043354694,0.04473914,0.34769896,-2.3539955615997314,0.47148776054382324,10.062744140625,51.88322830200195,-48.78718948364258, 9.237751960754395
288,2853494124,0.9355494,-0.035219323,0.041367814,0.34899345,-2.7293460369110107,0.27750441431999207,11.356547355651855,43.90322494506836,-40.33774185180664, 10.1432523727417
289,2853510791,0.93528634,-0.024658555,0.037996747,0.3509821,-2.367459535598755,-2.0260772705078125,6.291253566741943,59.21015167236328,-46.30670166015625, 15.954130172729492
290,2853527458,0.93505955,-0.007363382,0.023159126,0.3536576,0.9903002381324768,-3.1251025199890137,-29.64299201965332,74.73609161376953,-136.49691772460938, 20.098896026611328
291,2853544125,0.9339859,0.01854917,-0.013072246,0.35658953,27.05272674560547,0.6024253964424133,-20.114990234375,78.16517639160156,-294.9892578125, 24.09197425842285
292,2853560792,0.93098134,0.040567193,-0.04527644,0.35997075,1.0263805389404297,1.9061909914016724,13.826838493347168,63.316043853759766,-258.6005554199219, 31.49679183959961
293,2853577459,0.92675835,0.06488097,-0.073310874,0.3626784,5.687839508056641,1.8601633310317993,1.5104304552078247,88.41136932373047,-238.1776123046875, 28.286283493041992
294,2853594126,0.9226082,0.08332904,-0.098105244,0.36362946,0.7982547283172607,-1.5421491861343384,1.244811773300171,58.12774658203125,-203.43899536132812, 18.384063720703125
295,2853610793,0.9188363,0.09400011,-0.11912734,0.36429825,2.3608784675598145,-1.4463391304016113,4.549043655395508,17.866792678833008,-159.9583740234375, 18.69972038269043
296,2853627460,0.914509,0.10207751,-0.1377885,0.36642697,7.2006144523620605,-1.7891162633895874,8.466001510620117,9.010881423950195,-138.03155517578125, 29.876590728759766
297,2853644127,0.910214,0.107412495,-0.15792392,0.36746934,9.982589721679688,1.3912850618362427,9.256417274475098,-12.907693862915039,-140.96844482421875, 26.540857315063477
298,2853660794,0.9053217,0.11559405,-0.17702164,0.36836758,10.764565467834473,4.741570949554443,7.908499240875244,7.795944690704346,-142.1913299560547, 23.267009735107422
299,2853677461,0.90048236,0.119829945,-0.19704153,0.36871085,9.882637023925781,6.019804000854492,6.242581367492676,-19.95311737060547,-138.06008911132812, 25.25242042541504
300,2853694128,0.89531237,0.11837631,-0.21985367,0.36887383,9.695721626281738,3.7230165004730225,7.465560436248779,-62.40807342529297,-141.30807495117188, 35.08366775512695
301,2853710795,0.8912492,0.11545946,-0.24046616,0.36677095,10.582015037536621,3.2617127895355225,8.855246543884277,-70.25334930419922,-124.08096313476562, 18.839008331298828
302,2853727462,0.8890312,0.108735554,-0.25835678,0.3620119,10.98818588256836,2.653611898422241,10.458147048950195,-92.65455627441406,-96.75550842285156, 2.148740530014038
303,2853744129,0.8881772,0.09742979,-0.27479365,0.35515898,11.714698791503906,0.7011851072311401,10.055869102478027,-121.85240936279297,-75.57205200195312, -6.876407623291016
304,2853760796,0.8874843,0.086444974,-0.28967425,0.3478339,11.45102310180664,-1.5876221656799316,11.086835861206055,-117.09845733642578,-66.8277359008789, -11.704233169555664
305,2853777463,0.88658905,0.07632015,-0.30368608,0.34045687,10.517561912536621,-2.061570167541504,12.185694694519043,-109.71163940429688,-64.04206085205078, -13.725749969482422
306,2853794130,0.8853702,0.06635341,-0.31730866,0.33321586,9.431628227233887,-2.5110621452331543,13.29434585571289,-107.33776092529297,-62.74980163574219, -12.64026927947998
307,2853810797,0.88394517,0.05594241,-0.33017617,0.3263368,9.04852294921875,-1.9668339490890503,14.245743751525879,-107.39189910888672,-57.60107421875, -9.326882362365723
308,2853827464,0.8826089,0.042661577,-0.34280953,0.31884786,8.402852058410645,-1.5084930658340454,14.281630516052246,-125.72447967529297,-49.996177673339844, -6.782039642333984
309,2853844131,0.88174033,0.025022538,-0.3538552,0.31095874,8.883857727050781,-3.8168911933898926,15.076604843139648,-149.79690551757812,-30.067237854003906, -0.39364832639694214
310,2853860798,0.8799625,0.013818909,-0.36479685,0.30397218,8.392672538757324,-4.618434429168701,8.934738159179688,-108.17926025390625,-45.49003219604492, -8.669745445251465
311,2853877465,0.8760189,0.011145464,-0.3790456,0.29797968,13.225715637207031,-6.137542724609375,5.013878345489502,-60.718299865722656,-88.75224304199219, -19.2601375579834
312,2853894132,0.8710352,0.020726208,-0.39077055,0.29693002,11.513898849487305,-4.537923336029053,10.160244941711426,31.34482192993164,-100.850830078125, -19.55023765563965
313,2853910799,0.86562717,0.026167959,-0.40257508,0.2965447,9.79565715789795,-2.0042903423309326,16.4664363861084,8.269185066223145,-93.97945404052734, -3.6315462589263916
314,2853927466,0.8603074,0.027695961,-0.4142076,0.29586613,8.747793197631836,-4.2602858543396,17.667938232421875,-15.568221092224121,-85.05419158935547, 5.241476535797119
315,2853944133,0.85591954,0.02833175,-0.42322704,0.29576775,7.9696574211120605,-3.4730849266052246,17.03355598449707,-14.084187507629395,-65.33279418945312, 8.76082992553711
316,2853960800,0.85217774,0.024239203,-0.4327761,0.2931062,7.538001537322998,-1.966506004333496,14.976096153259277,-50.61262130737305,-57.756935119628906, 6.187293529510498
317,2853977467,0.848933,0.018956814,-0.4410366,0.2905874,8.229487419128418,-4.375061988830566,12.63998794555664,-54.70823669433594,-46.55009841918945, 9.340760231018066
318,2853994134,0.8465368,0.015636103,-0.44701326,0.28863636,7.563709259033203,-1.979949951171875,12.069208145141602,-37.082942962646484,-34.6477165222168, 4.660369396209717
319,2854010801,0.8449854,0.009667819,-0.4528423,0.2843255,7.21728515625,-1.0505225658416748,11.133990287780762,-59.590328216552734,-26.340852737426758, -2.632397413253784
320,2854027468,0.8439297,0.0021881675,-0.45842856,0.27860695,7.712025165557861,-1.7302590608596802,8.697549819946289,-72.36768341064453,-20.651552200317383, -7.076855182647705
321,2854044135,0.84311765,-0.004232826,-0.46338782,0.272777,8.22959041595459,-2.8820254802703857,7.340295314788818,-65.39698791503906,-18.3262939453125, -11.529800415039062
322,2854060802,0.8423005,-0.007562337,-0.4674105,0.26833,8.734726905822754,-3.8712515830993652,7.116892337799072,-41.31220245361328,-18.755264282226562, -13.343708038330078
323,2854077469,0.8415966,-0.006415,-0.46993002,0.2661592,8.904397964477539,-4.0365376472473145,7.535879135131836,-5.265122890472412,-18.059114456176758, -14.702038764953613
324,2854094136,0.84144217,-0.0028634567,-0.47095057,0.26490209,8.92679500579834,-3.5309865474700928,9.830635070800781,14.381749153137207,-12.053492546081543, -18.14826774597168
325,2854110803,0.84170663,0.0004020512,-0.47149873,0.26309592,8.574837684631348,-1.7179441452026367,11.428372383117676,11.811315536499023,-7.495226860046387, -21.164575576782227
326,2854127470,0.84212184,0.0001946991,-0.47278738,0.25942957,9.169419288635254,-2.5468883514404297,11.155936241149902,-15.699292182922363,-5.121489524841309, -20.92154312133789
327,2854144137,0.8427765,-0.0005026163,-0.47378734,0.25544828,9.419553756713867,-2.7550759315490723,8.764755249023438,-19.071863174438477,-1.8812968730926514, -21.58077621459961
328,2854160804,0.843435,-0.002431594,-0.47464594,0.25164184,11.493786811828613,-4.679854869842529,5.301800727844238,-25.38536834716797,1.0925453901290894, -16.558870315551758
329,2854177471,0.84501415,-0.0009164858,-0.47213328,0.2510802,12.2994384765625,-5.814340114593506,4.646663188934326,11.066210746765137,17.737871170043945, -10.549775123596191
330,2854194138,0.84732354,0.00295116,-0.46726584,0.25238395,11.668285369873047,-4.251685619354248,5.715095043182373,34.93326950073242,29.840925216674805, -8.630828857421875
331,2854210805,0.8497064,0.0065912176,-0.4617006,0.25453654,10.868535041809082,-3.597801685333252,5.871624946594238,37.577484130859375,34.64023208618164, -3.1069769859313965
332,2854227472,0.8521544,0.008645158,-0.4558098,0.25689787,9.815786361694336,-3.1405043601989746,5.941876411437988,29.564449310302734,39.60041046142578, 3.016324996948242
333,2854244139,0.8546341,0.009449977,-0.4491592,0.26032287,9.35122013092041,-3.2695724964141846,6.129654407501221,26.9410400390625,46.46720504760742, 13.0648775100708
334,2854260806,0.85732687,0.010261571,-0.44104624,0.26526323,9.044709205627441,-3.626359462738037,5.659446716308594,34.278926849365234,55.84090805053711, 21.464271545410156
335,2854277473,0.8605893,0.011972208,-0.4303297,0.27213922,9.215228080749512,-3.3038244247436523,5.748769760131836,50.18134307861328,71.45701599121094, 28.911029815673828
336,2854294140,0.8646342,0.013758186,-0.4170671,0.27977538,8.991541862487793,-2.298224687576294,6.3548808097839355,57.5989875793457,88.80640411376953, 31.510313034057617
337,2854310807,0.86925334,0.016592082,-0.40106645,0.28856555,8.945149421691895,-2.419938564300537,6.390882968902588,72.35498809814453,104.85981750488281, 34.016944885253906
338,2854327474,0.87436295,0.019599827,-0.38270313,0.29773206,8.788357734680176,-1.6285912990570068,6.700247764587402,79.07075500488281,120.07366180419922, 34.55541229248047
339,2854344141,0.8798122,0.020822298,-0.36307365,0.30606446,8.260075569152832,-1.0384107828140259,6.706228256225586,68.68303680419922,132.1623077392578, 33.39311218261719
340,2854360808,0.8851899,0.019029913,-0.34320468,0.31350887,7.4170074462890625,-0.9521207213401794,6.378473281860352,48.72706604003906,139.6895294189453, 35.688880920410156
341,2854377475,0.890422,0.015914692,-0.3224516,0.3208134,6.716014862060547,-1.178152322769165,6.059240341186523,42.257667541503906,147.59800720214844, 38.17623519897461
342,2854394142,0.8954172,0.010235524,-0.30152872,0.32742137,5.608017921447754,-0.6733803749084473,6.717530727386475,25.411542892456055,153.72872924804688, 40.11262512207031
343,2854410809,0.9000418,0.0026401717,-0.28063762,0.333409,4.973021984100342,-0.7593446373939514,6.580233573913574,12.264652252197266,157.045654296875, 41.11528778076172
344,2854427476,0.90443075,-0.0054495237,-0.2589102,0.33903056,4.535655975341797,-0.7037189602851868,6.854165554046631,10.406214714050293,162.9024658203125, 40.337684631347656
345,2854444143,0.9087652,-0.014477694,-0.2359921,0.34386745,3.978273868560791,0.0958855152130127,7.682541847229004,5.931675910949707,172.43325805664062, 37.31060028076172
346,2854460810,0.91281736,-0.024866244,-0.21279182,0.34765893,3.838118314743042,-0.19645631313323975,6.565937519073486,-3.665635347366333,177.05245971679688, 33.6915397644043
347,2854477477,0.9165244,-0.033609807,-0.18835026,0.35125268,4.180572986602783,-1.0189098119735718,6.016737461090088,9.254599571228027,180.45376586914062, 31.089502334594727
348,2854494144,0.91983914,-0.040835205,-0.16299759,0.35448682,3.941283702850342,-0.19764503836631775,7.024666786193848,20.46556282043457,182.1431884765625, 28.017667770385742
349,2854510811,0.9227379,-0.04811641,-0.13804494,0.35662875,3.289567232131958,0.06834904849529266,8.126924514770508,17.771310806274414,179.62059020996094, 22.07849884033203
350,2854527478,0.9252922,-0.054252975,-0.11327825,0.35785452,2.9746971130371094,-0.42880311608314514,8.370281219482422,23.559078216552734,175.6259765625, 15.966002464294434
351,2854544145,0.92755806,-0.058654547,-0.08883448,0.35819662,2.7835004329681396,-0.49782735109329224,7.501298427581787,32.9853515625,169.42572021484375, 9.576822280883789
352,2854560812,0.9294143,-0.061487768,-0.065477386,0.35794118,2.52166748046875,-0.4434884190559387,6.640923976898193,39.767818450927734,158.65072631835938, 5.371380805969238
353,2854577479,0.9308584,-0.063231125,-0.04455585,0.35709938,2.4647715091705322,-0.8356236815452576,4.786845684051514,40.29195785522461,140.49603271484375, 1.1164329051971436
354,2854594146,0.93195313,-0.06283266,-0.025259448,0.35619944,1.6753265857696533,-0.859566330909729,4.056778907775879,49.85148620605469,124.79456329345703, 0.23269976675510406
355,2854610813,0.93270326,-0.06252377,-0.007971906,0.35509527,0.30743640661239624,-0.1842166781425476,5.5215864181518555,44.187931060791016,112.19306945800781, -1.0907471179962158
356,2854627480,0.93310916,-0.06251846,0.007040102,0.35404783,-0.2818284034729004,-0.42939305305480957,5.977653980255127,36.53361511230469,98.28633880615234, -0.8571876883506775
357,2854644147,0.9332489,-0.06349958,0.019616457,0.35303023,-0.5273847579956055,-0.0724799856543541,5.945478439331055,24.160234451293945,85.03981018066406, -1.1225202083587646
358,2854660814,0.9332106,-0.06580756,0.029654229,0.35200664,-0.9714759588241577,0.04906248301267624,6.185497283935547,9.400182723999023,71.97518157958984, -2.021827459335327
359,2854677481,0.93308306,-0.06870814,0.037378732,0.35105383,-1.290856122970581,-0.2726975381374359,5.559136867523193,-0.06550527364015579,58.52369689941406, -2.5268898010253906
360,2854694148,0.9330188,-0.07064505,0.043055043,0.3501888,-1.512486219406128,-0.4995211660861969,3.5999505519866943,1.1805802583694458,42.96584701538086, -2.843374013900757
361,2854710815,0.933147,-0.0705244,0.046196803,0.34947076,-1.8373063802719116,-0.9393656253814697,1.5754722356796265,8.337248802185059,21.581344604492188, -2.9880216121673584
362,2854727482,0.9335449,-0.067703836,0.046382736,0.34894073,-1.963052749633789,-0.8700842261314392,1.0715652704238892,18.6541805267334,-4.102442741394043, -3.0100209712982178
363,2854744149,0.9341328,-0.061472703,0.044447705,0.3487725,-2.0786352157592773,-1.3555141687393188,2.0884971618652344,35.45353698730469,-26.18624496459961, -1.0439167022705078
364,2854760816,0.934895,-0.051913463,0.041098673,0.34869474,-2.443307638168335,-1.3033090829849243,3.6076619625091553,53.51786804199219,-43.396095275878906, -0.462790846824646
365,2854777483,0.93569356,-0.039779514,0.037369777,0.34856784,-2.4707486629486084,-1.7024973630905151,6.649738311767578,69.21239471435547,-52.06336212158203, -0.2709639370441437
366,2854794150,0.9362493,-0.02887165,0.033429738,0.34854957,-2.3181986808776855,-0.46759694814682007,9.680927276611328,60.75870132446289,-50.50041580200195, 0.6374436616897583
367,2854810817,0.936503,-0.019105522,0.029525908,0.3488927,-2.739084005355835,-0.9543216824531555,7.77358341217041,53.35435104370117,-47.57337951660156, 3.4333484172821045
368,2854827484,0.9360118,-0.007199818,0.015432693,0.35155752,0.9091817140579224,-4.114614486694336,-24.85504150390625,42.14012145996094,-118.5315933227539, 19.264148712158203
369,2854844151,0.93381524,0.022616483,-0.017287562,0.35662267,28.909074783325195,-5.910370826721191,-27.63286590576172,112.18868255615234,-281.7220153808594, 39.83049774169922
370,2854860818,0.93085515,0.04513328,-0.0504831,0.35906005,-1.1706215143203735,6.879075050354004,17.914987564086914,64.12017059326172,-266.47589111328125, 25.710805892944336
371,2854877485,0.92637205,0.06578212,-0.08076043,0.36191997,8.960528373718262,2.131899356842041,-1.3373889923095703,59.80595016479492,-243.68858337402344, 31.918481826782227
372,2854894152,0.921368,0.08578222,-0.10599707,0.36398873,-0.20563271641731262,-4.036192417144775,2.2325189113616943,67.95906066894531,-210.35240173339844, 26.230497360229492
373,2854910819,0.9174488,0.09823891,-0.12640455,0.36422467,2.2674684524536133,0.38594403862953186,4.385409832000732,30.381778717041016,-161.20367431640625, 14.50910472869873
374,2854927486,0.9128354,0.10490349,-0.1456612,0.36675677,7.087782382965088,-4.296806812286377,8.80643367767334,-0.8143630027770996,-138.4893341064453, 34.983890533447266
375,2854944153,0.90840185,0.11038362,-0.1647102,0.36809367,10.651240348815918,2.6464033126831055,9.688348770141602,-8.91936206817627,-134.78749084472656, 28.000804901123047
376,2854960820,0.9035345,0.11685666,-0.18438162,0.3687469,10.148650169372559,2.400491237640381,9.616544723510742,-4.78910493850708,-142.0362091064453, 24.175546646118164
377,2854977487,0.8982784,0.12219268,-0.20386377,0.3696017,9.134594917297363,5.945084571838379,5.964314937591553,-10.848278999328613,-138.17835998535156, 27.70984649658203
378,2854994154,0.89324206,0.119718336,-0.22721358,0.36900014,9.59335708618164,4.386167526245117,7.71760368347168,-71.27918243408203,-143.00852966308594, 32.43257141113281
379,2855010821,0.8891938,0.115370736,-0.2480494,0.36673728,10.386946678161621,2.516008138656616,8.844982147216797,-79.90428161621094,-122.53438568115234, 20.6529483795166
380,2855027488,0.8866597,0.10886393,-0.26552612,0.3626018,10.785600662231445,2.537557601928711,9.503068923950195,-89.0721664428711,-95.36231231689453, 6.47007417678833
381,2855044155,0.88558364,0.09879968,-0.2809445,0.3564423,10.775627136230469,1.4080296754837036,10.2866792678833,-110.46895599365234,-72.72406005859375, -4.470576286315918
382,2855060822,0.88469046,0.089551695,-0.29504034,0.3496502,11.24997615814209,-0.9496392011642456,9.840046882629395,-103.63147735595703,-66.7027587890625, -11.163269996643066
383,2855077489,0.8838568,0.081446484,-0.3080651,0.3424328,10.783943176269531,-1.485387921333313,13.23812484741211,-94.99040985107422,-63.01654052734375, -16.83584976196289
384,2855094156,0.88264257,0.07414573,-0.32016233,0.33606738,9.190841674804688,-2.8725857734680176,15.156607627868652,-85.88401794433594,-59.63349533081055, -12.953553199768066
385,2855110823,0.88114154,0.066077046,-0.33188674,0.3302658,9.145288467407227,-3.496018648147583,15.454442977905273,-88.26544189453125,-56.05886459350586, -7.373579502105713
386,2855127490,0.8798336,0.055301853,-0.3430014,0.3243231,9.511832237243652,-3.301248073577881,16.552785873413086,-103.63707733154297,-45.97860336303711, -2.76277494430542
387,2855144157,0.8785998,0.044018235,-0.35273138,0.31891412,6.438231945037842,-3.3971927165985107,12.825098991394043,-102.38995361328125,-36.242454528808594, 0.9531330466270447
388,2855160824,0.8758994,0.029807767,-0.3686354,0.30987182,9.12657356262207,-2.7278969287872314,7.51677942276001,-141.95188903808594,-71.9423828125, -8.815105438232422
389,2855177491,0.87139714,0.02289627,-0.38542655,0.30263832,14.340612411499023,-5.127894401550293,5.021425724029541,-94.89971160888672,-97.0046615600586, -12.383219718933105
390,2855194158,0.86657965,0.02472015,-0.3995235,0.29801035,11.116655349731445,-3.870119333267212,11.738636016845703,-29.903398513793945,-99.25524139404297, -19.696273803710938
391,2855210825,0.8613239,0.021951776,-0.4152076,0.29196358,8.988444328308105,-1.5300400257110596,17.346038818359375,-64.3349838256836,-100.80213928222656, -14.381498336791992
392,2855227492,0.85602,0.019426614,-0.42957515,0.2869123,8.016757011413574,-4.615666389465332,15.955140113830566,-57.485904693603516,-93.7475814819336, -9.25342082977295
393,2855244159,0.8511409,0.019062214,-0.44164267,0.28310475,8.275465965270996,-3.1085638999938965,14.195901870727539,-36.633243560791016,-83.31459045410156, -9.519418716430664
394,2855260826,0.84635967,0.016573675,-0.45304582,0.27955478,8.954377174377441,-4.2329182624816895,12.841551780700684,-47.03929138183594,-75.1834945678711, -1.858573079109192
395,2855277493,0.8418625,0.015578798,-0.46257415,0.27758023,8.945547103881836,-4.594249725341797,12.57670783996582,-29.87839698791504,-66.25699615478516, 1.8533375263214111
396,2855294160,0.8382018,0.016795069,-0.4698877,0.27630037,8.693530082702637,-3.2017087936401367,13.067850112915039,-10.74321174621582,-55.09941864013672, -3.047752857208252
397,2855310827,0.8356401,0.017999336,-0.47587714,0.2737214,7.519618988037109,-1.283396601676941,12.896305084228516,-12.666709899902344,-44.24949645996094, -12.759414672851562
398,2855327494,0.8340413,0.01630858,-0.48104557,0.26963896,7.459020137786865,-1.8407111167907715,11.520733833312988,-32.86835861206055,-31.351320266723633, -13.817456245422363
399,2855344161,0.8331063,0.013294746,-0.48525494,0.26511437,7.798158168792725,-2.387910842895508,8.150888442993164,-40.27273178100586,-21.444583892822266, -13.317556381225586
400,2855360828,0.83254653,0.009555171,-0.48885763,0.2603732,8.597156524658203,-3.3504812717437744,6.938259601593018,-44.10190200805664,-15.497335433959961, -12.89232349395752
401,2855377495,0.8317228,0.0072231917,-0.49238428,0.25640488,8.83315372467041,-3.8432884216308594,7.382261276245117,-38.709564208984375,-16.881410598754883, -16.14702606201172
402,2855394162,0.8317105,0.006397386,-0.4944476,0.25246614,9.111745834350586,-5.037165641784668,8.132464408874512,-14.356575012207031,-12.23427677154541, -14.539475440979004
403,2855410829,0.83184266,0.011710483,-0.49413067,0.25246105,9.415140151977539,-4.604322910308838,9.008740425109863,30.623062133789062,-6.478607654571533, -18.029525756835938
404,2855427496,0.8324009,0.017114,-0.4932295,0.25207436,9.788296699523926,-3.0206809043884277,9.650467872619629,30.83705711364746,-1.966309666633606, -21.353927612304688
405,2855444163,0.83355284,0.019232556,-0.49260214,0.24932651,10.515848159790039,-3.045197010040283,8.605010986328125,3.468472719192505,3.793511390686035, -24.72949981689453
406,2855460830,0.8350733,0.021558385,-0.49058905,0.24801439,10.828903198242188,-5.961034297943115,6.2783074378967285,11.846097946166992,12.76546859741211, -18.021289825439453
407,2855477497,0.8368966,0.027602525,-0.4862577,0.24979301,11.358359336853027,-4.949661731719971,5.327768325805664,47.598106384277344,21.249364852905273, -13.764569282531738
408,2855494164,0.8389092,0.03522817,-0.48031202,0.25355792,11.780939102172852,-5.074789524078369,6.762479305267334,66.14643859863281,28.90707778930664, -8.294866561889648
409,2855510831,0.84079623,0.042606685,-0.4735991,0.258749,12.545284271240234,-4.97570276260376,8.306694984436035,70.8587417602539,33.73234939575195, 0.7336853742599487
410,2855527498,0.8428633,0.04868308,-0.46612066,0.26446882,12.134666442871094,-4.898592948913574,8.424739837646484,66.41083526611328,41.22407150268555, 7.4418864250183105
411,2855544165,0.84573334,0.054779865,-0.4556508,0.27224484,11.561793327331543,-4.225352764129639,7.671291351318359,78.34180450439453,61.78662872314453, 16.785846710205078
412,2855560832,0.8498361,0.058644857,-0.44223386,0.2806588,10.873629570007324,-2.6386239528656006,7.909814834594727,72.4620132446289,87.22752380371094, 24.040071487426758
413,2855577499,0.85480845,0.060424305,-0.42634708,0.2896215,10.605023384094238,-2.5387585163116455,7.108397483825684,66.38172149658203,108.56084442138672, 30.930147171020508
414,2855594166,0.86028194,0.0611806,-0.40785393,0.29971302,10.288416862487793,-2.009284496307373,6.98408317565918,68.68849182128906,127.90563201904297, 38.50035095214844
415,2855610833,0.86589354,0.060797818,-0.38760233,0.3103179,10.329498291015625,-1.6981418132781982,6.487103462219238,66.97090148925781,141.32301330566406, 43.7322883605957
416,2855627500,0.8718175,0.059178896,-0.36483365,0.32144865,9.86082935333252,-0.9843303561210632,6.8743367195129395,66.27001953125,160.10418701171875, 48.47418975830078
417,2855644167,0.877907,0.054465543,-0.34095755,0.33175525,8.973644256591797,0.037948478013277054,7.506015777587891,48.031314849853516,173.76162719726562, 50.53074264526367
418,2855660834,0.88380903,0.04694557,-0.31661707,0.34122142,7.8918776512146,1.2958849668502808,6.892308235168457,30.2093563079834,182.2934112548828, 52.35527038574219
419,2855677501,0.8894181,0.038062997,-0.2919394,0.3496554,6.325030326843262,1.877278447151184,6.215386390686035,20.489089965820312,186.65480041503906, 49.708919525146484
420,2855694168,0.89479494,0.029620739,-0.26672304,0.35682514,5.005561828613281,2.1059443950653076,6.088510990142822,21.903684616088867,188.16600036621094, 41.59253692626953
421,2855710835,0.8998866,0.022446705,-0.24090965,0.3628545,4.968659400939941,1.5878667831420898,5.206584453582764,29.025800704956055,188.02197265625, 32.8885498046875
422,2855727502,0.9050204,0.017787378,-0.21322565,0.36763713,4.716517925262451,1.2829535007476807,5.426161766052246,47.09793472290039,193.28814697265625, 20.662839889526367
423,2855744169,0.9102454,0.01488669,-0.18373367,0.37077528,3.9014716148376465,1.8966439962387085,6.672000408172607,60.118186950683594,200.1165008544922, 7.426489353179932
424,2855760836,0.9151924,0.0114634875,-0.1531095,0.37262583,3.1569154262542725,0.8902806043624878,7.858095645904541,58.037742614746094,208.1014862060547, 0.642004668712616
425,2855777503,0.9196632,0.0075522508,-0.12159838,0.37333247,3.1361794471740723,0.9181047081947327,7.048956871032715,56.014892578125,214.3627166748047, -4.898482322692871
426,2855794170,0.92325354,0.0033578207,-0.09027597,0.37342015,3.183278799057007,-0.11240324378013611,5.765312194824219,53.21991729736328,213.17477416992188, -6.323225975036621
427,2855810837,0.92589766,-0.0020062334,-0.060481317,0.3728975,2.9072470664978027,0.6042940020561218,5.872568607330322,41.52057647705078,205.95223999023438, -7.027477741241455
428,2855827504,0.92764264,-0.008579544,-0.0323551,0.37196702,3.1603317260742188,-0.056109629571437836,6.321431636810303,29.344722747802734,198.1353759765625, -6.862408638000488
429,2855844171,0.9285659,-0.01695957,-0.00579655,0.37073544,2.955861806869507,0.13865521550178528,6.962061882019043,13.709267616271973,192.6857147216797, -6.395564556121826
430,2855860838,0.92853,-0.026733201,0.018702189,0.36982206,1.599107265472412,-0.7895717620849609,6.753814697265625,-0.5299765467643738,183.10348510742188, -2.1213021278381348
431,2855877505,0.9280022,-0.035961267,0.040349055,0.36863473,2.079387903213501,0.7004085183143616,3.355060338973999,-4.309373378753662,163.66688537597656, -3.083510398864746
432,2855894172,0.92721236,-0.043652784,0.059260525,0.3672339,0.661647379398346,0.08827175945043564,2.2455875873565674,-1.45099937915802,142.50587463378906, -4.0479416847229
433,2855910839,0.9264279,-0.049702156,0.07464218,0.3656369,-0.6018465757369995,-0.06768158823251724,1.7727304697036743,0.20266367495059967,115.91478729248047, -5.712056636810303
434,2855927506,0.9257947,-0.053420603,0.08653372,0.36409208,-1.5087255239486694,-0.3629627227783203,1.0484306812286377,6.320521354675293,87.6814193725586, -5.761874198913574
435,2855944173,0.9254173,-0.054130122,0.09478379,0.36289078,-1.7230961322784424,-0.4312843978404999,-1.0095289945602417,16.27619171142578,56.61137390136719, -3.7663679122924805
436,2855960840,0.92540985,-0.051777523,0.10042071,0.3617348,-3.279104709625244,-1.031165361404419,3.096257448196411,29.379093170166016,31.988788604736328, -3.379054546356201
437,2855977507,0.925644,-0.046289477,0.10345987,0.36102244,-2.290245294570923,-1.8935576677322388,1.381620168685913,42.69326400756836,7.222502708435059, 0.0858607366681099
438,2855994174,0.9261393,-0.037949197,0.10492524,0.36030146,-3.1601552963256836,-1.1610690355300903,3.303675413131714,57.101966857910156,-10.13984203338623, 0.9270946979522705
439,2856010841,0.92659634,-0.029053671,0.104145125,0.36017978,-3.434093952178955,-1.8379542827606201,3.90448260307312,54.677398681640625,-26.036693572998047, 4.663293838500977
440,2856027508,0.9270106,-0.021315757,0.10070788,0.36063194,-3.5071897506713867,-1.1580153703689575,4.32759952545166,40.36927795410156,-40.27507400512695, 7.0836896896362305
441,2856044175,0.92746437,-0.015631871,0.09501714,0.36130056,-3.0019991397857666,-0.15390050411224365,5.377108097076416,21.587987899780273,-49.692684173583984, 6.625146389007568
442,2856060842,0.9278023,-0.011187583,0.08844814,0.36226407,-3.0627546310424805,0.0526520274579525,6.58697509765625,11.306777954101562,-52.230953216552734, 7.892186164855957
443,2856077509,0.92814195,-0.0049452316,0.07964742,0.36357293,-3.810279369354248,-1.0498378276824951,-1.430452585220337,17.01348114013672,-71.02883911132812, 11.017240524291992
444,2856094176,0.9282936,0.0029539387,0.053393897,0.36798406,9.869820594787598,-4.19384241104126,-33.55412292480469,-17.72161102294922,-186.69577026367188, 31.60550880432129
445,2856110843,0.9280317,0.031546537,0.020721348,0.37058532,22.358266830444336,0.7129119038581848,6.3084869384765625,98.90323638916016,-279.74798583984375, 28.834199905395508
446,2856127510,0.9259354,0.04948122,-0.011053505,0.3742643,2.350912094116211,3.7270333766937256,12.269533157348633,33.41534423828125,-245.53749084472656, 38.602054595947266
447,2856144177,0.9219927,0.06895386,-0.044402998,0.37842315,7.054340839385986,-2.398888111114502,-4.434856414794922,39.73355484008789,-259.470947265625, 46.824283599853516
448,2856160844,0.91750056,0.09357667,-0.07132217,0.37993422,-0.915497899055481,-1.6649483442306519,0.8592404127120972,88.64283752441406,-233.2962646484375, 26.787412643432617
449,2856177511,0.91334486,0.1081221,-0.093524344,0.3812671,1.3535758256912231,-1.8366998434066772,6.791511535644531,37.122650146484375,-177.21533203125, 26.666696548461914
450,2856194178,0.9090555,0.11720222,-0.11302394,0.38354695,5.790631294250488,-2.017848491668701,9.055630683898926,10.666701316833496,-145.3370819091797, 34.44701385498047
451,2856210845,0.9049571,0.12510474,-0.13037999,0.38523173,7.640335559844971,0.9344621300697327,8.57218074798584,8.426261901855469,-129.0977325439453, 29.355979919433594
452,2856227512,0.9013929,0.12995689,-0.14838558,0.3854669,9.918660163879395,1.459634780883789,8.747604370117188,-14.040980339050293,-125.72077941894531, 22.19235610961914
453,2856244179,0.8974238,0.13376005,-0.16618983,0.38616118,9.826834678649902,5.7933831214904785,8.940425872802734,-19.196739196777344,-121.53902435302734, 26.991199493408203
454,2856260846,0.8938447,0.13055356,-0.18471585,0.38714108,9.346694946289062,6.070680618286133,6.307891368865967,-64.53515625,-106.55257415771484, 36.44635009765625
455,2856277513,0.8907202,0.12176784,-0.20634584,0.38628033,8.284927368164062,3.35959529876709,7.88197135925293,-109.97693634033203,-111.73470306396484, 33.887996673583984
456,2856294180,0.8880021,0.11280714,-0.2275113,0.3833617,9.058835983276367,2.801264524459839,9.706938743591309,-113.13796997070312,-109.5185775756836, 20.139371871948242
457,2856310847,0.8864756,0.1033675,-0.24518822,0.37862897,9.285128593444824,1.976000189781189,10.200652122497559,-110.67364501953125,-86.46723175048828, 4.050693511962891
458,2856327514,0.8855251,0.093045,-0.26119825,0.37277916,10.824841499328613,0.12431551516056061,10.234376907348633,-114.05036163330078,-73.81904602050781, -3.889977216720581
459,2856344181,0.8849061,0.08351504,-0.27564752,0.3660404,9.75358772277832,-0.16725341975688934,11.617194175720215,-107.02567291259766,-66.27864074707031, -12.51754093170166
460,2856360848,0.884473,0.07310396,-0.28892392,0.35900885,10.075523376464844,-0.9447956681251526,14.931827545166016,-110.10442352294922,-56.76420211791992, -13.728132247924805
461,2856377515,0.88389176,0.062074468,-0.3008944,0.35262674,8.508602142333984,-2.0804481506347656,14.471306800842285,-109.27118682861328,-47.347015380859375, -8.795086860656738
462,2856394182,0.88351774,0.04958996,-0.31085858,0.34685034,8.538455963134766,-3.603883981704712,15.579453468322754,-112.07307434082031,-31.055931091308594, -3.456125020980835
463,2856410849,0.8828944,0.04408639,-0.3177373,0.34292528,5.4872541427612305,-2.7735044956207275,9.560115814208984,-58.226932525634766,-28.995983123779297, -7.60513973236084
464,2856427516,0.88100255,0.03721784,-0.33174932,0.33524996,8.261672019958496,-3.8182294368743896,6.823373317718506,-91.11092376708984,-73.08863067626953, -22.24789047241211
465,2856444183,0.8773649,0.034285136,-0.34762597,0.32895628,11.368978500366211,-4.499711990356445,8.261034965515137,-67.917236328125,-97.06129455566406, -18.382165908813477
466,2856460850,0.8734318,0.03434333,-0.36263305,0.32316488,9.234540939331055,-2.016387939453125,12.574402809143066,-46.56951904296875,-99.11127471923828, -22.04878807067871
467,2856477517,0.869105,0.030129522,-0.37962562,0.3156486,9.020134925842285,-2.447842597961426,14.84765911102295,-80.87271881103516,-103.02601623535156, -20.404354095458984
468,2856494184,0.86385727,0.030385232,-0.39626864,0.30951437,9.181005477905273,-3.962862253189087,12.498605728149414,-49.63771057128906,-112.90747833251953, -21.884315490722656
469,2856510851,0.85779005,0.031999055,-0.41315266,0.3041018,9.47315788269043,-3.3704652786254883,12.384515762329102,-39.93111801147461,-119.42158508300781, -19.52813720703125
470,2856527518,0.8514996,0.03332262,-0.42918718,0.2993945,9.343910217285156,-3.8533976078033447,13.778146743774414,-37.82228088378906,-114.39154052734375, -14.287468910217285
471,2856544185,0.8457008,0.034480512,-0.44341025,0.29493946,8.595048904418945,-3.697662830352783,15.53071403503418,-34.43864059448242,-102.0898208618164, -13.778951644897461
472,2856560852,0.8405477,0.03415614,-0.45688182,0.28908947,7.958974838256836,-1.9605841636657715,14.69896411895752,-45.965911865234375,-93.29244995117188, -18.89287567138672
473,2856577519,0.8361247,0.03171216,-0.46878713,0.2830712,7.876427173614502,-3.950845241546631,12.201204299926758,-55.85640335083008,-77.98653411865234, -15.029147148132324
474,2856594186,0.8321958,0.030397551,-0.47856724,0.27838877,8.363404273986816,-3.8297812938690186,10.117288589477539,-41.03378677368164,-66.24049377441406, -12.45926284790039
475,2856610853,0.82863736,0.02877957,-0.48727652,0.27403337,8.737866401672363,-4.039135456085205,9.983708381652832,-39.725101470947266,-58.343666076660156, -10.565799713134766
476,2856627520,0.82565284,0.02710455,-0.49475664,0.26977628,8.28044605255127,-3.688701629638672,11.247241973876953,-37.51190948486328,-49.38542175292969, -11.177589416503906
477,2856644187,0.8232664,0.025176167,-0.5008191,0.26604423,8.193449974060059,-3.5622098445892334,11.610278129577637,-41.340267181396484,-37.100765228271484, -12.725635528564453
478,2856660854,0.8214487,0.024369417,-0.50543225,0.2629968,7.581399440765381,-3.5756328105926514,8.706255912780762,-31.819679260253906,-28.55925941467285, -14.929953575134277
479,2856677521,0.8201819,0.024500428,-0.5089443,0.26014963,8.059892654418945,-3.8351197242736816,8.340073585510254,-22.873668670654297,-22.46125030517578, -17.576091766357422
480,2856694188,0.8197085,0.0272634,-0.51038265,0.25854403,8.712316513061523,-4.148324012756348,8.225579261779785,6.876542568206787,-14.396632194519043, -17.63321304321289
481,2856710855,0.8193061,0.03243882,-0.51099414,0.25801414,9.152522087097168,-4.328848361968994,6.771163463592529,32.161651611328125,-15.236618995666504, -16.780712127685547
482,2856727522,0.81909066,0.036172394,-0.51165193,0.25689572,9.903582572937012,-3.4793856143951416,7.138225078582764,20.902782440185547,-12.128405570983887, -15.935294151306152
483,2856744189,0.8192093,0.03697527,-0.51232713,0.2550502,9.582501411437988,-3.004859209060669,8.291149139404297,0.8647172451019287,-5.826700210571289, -10.80628490447998
484,2856760856,0.8188325,0.036411837,-0.51373065,0.25351405,9.742925643920898,-3.9066364765167236,8.492648124694824,-11.149075508117676,-8.246423721313477, -5.522281646728516
485,2856777523,0.8179878,0.035015583,-0.51532984,0.2531911,10.30848503112793,-4.800399303436279,7.054736614227295,-11.771709442138672,-9.283727645874023, 5.085117816925049
486,2856794190,0.81712025,0.033520564,-0.51610994,0.25460246,9.902344703674316,-4.139717102050781,7.619533538818359,-4.726892471313477,-4.164283275604248, 14.989813804626465
487,2856810857,0.8164146,0.030190134,-0.5164608,0.25656357,9.448781967163086,-3.5986168384552,7.39816427230835,-12.37182331085205,2.1480720043182373, 24.17919921875
488,2856827524,0.81678504,0.026395513,-0.5145763,0.25957197,10.40848159790039,-5.424072742462158,6.7460832595825195,-7.538465976715088,19.53812599182129, 29.33031463623047
489,2856844191,0.81919914,0.027911643,-0.507335,0.2659805,11.57014274597168,-5.902073860168457,5.770869731903076,43.53500747680664,48.00432205200195, 24.97833251953125
490,2856860858,0.8236636,0.035798624,-0.49438703,0.27546158,11.371947288513184,-4.657861709594727,4.4794111251831055,100.21867370605469,76.29252624511719, 15.187405586242676
491,2856877525,0.8295971,0.044620585,-0.47739008,0.2861417,10.38212776184082,-1.9612370729446411,5.9552717208862305,116.95210266113281,102.82330322265625, 15.035343170166016
492,2856894192,0.8360419,0.048876304,-0.46009955,0.29487994,9.174856185913086,-1.1542125940322876,6.867834091186523,84.94954681396484,114.60234832763672, 17.908096313476562
493,2856910859,0.842645,0.048291195,-0.44291073,0.30240458,8.92116928100586,-2.082078456878662,5.483642101287842,53.00672912597656,123.93791198730469, 26.014657974243164
494,2856927526,0.84964705,0.045379817,-0.42424518,0.30993146,9.09486198425293,-2.37001371383667,5.171849250793457,42.48152160644531,138.60342407226562, 31.819087982177734
495,2856944193,0.85691994,0.041804772,-0.40384188,0.31757396,9.417845726013184,-1.6149311065673828,5.908049583435059,42.57655334472656,151.0731201171875, 33.33045196533203
496,2856960860,0.86430633,0.03688456,-0.3823525,0.32468727,9.854012489318848,-1.2132080793380737,5.926161289215088,35.523616790771484,160.6484375, 33.424983978271484
497,2856977527,0.87160194,0.030617664,-0.3600479,0.33126882,9.818467140197754,-1.0037811994552612,5.532745361328125,27.96082305908203,168.22271728515625, 33.84347915649414
498,2856994194,0.8785741,0.024959374,-0.3368428,0.33767188,9.276776313781738,0.23903973400592804,4.387631416320801,33.2796516418457,171.5087127685547, 31.858448028564453
499,2857010861,0.8848834,0.019120608,-0.3134154,0.34407464,7.971645832061768,-0.6616474390029907,4.098521709442139,32.794769287109375,171.8684539794922, 33.83431625366211
500,2857027528,0.89024454,0.013543974,-0.2900431,0.35093743,6.453322410583496,-0.6932201981544495,4.257857799530029,35.369895935058594,169.04672241210938, 38.351478576660156
501,2857044195,0.894684,0.0071259052,-0.26761803,0.3575909,5.587277412414551,-0.786624550819397,5.064554691314697,27.5964412689209,163.5056915283203, 41.082275390625
502,2857060862,0.8984677,0.0014349829,-0.245255,0.36414918,5.0596208572387695,-0.9129753112792969,5.900435924530029,31.770235061645508,160.18321228027344, 40.794490814208984
503,2857077529,0.9018445,-0.0034471499,-0.22243805,0.37038705,4.44751501083374,-1.5283336639404297,7.3782148361206055,37.35967254638672,160.31668090820312, 38.475528717041016
504,2857094196,0.9049892,-0.007833904,-0.19886312,0.37601516,3.5492959022521973,-0.5472928285598755,8.545220375061035,41.42628860473633,163.43453979492188, 34.5482177734375
505,2857110863,0.907846,-0.014502221,-0.17571168,0.38043612,2.75492262840271,-0.23852470517158508,7.455798149108887,24.442546844482422,166.36239624023438, 30.889299392700195
506,2857127530,0.9102122,-0.021122217,-0.15228187,0.3845497,2.488813877105713,-0.7610151767730713,5.910603046417236,25.025346755981445,167.4082794189453, 30.230226516723633
507,2857144197,0.91211724,-0.027779454,-0.12985703,0.38782543,3.0091826915740967,-0.08752251416444778,5.4559326171875,21.184621810913086,160.8684539794922, 26.097131729125977
508,2857160864,0.9136966,-0.0338155,-0.10906149,0.39002755,2.852632999420166,-0.21106019616127014,6.225297927856445,19.6966495513916,148.94471740722656, 19.37604522705078
509,2857177531,0.91505444,-0.038453117,-0.08945541,0.3914016,1.9890832901000977,0.18040014803409576,7.431088924407959,24.6019229888916,137.78392028808594, 13.4454345703125
510,2857194198,0.9162799,-0.04214741,-0.07078534,0.3919756,0.9576393365859985,0.16669465601444244,9.001265525817871,27.45872688293457,129.49923706054688, 7.940217971801758
511,2857210865,0.9172177,-0.0449106,-0.05300213,0.39228347,0.8529117703437805,-0.0889778584241867,8.797932624816895,30.68625831604004,121.32634735107422, 6.326526165008545
512,2857227532,0.9179556,-0.0461331,-0.03501182,0.39243376,0.86918044090271,0.6733217835426331,7.7915754318237305,40.817623138427734,118.44805908203125, 5.366522789001465
513,2857244199,0.9186048,-0.047825262,-0.017843759,0.39186788,0.34219685196876526,0.952887773513794,6.775752544403076,35.39582443237305,114.73640441894531, 0.9330347776412964
514,2857260866,0.91909033,-0.049425457,-0.0020270199,0.39093053,-0.053735412657260895,0.7258765697479248,5.982326507568359,32.19655227661133,106.05281066894531, -1.4369474649429321
515,2857277533,0.9194088,-0.05146009,0.011774264,0.38974527,-0.9711136817932129,0.9952117204666138,6.14335823059082,23.945032119750977,94.55751037597656, -3.243009328842163
516,2857294200,0.9195399,-0.054316495,0.023385549,0.38852283,-1.421684741973877,1.2371731996536255,5.946895122528076,12.784213066101074,82.91438293457031, -3.8299620151519775
517,2857310867,0.9195073,-0.05823803,0.032548726,0.3873706,-1.682856798171997,0.7908050417900085,5.336626052856445,-0.6005643010139465,70.24398803710938, -4.044982433319092
518,2857327534,0.9194922,-0.06165427,0.039542653,0.38622558,-2.115424156188965,0.6672044396400452,4.533699989318848,-3.2013401985168457,55.135887145996094, -4.815021514892578
519,2857344201,0.91968465,-0.06374165,0.04444224,0.3848932,-2.213207960128784,0.5377700328826904,3.620905637741089,-0.24143940210342407,38.33745193481445, -7.086994647979736
520,2857360868,0.92019975,-0.063588396,0.04782782,0.38327792,-2.396775007247925,0.6943459510803223,3.635138988494873,10.135721206665039,22.804447174072266, -9.717073440551758
521,2857377535,0.9209728,-0.061426472,0.04967912,0.38153446,-2.5260391235351562,0.33384644985198975,3.630565643310547,18.939058303833008,7.716742515563965, -11.226003646850586
522,2857394202,0.922035,-0.057330493,0.050118618,0.37954384,-2.5091257095336914,-0.40273046493530273,4.147984504699707,27.6826171875,-6.3516387939453125, -13.48850154876709
523,2857410869,0.9232273,-0.051604416,0.049107894,0.37759438,-2.5923285484313965,-0.9955019950866699,5.564648628234863,34.282981872558594,-19.916135787963867, -13.576057434082031
524,2857427536,0.92444474,-0.04498836,0.047056686,0.3757185,-2.3542368412017822,-1.7168549299240112,6.620127201080322,37.24347686767578,-28.917428970336914, -13.236960411071777
525,2857444203,0.92546093,-0.03830709,0.04474899,0.37423655,-2.4429590702056885,-2.240180253982544,8.199106216430664,36.852943420410156,-30.812606811523438, -10.25905990600586
526,2857460870,0.9261358,-0.03210566,0.042428598,0.37341976,-2.5549259185791016,-3.1014277935028076,8.687260627746582,33.5341682434082,-29.765623092651367, -5.291467666625977
527,2857477537,0.9264758,-0.025617367,0.039972953,0.37334904,-2.5068933963775635,-4.4727983474731445,7.335182189941406,34.80714416503906,-31.46908187866211, 0.3867611587047577
528,2857494204,0.9264338,-0.014460143,0.03553234,0.37449938,-2.918944835662842,-6.0170817375183105,-3.2755370140075684,59.175262451171875,-56.25041580200195, 10.097297668457031
529,2857510871,0.925503,0.0071197115,0.013607166,0.3784299,13.166272163391113,-7.170700550079346,-44.16339874267578,79.95655822753906,-194.62835693359375, 30.920400619506836
530,2857527538,0.92345953,0.04372658,-0.020678863,0.38063592,21.079992294311523,8.733871459960938,8.585236549377441,143.8740997314453,-312.10223388671875, 24.841585159301758
531,2857544205,0.9205276,0.058701843,-0.056378588,0.38210654,1.7708709239959717,8.663002967834473,18.996196746826172,2.7019975185394287,-264.1064758300781, 25.95646858215332
532,2857560872,0.91470325,0.079561576,-0.08864693,0.38617432,4.721801280975342,-8.030099868774414,-4.908599853515625,50.932861328125,-257.95184326171875, 46.365901947021484
533,2857577539,0.9083041,0.10696936,-0.11276753,0.38836265,-0.44383692741394043,-1.251327633857727,-3.6008315086364746,113.15463256835938,-225.2960968017578, 27.530792236328125
534,2857594206,0.9031376,0.12212523,-0.13284414,0.38959104,1.6307601928710938,-6.669373989105225,7.1681437492370605,45.792137145996094,-167.048095703125, 24.743732452392578
535,2857610873,0.89713395,0.13666227,-0.1473519,0.39339805,8.112924575805664,-2.879929780960083,8.573515892028809,60.128116607666016,-129.4389190673828, 38.80054473876953
536,2857627540,0.89165986,0.1492739,-0.16102718,0.39589265,8.82265853881836,1.2469888925552368,9.756901741027832,48.77827453613281,-119.6666259765625, 30.354122161865234
537,2857644207,0.8868351,0.1572269,-0.1770352,0.3968155,9.308515548706055,0.5985162854194641,6.662254333496094,11.454537391662598,-122.0680923461914, 26.467548370361328
538,2857660874,0.8821814,0.16445269,-0.19224837,0.3971811,10.925043106079102,8.872082710266113,6.482877731323242,8.324556350708008,-115.47620391845703, 22.582908630371094
539,2857677541,0.8782867,0.16211316,-0.21049751,0.39752162,10.254663467407227,5.337324619293213,7.104250431060791,-59.09231948852539,-106.61154174804688, 36.52242660522461
540,2857694208,0.8749715,0.15411824,-0.23022582,0.39707568,9.548864364624023,4.457394123077393,7.384273052215576,-99.18009185791016,-99.97988891601562, 40.09855270385742
541,2857710875,0.8728983,0.1411844,-0.250375,0.39424434,9.342085838317871,5.391088008880615,9.291232109069824,-135.2211151123047,-89.48483276367188, 30.715145111083984
542,2857727542,0.8716449,0.12585971,-0.2714809,0.3881925,9.211670875549316,4.326973915100098,9.564923286437988,-158.6136474609375,-90.41572570800781, 14.355073928833008
543,2857744209,0.8713771,0.10913221,-0.2922904,0.37862775,10.820234298706055,3.5183217525482178,10.172107696533203,-173.7421417236328,-86.08001708984375, -6.832108974456787
544,2857760876,0.8714253,0.09148042,-0.31171137,0.36754084,11.383928298950195,0.45603904128074646,10.241969108581543,-179.046875,-75.83554077148438, -15.815605163574219
545,2857777543,0.8711834,0.07655888,-0.32853925,0.3567085,11.069839477539062,-0.6089561581611633,12.167389869689941,-155.41891479492188,-67.63378143310547, -20.943309783935547
546,2857794210,0.87050825,0.062786855,-0.34408322,0.3462382,11.138772964477539,-3.2066597938537598,14.103435516357422,-144.33694458007812,-63.591636657714844, -20.900115966796875
547,2857810877,0.8693507,0.050431836,-0.35817504,0.33674487,8.37662124633789,-5.175618648529053,16.269447326660156,-129.8524932861328,-59.07813262939453, -17.874574661254883
548,2857827544,0.86749715,0.04363063,-0.3694929,0.3301832,7.774041652679443,-6.086742877960205,14.414121627807617,-82.70623016357422,-56.25925064086914, -13.414813041687012
549,2857844211,0.86432123,0.043083787,-0.3810409,0.32542446,7.995795249938965,-4.830947399139404,10.659420013427734,-40.87802505493164,-74.82544708251953, -15.562714576721191
550,2857860878,0.8593887,0.04253049,-0.39693213,0.31951213,11.960636138916016,-4.762719631195068,6.467629432678223,-53.083126068115234,-105.65936279296875, -17.243040084838867
551,2857877545,0.8535405,0.04861215,-0.4113393,0.3160792,13.485418319702148,-4.805416584014893,9.016181945800781,-3.508334159851074,-113.1560287475586, -19.160198211669922
552,2857894212,0.8472278,0.053438805,-0.42589813,0.3129871,10.006444931030273,-2.442653179168701,15.23943042755127,-10.033975601196289,-112.47565460205078, -12.593480110168457
553,2857910879,0.84072137,0.054732777,-0.44167405,0.30841008,8.351640701293945,-3.36757755279541,16.37457847595215,-37.54529571533203,-113.2785873413086, -10.04220962524414
554,2857927546,0.8345138,0.05520167,-0.4564011,0.30370748,9.10884952545166,-4.017633438110352,14.1273832321167,-40.60934829711914,-104.8780288696289, -9.324758529663086
555,2857944213,0.82850116,0.05405263,-0.4704092,0.29896465,9.51398754119873,-3.534015417098999,12.624502182006836,-48.59688186645508,-96.9841079711914, -5.205587863922119
556,2857960880,0.8229122,0.050131463,-0.4844197,0.29264432,9.942919731140137,-3.6608707904815674,12.987445831298828,-69.66691589355469,-90.68498229980469, -6.129990577697754
557,2857977547,0.8180462,0.04625056,-0.4965606,0.28651312,9.241312026977539,-4.2417120933532715,12.878796577453613,-65.31144714355469,-77.8907241821289, -7.325832843780518
558,2857994214,0.8141683,0.043496367,-0.5069171,0.2797746,8.529048919677734,-2.225248098373413,12.406822204589844,-57.8568115234375,-67.08419036865234, -17.1536865234375
559,2858010881,0.8112553,0.03810957,-0.51656204,0.2712508,8.232796669006348,-3.291731119155884,11.264310836791992,-77.78893280029297,-55.39760208129883, -20.05601692199707
560,2858027548,0.8091512,0.032788556,-0.52400666,0.26385075,8.70445442199707,-4.753112316131592,10.486083984375,-69.55596160888672,-40.247291564941406, -16.144371032714844
561,2858044215,0.8074125,0.029491024,-0.5296438,0.25825125,9.197288513183594,-5.134056091308594,9.203767776489258,-48.6202278137207,-32.273834228515625, -14.563103675842285
562,2858060882,0.80644083,0.028736101,-0.5332011,0.25401732,9.967974662780762,-5.937232494354248,8.977261543273926,-18.736902236938477,-24.123201370239258, -14.520562171936035
563,2858077549,0.80622447,0.031299792,-0.53436255,0.25195244,10.552553176879883,-5.13069486618042,9.907751083374023,10.45762825012207,-13.176186561584473, -17.16905975341797
564,2858094216,0.8064033,0.033754468,-0.53447676,0.25081798,10.37264633178711,-4.293469429016113,10.775617599487305,8.985823631286621,-4.118565559387207, -15.490731239318848
565,2858110883,0.8072621,0.03578823,-0.533034,0.25084406,10.658418655395508,-4.196955680847168,9.472912788391113,13.435789108276367,7.885280132293701, -9.072027206420898
566,2858127550,0.80930793,0.037523862,-0.5293483,0.25180143,10.937716484069824,-5.16526985168457,7.592406272888184,18.76740837097168,25.34953498840332, -5.434714317321777
567,2858144217,0.8122165,0.04171876,-0.52274424,0.25554472,10.970549583435059,-5.910295009613037,6.582890033721924,47.45047378540039,41.167701721191406, -1.1686596870422363
568,2858160884,0.8151874,0.049151298,-0.51411283,0.26218727,11.589510917663574,-4.948347568511963,6.108210563659668,79.54388427734375,47.86280822753906, 2.6492083072662354
569,2858177551,0.81829727,0.05534764,-0.5045554,0.2697237,11.446216583251953,-4.221477508544922,6.32474422454834,77.43170166015625,56.106876373291016, 11.44870662689209
570,2858194218,0.8219817,0.058409434,-0.49417865,0.2769887,10.839353561401367,-3.369277238845825,7.213390827178955,60.18777084350586,68.44956970214844, 19.418546676635742
571,2858210885,0.8264269,0.059228543,-0.48226357,0.28448787,9.825541496276855,-3.1875357627868652,7.338796615600586,50.94021224975586,84.1039047241211, 26.303531646728516
572,2858227552,0.83161503,0.058752097,-0.46856365,0.2922565,9.854371070861816,-2.6656949520111084,5.773024082183838,47.67716979980469,99.35456085205078, 29.962360382080078
573,2858244219,0.83742887,0.058841344,-0.4521649,0.30132768,10.139578819274902,-2.5880067348480225,5.104361057281494,60.28801727294922,116.24610900878906, 33.2597770690918
574,2858260886,0.8436371,0.05826778,-0.43366542,0.31115347,9.586952209472656,-1.781994104385376,6.141318321228027,63.0364875793457,131.32980346679688, 38.032615661621094
575,2858277553,0.8499228,0.056605145,-0.4139641,0.3210327,9.372358322143555,-1.5097004175186157,6.342196941375732,59.41664123535156,140.94459533691406, 40.98200225830078
576,2858294220,0.85614264,0.055239033,-0.392478,0.33155748,9.413187980651855,-2.0340356826782227,6.305449962615967,66.95341491699219,150.84759521484375, 43.41007614135742
577,2858310887,0.86241585,0.05385432,-0.3691752,0.34212443,8.601358413696289,-0.5626243352890015,6.978353023529053,71.08757019042969,161.82461547851562, 42.9310417175293
578,2858327554,0.8685839,0.050131775,-0.34528875,0.35188848,7.6039042472839355,-0.6382206082344055,6.973144054412842,56.574825286865234,170.28221130371094, 44.18819808959961
579,2858344221,0.8746133,0.044204973,-0.32068726,0.36091268,6.651408672332764,-0.293122798204422,6.742508888244629,43.41176223754883,179.35765075683594, 45.13306427001953
580,2858360888,0.88052016,0.03657029,-0.295344,0.3689439,5.74302339553833,0.3268095850944519,6.656032085418701,32.80559539794922,187.5377655029297, 43.04520034790039
581,2858377555,0.88634497,0.027180092,-0.2689853,0.37590095,5.257349967956543,-0.12041020393371582,6.64394998550415,22.553932189941406,197.749755859375, 40.09799575805664
582,2858394222,0.8920251,0.018179992,-0.24135739,0.38171747,5.008768081665039,0.08826029300689697,6.569750785827637,26.103836059570312,204.04469299316406, 32.585941314697266
583,2858410889,0.8971192,0.0091514615,-0.21354501,0.38664266,5.400533676147461,-0.46780529618263245,6.601573944091797,24.979249954223633,204.2205047607422, 28.706205368041992
584,2858427556,0.90173376,0.00088109856,-0.18518443,0.39061847,4.384555816650391,0.5418041944503784,6.174489974975586,29.73598289489746,204.8994140625, 22.991178512573242
585,2858444223,0.9058069,-0.0075557726,-0.1564695,0.39366835,3.624490261077881,0.6863299012184143,6.778883457183838,28.444501876831055,206.91281127929688, 18.935426712036133
586,2858460890,0.9093248,-0.016255787,-0.12789223,0.39561164,3.746913433074951,0.82033371925354,6.187105178833008,25.17300796508789,206.27584838867188, 13.832798957824707
587,2858477557,0.91229326,-0.02353857,-0.09924395,0.39663404,3.9560632705688477,-0.1388622522354126,6.0921549797058105,33.31829071044922,202.5495147705078, 8.34177303314209
588,2858494224,0.9146311,-0.028724981,-0.07108105,0.39695457,3.455821990966797,-0.11187626421451569,6.454087734222412,44.554405212402344,193.5509796142578, 4.152070045471191
589,2858510891,0.91628814,-0.03369136,-0.04465796,0.39659464,2.9580328464508057,-0.37864258885383606,6.789318084716797,40.71153259277344,181.88169860839844, 1.2728956937789917
590,2858527558,0.917182,-0.038906872,-0.020190477,0.39605144,2.271949052810669,-0.398588091135025,5.948071479797363,33.57487106323242,170.11227416992188, 1.8247458934783936
591,2858544225,0.91731304,-0.044989306,0.0016579558,0.3956145,1.4367855787277222,-0.31951677799224854,4.4850172996521,20.789533615112305,155.87466430664062, 3.984639883041382
592,2858560892,0.9170355,-0.051617876,0.020536656,0.39491832,0.4844818711280823,0.5529158711433411,3.2987771034240723,9.149230003356934,138.74880981445312, 2.5334157943725586
593,2858577559,0.91627556,-0.05970595,0.03606536,0.39442915,-0.6843315958976746,0.13751161098480225,3.715043067932129,-9.364789009094238,121.59344482421875, 3.7477123737335205
594,2858594226,0.9151978,-0.06787093,0.047893442,0.39435208,-1.245413899421692,-0.46854454278945923,1.8224267959594727,-20.121694564819336,98.37943267822266, 5.660640239715576
595,2858610893,0.9144053,-0.072692156,0.056970384,0.3941245,-2.352975368499756,-0.8864732384681702,1.641400933265686,-6.341757297515869,71.94310760498047, 3.748392105102539
596,2858627560,0.91402835,-0.07331973,0.06276223,0.39400306,-2.9760043621063232,-1.4830225706100464,0.20862926542758942,11.312128067016602,39.64606475830078, 3.290745735168457
597,2858644227,0.9139555,-0.07053524,0.0664146,0.39408138,-2.466770648956299,-1.538090705871582,3.39345121383667,27.06837272644043,16.642620086669922, 4.113471508026123
598,2858660894,0.91387844,-0.0651883,0.06798307,0.39491266,-2.5871224403381348,-1.7039951086044312,2.31533145904541,37.21424865722656,-3.809037685394287, 9.019001960754395
599,2858677561,0.91383654,-0.05716067,0.06772678,0.3962945,-2.53524112701416,-1.7286491394042969,2.643897533416748,48.90306091308594,-22.8737735748291, 12.824566841125488
600,2858694228,0.9135821,-0.047753245,0.06408552,0.39872485,-2.6517932415008545,-1.9961837530136108,1.9599676132202148,47.81870651245117,-48.2674674987793, 19.308212280273438
601,2858710895,0.9134299,-0.036378164,0.054772772,0.40165058,-2.596365451812744,-3.3523406982421875,-3.8169493675231934,44.493934631347656,-89.55424499511719, 21.154966354370117
602,2858727562,0.91428876,-0.021961547,0.028973514,0.40342918,8.710790634155273,0.23672059178352356,-33.07010269165039,18.841787338256836,-201.6901397705078, 8.186473846435547
603,2858744229,0.91340387,0.0052879653,-0.009949149,0.40689942,25.154560089111328,0.3790093660354614,0.9843324422836304,62.540496826171875,-319.616455078125, 24.230854034423828
604,2858760896,0.9094406,0.02687028,-0.047095727,0.4122847,-1.6332859992980957,2.725405693054199,14.429909706115723,32.15578842163086,-291.9957275390625, 45.19216537475586
605,2858777563,0.9044148,0.053417552,-0.07996001,0.4156776,4.8769612312316895,0.09838149696588516,-2.8837063312530518,74.82864379882812,-280.0939025878906, 33.32849884033203
606,2858794230,0.89912724,0.079775184,-0.10634395,0.41701066,-2.711606740951538,-2.122119188308716,-0.03313197195529938,91.13076782226562,-239.99339294433594, 18.962312698364258
607,2858810897,0.8939667,0.097842604,-0.1277052,0.41826168,0.14277513325214386,-4.771897315979004,4.439024448394775,54.19117736816406,-185.1903839111328, 21.373416900634766
608,2858827564,0.8886664,0.11111119,-0.14430417,0.42083657,6.335727214813232,-4.667842388153076,8.595508575439453,39.769500732421875,-141.38453674316406, 30.868240356445312
609,2858844231,0.8842324,0.12108517,-0.1587755,0.42221147,8.417977333068848,1.227833867073059,7.934006690979004,24.069730758666992,-118.82714080810547, 22.595947265625
610,2858860898,0.880765,0.12527996,-0.1753983,0.42165637,8.880931854248047,0.8127972483634949,9.345085144042969,-20.248144149780273,-115.55684661865234, 16.144140243530273
611,2858877565,0.8765536,0.1328406,-0.18996875,0.42180568,9.151859283447266,5.729269981384277,6.11184024810791,7.565604209899902,-113.0672836303711, 16.73015022277832
612,2858894232,0.87317765,0.13480534,-0.20433089,0.42147106,8.845314979553223,7.511023044586182,5.240634441375732,-27.0916690826416,-94.79517364501953, 18.557796478271484
613,2858910899,0.8701537,0.13294598,-0.22128004,0.4197544,8.837687492370605,4.463850021362305,6.520743370056152,-59.99172592163086,-99.90380096435547, 17.108562469482422
614,2858927566,0.8683191,0.12983881,-0.23761375,0.4155771,9.819101333618164,4.453243732452393,9.254669189453125,-70.60857391357422,-92.9568099975586, 0.3624562919139862
615,2858944233,0.8681688,0.123877466,-0.25130486,0.4096142,11.158431053161621,2.7337803840637207,10.742390632629395,-84.61457824707031,-67.7917709350586, -12.72083854675293
616,2858960900,0.8692031,0.113632925,-0.26452047,0.4019992,11.597027778625488,0.8304255604743958,11.554641723632812,-112.76473236083984,-52.17706298828125, -18.84705352783203
617,2858977567,0.87039787,0.10174656,-0.27718258,0.39398727,10.950761795043945,-1.2883687019348145,12.791138648986816,-121.91339874267578,-44.28920364379883, -19.04891014099121
618,2858994234,0.8711652,0.0899687,-0.28950426,0.38621864,9.261791229248047,-3.1261205673217773,12.171639442443848,-119.56137084960938,-43.17226791381836, -16.85399055480957
619,2859010901,0.8715298,0.077933855,-0.30181494,0.37851107,9.10641860961914,-3.862844228744507,14.456697463989258,-120.63993835449219,-43.20890426635742, -14.900575637817383
620,2859027568,0.87161684,0.063770026,-0.31341007,0.37147328,8.176703453063965,-5.097970485687256,17.19707489013672,-129.9333953857422,-33.66838073730469, -6.125128269195557
621,2859044235,0.87057555,0.052469358,-0.32406464,0.36650795,6.707212924957275,-3.540537118911743,12.335898399353027,-105.35049438476562,-37.012630462646484, 2.5551135540008545
622,2859060902,0.8681438,0.04082752,-0.3411455,0.35816184,8.356258392333984,-2.51896333694458,8.67854118347168,-130.58868408203125,-79.03716278076172, -11.105008125305176
623,2859077569,0.8638041,0.033595093,-0.36134014,0.34949678,9.719978332519531,-6.655796051025391,7.952326774597168,-112.13020324707031,-113.04505920410156, -17.753511428833008
624,2859094236,0.8572194,0.03634301,-0.381593,0.34386286,11.866735458374023,-6.265697002410889,8.40625,-44.83551025390625,-142.2045440673828, -19.195556640625
625,2859110903,0.84966654,0.0447184,-0.40005293,0.3406254,10.567994117736816,-4.561493873596191,14.108803749084473,-0.8148283958435059,-146.81008911132812, -18.0533504486084
626,2859127570,0.8414657,0.05278489,-0.41887847,0.337181,9.8277006149292,-3.1637136936187744,14.764195442199707,-3.839268207550049,-150.17469787597656, -16.823274612426758
627,2859144237,0.83306366,0.056650124,-0.43877402,0.3320749,10.434611320495605,-4.291280746459961,15.6720609664917,-35.3820915222168,-147.9660186767578, -13.506790161132812
628,2859160904,0.82467395,0.05944584,-0.45680833,0.32818574,9.933270454406738,-5.204083442687988,14.879305839538574,-33.604652404785156,-134.5410919189453, -4.095940113067627
629,2859177571,0.8163794,0.06047147,-0.47403815,0.32427806,9.987876892089844,-4.278173923492432,13.2100191116333,-41.9306640625,-125.89320373535156, 0.7485584020614624
630,2859194238,0.80828017,0.059568454,-0.49094024,0.31955153,9.979109764099121,-4.204736709594727,12.422271728515625,-54.79331588745117,-119.63158416748047, 1.8247661590576172
631,2859210905,0.8005601,0.05754378,-0.5074376,0.31352848,9.81847858428955,-3.2599782943725586,12.173101425170898,-64.69305419921875,-114.33611297607422, -2.635092258453369
632,2859227572,0.79329175,0.05395919,-0.523177,0.30669737,9.533590316772461,-4.542687892913818,12.210083961486816,-74.69032287597656,-105.72420501708984, -2.9338133335113525
633,2859244239,0.7868437,0.051802967,-0.53615266,0.3012215,8.73946762084961,-3.9143195152282715,11.666156768798828,-56.52157974243164,-90.40506744384766, -3.4865660667419434
634,2859260906,0.7811472,0.04892829,-0.5475311,0.296016,8.647881507873535,-4.138827323913574,11.36327838897705,-56.42207336425781,-77.6127700805664, -1.549400806427002
635,2859277573,0.77632093,0.047727052,-0.555947,0.29320943,8.68520736694336,-5.030831336975098,10.654937744140625,-32.713462829589844,-61.228179931640625, 2.2137367725372314
636,2859294240,0.7723396,0.049709,-0.561362,0.29307723,8.462424278259277,-3.485931396484375,10.203108787536621,-7.270411968231201,-45.60064697265625, -1.559005618095398
637,2859310907,0.77011204,0.050243985,-0.565315,0.29124385,8.873005867004395,-3.352585554122925,9.639604568481445,-8.382209777832031,-31.968109130859375, -4.616527080535889
638,2859327574,0.7688253,0.05292442,-0.566721,0.2914358,8.82996654510498,-4.181950569152832,9.282051086425781,12.259674072265625,-17.660280227661133, -6.344532489776611
639,2859344241,0.7689635,0.056889646,-0.56568575,0.2923339,9.036906242370605,-3.278984546661377,9.190560340881348,34.195960998535156,-3.8732457160949707, -8.242470741271973
640,2859360908,0.7699328,0.060434375,-0.5633796,0.2935226,10.09728717803955,-3.2726099491119385,9.294922828674316,32.42163848876953,7.695180416107178, -8.346418380737305
641,2859377575,0.77159894,0.06466787,-0.5593565,0.2959297,11.261564254760742,-3.7302358150482178,8.735737800598145,38.77843475341797,19.82269287109375, -8.712296485900879
642,2859394242,0.7737487,0.06937693,-0.55421007,0.29891768,11.663373947143555,-3.572885036468506,8.892223358154297,45.600833892822266,26.820629119873047, -8.936142921447754
643,2859410909,0.7766701,0.07432256,-0.54771227,0.3021128,11.84022045135498,-3.3869855403900146,8.767034530639648,50.04422378540039,36.45737075805664, -10.954920768737793
644,2859427576,0.7807408,0.07811338,-0.53965217,0.30515367,12.651040077209473,-5.102038383483887,7.460696697235107,45.946990966796875,51.35459518432617, -10.599536895751953
645,2859444243,0.78623194,0.08371709,-0.5275895,0.3106141,12.383146286010742,-5.006608963012695,6.301555633544922,72.3206787109375,75.57710266113281, -9.497366905212402
646,2859460910,0.7930728,0.08966091,-0.5122275,0.31720668,11.610114097595215,-2.892871379852295,6.273848056793213,84.60076904296875,98.24305725097656, -9.404531478881836
647,2859477577,0.80090755,0.09314175,-0.49490914,0.32394046,10.896385192871094,-1.9581975936889648,6.523495674133301,75.34764099121094,117.88253784179688, -3.2961976528167725
648,2859494244,0.80913615,0.09351585,-0.47649944,0.33091187,9.975688934326172,-1.5344122648239136,6.770251750946045,61.22753143310547,132.3175506591797, 7.051301956176758
649,2859510911,0.81722057,0.09234726,-0.45679325,0.33906278,9.791122436523438,-2.101931571960449,5.825748443603516,59.552024841308594,143.3317413330078, 18.210859298706055
650,2859527578,0.82553184,0.09069385,-0.4347575,0.348222,9.484066009521484,-1.29156494140625,5.484834671020508,65.29684448242188,158.95823669433594, 23.41969871520996
651,2859544245,0.8341937,0.08777498,-0.41043195,0.357719,9.592145919799805,-1.313925862312317,5.724738597869873,64.38839721679688,176.32000732421875, 26.90041160583496
652,2859560912,0.8431042,0.08322882,-0.3842697,0.3668597,10.105860710144043,-0.11861082166433334,5.468542098999023,58.41427993774414,191.4370880126953, 27.767833709716797
653,2859577579,0.8520355,0.07551342,-0.35789832,0.3744899,9.705780982971191,0.6044905185699463,4.727481842041016,36.54036331176758,199.9679718017578, 27.276851654052734
654,2859594246,0.86045647,0.0665179,-0.33105254,0.38156933,9.53824520111084,-0.24620740115642548,4.20829439163208,29.12986946105957,204.66807556152344, 28.33390998840332
655,2859610913,0.8681109,0.056954943,-0.30400753,0.3882269,9.2755708694458,0.38664907217025757,4.34784460067749,25.667879104614258,205.5934600830078, 29.086227416992188
656,2859627580,0.87501156,0.04583417,-0.27734792,0.39412317,7.994704723358154,-0.2925003170967102,4.09758186340332,14.007983207702637,205.78131103515625, 30.005895614624023
657,2859644247,0.88132614,0.03408855,-0.2501848,0.399388,6.0369462966918945,-0.3165113031864166,5.91591739654541,10.578959465026855,209.37620544433594, 28.84716796875
658,2859660914,0.8869097,0.022110252,-0.22254795,0.40419787,4.777864456176758,-0.45434388518333435,6.184240341186523,9.83503532409668,211.62521362304688, 28.394474029541016
659,2859677581,0.8919011,0.009503872,-0.19469908,0.408063,4.3193583488464355,-0.06422105431556702,5.50742244720459,5.218114376068115,213.68759155273438, 25.20429229736328
660,2859694248,0.8963299,-0.0036421306,-0.16688564,0.4107672,3.6657893657684326,0.6057828068733215,4.947361469268799,0.2646416425704956,214.23883056640625, 20.3879337310791
661,2859710915,0.89992905,-0.017898068,-0.14005663,0.4125436,3.1932790279388428,-0.39678797125816345,4.800960540771484,-10.490989685058594,210.45855712890625, 18.26034927368164
662,2859727582,0.9025715,-0.031888843,-0.113923274,0.41396868,3.0900039672851562,-0.38793233036994934,5.139780044555664,-11.288188934326172,204.60055541992188, 18.449064254760742
663,2859744249,0.9044645,-0.046102826,-0.08884211,0.4146401,2.9907639026641846,-0.6960111856460571,5.9122700691223145,-16.434444427490234,198.36709594726562, 15.836372375488281
664,2859760916,0.90588623,-0.058474936,-0.06391326,0.41456813,2.368892192840576,-1.1633306741714478,5.788464546203613,-6.020143032073975,192.20252990722656, 11.374517440795898
665,2859777583,0.9069633,-0.06766018,-0.03971443,0.41383982,1.4197973012924194,-1.7808674573898315,4.716979503631592,11.338675498962402,178.75741577148438, 6.563965320587158
666,2859794250,0.90801346,-0.072446294,-0.016842838,0.41228673,1.7981102466583252,-1.298034429550171,3.661619186401367,34.80506134033203,158.38858032226562, -0.3332008719444275
667,2859810917,0.90878963,-0.074150324,0.0040433276,0.41059458,0.7870991826057434,-1.2806754112243652,3.3473973274230957,48.301841735839844,137.36672973632812, -1.766575813293457
668,2859827584,0.9092686,-0.07478657,0.022070728,0.40884134,0.06543409824371338,-0.8819581270217896,3.044888973236084,46.79056930541992,116.5665512084961, -2.7436954975128174
669,2859844251,0.90956,-0.07511805,0.037230186,0.4070292,-0.6993335485458374,-0.5225072503089905,2.9302315711975098,40.57048797607422,97.85021209716797, -4.021096229553223
670,2859860918,0.9097188,-0.074586995,0.049372874,0.40547743,-1.5288677215576172,-1.0453510284423828,3.7675678730010986,37.397247314453125,76.45234680175781, -3.360766649246216
671,2859877585,0.9097823,-0.07255182,0.059185393,0.40438893,-2.3710403442382812,-0.6762649416923523,4.12160062789917,40.132225036621094,57.43680953979492, -0.8859841227531433
672,2859894252,0.9100015,-0.06807529,0.06699975,0.40345377,-2.3866422176361084,-1.4576258659362793,3.471641778945923,49.87724304199219,37.937984466552734, -0.3692633807659149
673,2859910919,0.910343,-0.06348591,0.07149887,0.40265855,-2.8490757942199707,-0.9360851049423218,3.890730619430542,41.429439544677734,16.686872482299805, -1.3279253244400024
674,2859927586,0.91079545,-0.057684038,0.07354939,0.4021388,-3.03564715385437,-1.044155240058899,3.3921124935150146,42.180992126464844,-2.25919508934021, -0.38079920411109924
675,2859944253,0.9113593,-0.050789107,0.07293623,0.40190303,-2.9841675758361816,-0.9322447776794434,2.836975574493408,41.59724044799805,-22.23030662536621, 0.5911265015602112
676,2859960920,0.9119791,-0.0437874,0.069679484,0.40189868,-2.588635206222534,-0.5051265954971313,4.3408966064453125,34.89796829223633,-39.30070114135742, 1.0247292518615723
677,2859977587,0.91242653,-0.03736437,0.06521811,0.4022802,-2.970665454864502,-0.7600573897361755,7.04513692855835,27.71912384033203,-45.36328125, 3.285968780517578
678,2859994254,0.9125986,-0.0314,0.060586467,0.40312272,-3.1772544384002686,-1.1423968076705933,8.294198989868164,24.117958068847656,-45.23215103149414, 6.696228981018066
679,2860010921,0.9124884,-0.026301896,0.05573038,0.40443546,-3.317657470703125,-1.480774164199829,8.489568710327148,17.84518814086914,-44.30270767211914, 10.028460502624512
680,2860027588,0.9122226,-0.022413243,0.05027434,0.40598115,-3.325728416442871,-1.8313186168670654,7.681435585021973,8.529050827026367,-44.774410247802734, 11.357111930847168
681,2860044255,0.91179985,-0.01934539,0.04478603,0.40772757,-3.335083484649658,-1.0611357688903809,7.069301605224609,3.27034854888916,-42.75978469848633, 12.77306079864502
682,2860060922,0.9111403,-0.013818603,0.040234018,0.40989554,-2.934519052505493,-2.297895669937134,4.11195182800293,21.187387466430664,-43.872802734375, 16.967350006103516
683,2860077589,0.9102974,-0.001436175,0.030094925,0.41285792,-1.9564381837844849,-1.9693007469177246,-17.790525436401367,48.244693756103516,-98.32445526123047, 23.838518142700195
684,2860094256,0.9086637,0.018767547,-0.0017016731,0.41710442,30.50847625732422,-0.8751118183135986,-23.84366226196289,35.513160705566406,-256.1121826171875, 35.53166961669922
685,2860110923,0.9061939,0.0429621,-0.034594767,0.41925052,2.290316104888916,11.074578285217285,22.33103370666504,57.418983459472656,-273.3014831542969, 24.836252212524414
686,2860127590,0.9011541,0.06021295,-0.06723851,0.42399943,7.472089767456055,-1.1203029155731201,1.3872004747390747,15.791707992553711,-251.52772521972656, 50.07640075683594
687,2860144257,0.89514136,0.08506563,-0.09544447,0.4270561,0.9363675713539124,-3.3329687118530273,-1.9343541860580444,75.52759552001953,-247.00830078125, 37.04806137084961
688,2860160924,0.88978326,0.10376115,-0.11802713,0.42847407,-0.9609131813049316,-0.05824223533272743,-0.05593782663345337,52.81486511230469,-194.7637939453125, 25.722549438476562
689,2860177591,0.8848954,0.115585454,-0.13590659,0.4302678,3.8380775451660156,-4.001246929168701,8.680704116821289,24.601110458374023,-145.13412475585938, 28.856563568115234
690,2860194258,0.8802574,0.122399345,-0.15308258,0.43212473,7.258091926574707,-1.7426403760910034,8.904510498046875,-3.7440433502197266,-125.70935821533203, 32.52973175048828
691,2860210925,0.87667483,0.12642896,-0.17040958,0.43176198,7.4659647941589355,0.6207225918769836,10.474103927612305,-24.165203094482422,-118.94695281982422, 18.956539154052734
