PacketCounter,SampleTimeFine,Quat_W,Quat_X,Quat_Y,Quat_Z,Acc_X,Acc_Y,Acc_Z,Gyr_X,Gyr_Y,Gyr_Z 
1,456436109,0.2885671,-0.62408566,-0.34057215,-0.641293,1.4428805112838745,0.043293774127960205,0.09595468640327454,-4.898489952087402,0.38039687275886536, -3.431459426879883
2,456452776,0.31975007,-0.61413664,-0.321592,-0.64589065,18.358741760253906,0.23836420476436615,-2.9664061069488525,53.591949462890625,290.15081787109375, 166.33834838867188
3,456469443,0.34751496,-0.61277515,-0.30319297,-0.6417276,19.209009170532227,-1.6090428829193115,-4.41545295715332,51.174957275390625,279.2316589355469, 165.60592651367188
4,456486110,0.37677297,-0.6170801,-0.28857905,-0.62767565,19.295602798461914,-2.3628528118133545,-5.451733589172363,99.61603546142578,263.0516357421875, 164.97344970703125
5,456502777,0.40686095,-0.6197863,-0.2811677,-0.60932267,18.76542091369629,-0.4911561608314514,-5.700058460235596,163.81756591796875,246.8744354248047, 154.51580810546875
6,456519444,0.43123323,-0.61612105,-0.2836366,-0.5949649,18.104705810546875,10.054826736450195,-5.0677595138549805,196.11178588867188,235.90708923339844, 120.68419647216797
7,456536111,0.42562467,-0.6129189,-0.29499897,-0.59678286,13.268454551696777,3.755478620529175,-10.449278831481934,55.785194396972656,192.16004943847656, 78.33303833007812
8,456552778,0.41241068,-0.6200443,-0.30978894,-0.59117967,9.50285816192627,6.099590301513672,-15.54074478149414,24.872591018676758,116.62098693847656, 68.25293731689453
9,456569445,0.3815432,-0.6405716,-0.32938126,-0.57931066,7.602822780609131,1.9750760793685913,-16.268306732177734,-50.07826614379883,17.915555953979492, 25.836088180541992
10,456586112,0.35154077,-0.6630416,-0.35936454,-0.55466396,10.201433181762695,3.2514166831970215,-15.044675827026367,19.987911224365234,-63.20060348510742, -12.656908988952637
11,456602779,0.3200052,-0.6849416,-0.3915949,-0.5245046,11.670814514160156,4.619848728179932,-11.199960708618164,33.83359146118164,-110.61599731445312, -37.412841796875
12,456619446,0.28908876,-0.7038049,-0.4223305,-0.49266964,13.107256889343262,2.5265674591064453,-9.458090782165527,39.8840446472168,-141.38450622558594, -44.300018310546875
13,456636113,0.26292437,-0.71879923,-0.45162433,-0.45851266,14.059919357299805,1.282478928565979,-8.801406860351562,68.1906509399414,-164.33926391601562, -47.48849105834961
14,456652780,0.24248146,-0.7303683,-0.47883284,-0.42247397,14.798158645629883,0.4968549609184265,-8.068592071533203,96.86393737792969,-178.81927490234375, -46.369441986083984
15,456669447,0.22549708,-0.74045557,-0.49787855,-0.39114434,16.652286529541016,-9.870058059692383,7.646418571472168,72.82952880859375,-160.0068817138672, -24.395923614501953
16,456686114,0.22553949,-0.74503803,-0.51097,-0.36463693,11.96487045288086,-6.519509315490723,15.581871032714844,119.7283706665039,-113.71598052978516, -4.763242244720459
17,456702781,0.22434838,-0.7474329,-0.5200933,-0.34715253,16.082822799682617,4.875163555145264,-0.9806573390960693,67.99800872802734,-110.82940673828125, -21.552724838256836
18,456719448,0.21905309,-0.74824196,-0.5293221,-0.33461627,17.697063446044922,4.0882697105407715,-2.006714344024658,39.122920989990234,-114.24722290039062, -37.59248352050781
19,456736115,0.2133981,-0.7487264,-0.53695446,-0.3248847,11.480133056640625,-2.7701010704040527,-0.7147946357727051,28.628782272338867,-111.5783920288086, -31.32004165649414
20,456752782,0.21688467,-0.74740475,-0.5453285,-0.3113906,10.616384506225586,-4.0143656730651855,-2.106485366821289,90.41693878173828,-99.72522735595703, -19.48192024230957
21,456769449,0.22403982,-0.7448669,-0.553942,-0.2968631,10.630234718322754,-2.6494967937469482,-1.0999081134796143,111.51579284667969,-91.11213684082031, -18.931421279907227
22,456786116,0.23085286,-0.74219257,-0.56128716,-0.28427783,10.078815460205078,-3.1508572101593018,-0.4962639808654785,98.168212890625,-82.57508850097656, -17.263029098510742
23,456802783,0.23684268,-0.7395244,-0.567342,-0.27410313,11.037798881530762,-0.7465817928314209,-0.8407993316650391,80.36913299560547,-73.0816879272461, -16.659000396728516
24,456819450,0.236647,-0.73818886,-0.5710222,-0.27020225,11.365255355834961,0.5660961270332336,0.27670493721961975,18.279319763183594,-65.45367431640625, -20.229909896850586
25,456836117,0.23385994,-0.7379368,-0.5728255,-0.26949966,10.57927131652832,-1.5806976556777954,0.5023909211158752,-11.396849632263184,-60.171958923339844, -15.28048038482666
26,456852784,0.23156798,-0.7376277,-0.57460016,-0.26854533,11.292553901672363,-0.45903515815734863,0.8752039074897766,-8.154376983642578,-60.2289924621582, -14.48779296875
27,456869451,0.22969785,-0.7370126,-0.57658654,-0.26758042,11.425829887390137,0.4617254436016083,1.3094627857208252,-4.6839728355407715,-59.48027420043945, -15.721260070800781
28,456886118,0.22685385,-0.7363973,-0.57870376,-0.26713008,10.936656951904297,0.7277303338050842,0.9481157660484314,-10.507269859313965,-61.906333923339844, -18.446788787841797
29,456902785,0.22096756,-0.73618776,-0.580245,-0.26928955,11.862811088562012,-0.00869685411453247,3.286722183227539,-37.04145812988281,-60.86843490600586, -23.2717227935791
30,456919452,0.21313702,-0.73681897,-0.5804467,-0.27340826,9.991961479187012,-1.9466288089752197,2.384589672088623,-57.98766326904297,-59.5760383605957, -20.187389373779297
31,456936119,0.20342839,-0.7379977,-0.58075213,-0.27695364,9.695247650146484,-2.2946739196777344,1.9587398767471313,-66.26324462890625,-70.97655487060547, -22.63203239440918
32,456952786,0.19363046,-0.73942673,-0.5816218,-0.27833718,9.088264465332031,-2.745948076248169,2.273353338241577,-57.841224670410156,-82.99312591552734, -23.05375099182129
33,456969453,0.18451053,-0.7410884,-0.5832217,-0.27676064,9.324760437011719,-2.7649497985839844,1.5046600103378296,-42.08003616333008,-96.01261901855469, -21.80918312072754
34,456986120,0.17621408,-0.7430541,-0.5856485,-0.2717266,9.280129432678223,-2.9247145652770996,1.1247482299804688,-23.41399574279785,-111.10602569580078, -19.692718505859375
35,457002787,0.16969736,-0.7449738,-0.5889148,-0.263432,9.48720645904541,-2.0790505409240723,0.5331177711486816,-0.1958961933851242,-120.64107513427734, -17.360057830810547
36,457019454,0.16363803,-0.74685955,-0.59276044,-0.25309813,9.764230728149414,-0.7505747079849243,-0.19208447635173798,11.180569648742676,-128.98558044433594, -17.188846588134766
37,457036121,0.15713835,-0.7486559,-0.5968553,-0.24204445,10.318415641784668,-0.21173962950706482,0.2046358585357666,12.538028717041016,-133.7534637451172, -18.33209228515625
38,457052788,0.15030676,-0.7505082,-0.60062873,-0.23106386,11.242447853088379,-0.6800112128257751,-0.4184936583042145,10.239127159118652,-133.97671508789062, -16.549076080322266
39,457069455,0.14252928,-0.75239724,-0.6038426,-0.22126465,11.992332458496094,0.15790103375911713,-0.3681243062019348,-0.3183085322380066,-130.9407196044922, -15.949070930480957
40,457086122,0.13177808,-0.7545077,-0.6060613,-0.21457474,12.270798683166504,0.8751723170280457,-0.3428754210472107,-29.972373962402344,-126.4625244140625, -17.30293846130371
41,457102789,0.11719767,-0.75717103,-0.60674053,-0.2117138,12.374696731567383,0.646595299243927,0.7050306797027588,-68.02609252929688,-121.9130859375, -16.35021209716797
42,457119456,0.10013656,-0.75980425,-0.6065128,-0.21168962,13.146727561950684,0.7361000776290894,1.56502103805542,-93.63764953613281,-116.76746368408203, -18.346925735473633
43,457136123,0.0817719,-0.76193875,-0.6062127,-0.21276458,14.630805969238281,0.23501767218112946,2.501272439956665,-104.33846282958984,-115.95653533935547, -23.676010131835938
44,457152790,0.063143976,-0.7636916,-0.60589135,-0.2137378,15.35224437713623,-0.09261418879032135,3.5235371589660645,-104.76997375488281,-117.64580535888672, -26.688695907592773
45,457169457,0.043560885,-0.76525444,-0.6053909,-0.21445356,16.16954803466797,-0.4198436737060547,2.92667293548584,-108.62094116210938,-123.36927032470703, -29.174848556518555
46,457186124,0.023233179,-0.7665953,-0.60477,-0.21458142,16.61919593811035,-1.8239057064056396,4.867045879364014,-110.06472778320312,-129.89163208007812, -31.856767654418945
47,457202791,0.003530986,-0.7681635,-0.6036151,-0.21345092,15.365875244140625,-4.839712619781494,5.659652233123779,-102.49556732177734,-134.97377014160156, -28.570892333984375
48,457219458,-0.016669922,-0.76955324,-0.6015664,-0.21360697,14.503030776977539,-6.885322570800781,8.589530944824219,-112.55716705322266,-130.3838653564453, -27.082271575927734
49,457236125,-0.042863127,-0.77026975,-0.59681624,-0.22058517,13.757827758789062,-10.515141487121582,5.699555397033691,-177.49456787109375,-118.52887725830078, -25.81294822692871
50,457252792,-0.06922861,-0.77024704,-0.592326,-0.22600177,15.28479290008545,-10.58047103881836,-2.690828561782837,-173.54696655273438,-125.76543426513672, -33.559505462646484
51,457269459,-0.09082174,-0.77060527,-0.58723,-0.23039094,14.145541191101074,-7.987518787384033,-6.353306293487549,-147.0327911376953,-111.8434066772461, -24.173498153686523
52,457286126,-0.11166674,-0.76867014,-0.58300185,-0.23829813,18.594392776489258,-2.947086811065674,-3.6523830890655518,-159.07330322265625,-84.80453491210938, -36.49516677856445
53,457302793,-0.111741625,-0.76737463,-0.5831439,-0.2420608,6.432981967926025,-12.687387466430664,7.156866073608398,-25.306278228759766,-21.2181339263916, -27.44709014892578
54,457319460,-0.09945558,-0.76715213,-0.5832809,-0.24772894,5.000542640686035,-2.7451462745666504,6.938509941101074,32.3853759765625,37.41682815551758, -0.787712574005127
55,457336127,-0.087954186,-0.7654264,-0.5808659,-0.26264313,5.787726402282715,-0.0037523661740124226,2.914320468902588,-13.22040843963623,84.83746337890625, 12.377901077270508
56,457352794,-0.07235514,-0.7637019,-0.5759743,-0.28244942,5.974130153656006,-1.5395021438598633,2.068441390991211,-14.581275939941406,126.60222625732422, 36.19132614135742
57,457369461,-0.05152482,-0.7619056,-0.56861347,-0.305817,5.348354339599609,-2.019773244857788,2.678421974182129,-5.320972442626953,166.03396606445312, 61.08308410644531
58,457386128,-0.025516603,-0.76013273,-0.5582889,-0.33145276,5.6959638595581055,-3.5206515789031982,1.9989123344421387,7.32781457901001,198.0976104736328, 88.73644256591797
59,457402795,0.0066709695,-0.75822926,-0.5453514,-0.3572617,6.777227401733398,-2.7839090824127197,1.9617700576782227,33.23799514770508,223.4427947998047, 116.35391235351562
60,457419462,0.04077669,-0.7558026,-0.5291285,-0.38356617,8.972956657409668,-2.390967607498169,0.6327638626098633,34.32413101196289,240.08377075195312, 139.56105041503906
61,457436129,0.07843845,-0.7520631,-0.51185006,-0.40774757,11.130138397216797,-1.4504932165145874,-0.5986930727958679,59.709896087646484,255.48953247070312, 156.3274688720703
62,457452796,0.117883176,-0.7468106,-0.4932905,-0.43016538,12.44254207611084,-0.7371318340301514,-1.1436148881912231,73.66675567626953,265.5757751464844, 168.63394165039062
63,457469463,0.15885223,-0.7397177,-0.47387633,-0.45058298,14.131921768188477,0.5629590153694153,-1.6484144926071167,88.05876159667969,271.5583190917969, 176.02828979492188
64,457486130,0.19997437,-0.729743,-0.4539136,-0.47058254,16.093374252319336,2.2735676765441895,-1.8596675395965576,92.12216186523438,282.18682861328125, 172.07632446289062
65,457502797,0.2385474,-0.717729,-0.43222746,-0.49105987,16.643390655517578,1.667243480682373,-2.1253819465637207,75.32676696777344,287.0453186035156, 166.37527465820312
66,457519464,0.2752024,-0.7040938,-0.40918308,-0.5109647,17.551170349121094,0.5214874148368835,-2.40582013130188,65.7488021850586,287.0193176269531, 163.18849182128906
67,457536131,0.31001118,-0.6895553,-0.38515675,-0.52920794,18.427570343017578,-0.20016324520111084,-3.148768901824951,59.785213470458984,279.2607727050781, 162.28887939453125
68,457552798,0.3444826,-0.67347807,-0.3625408,-0.5443559,18.76813316345215,-1.2778234481811523,-4.0713419914245605,74.83537292480469,266.5523986816406, 157.01397705078125
69,457569465,0.38203934,-0.65419227,-0.3443723,-0.5545146,18.72138214111328,-1.4198640584945679,-5.018583297729492,125.828125,252.7986297607422, 151.85519409179688
70,457586132,0.42271683,-0.6297856,-0.33320373,-0.56005013,18.427509307861328,4.70615816116333,-5.120789051055908,190.96713256835938,240.6734161376953, 132.3328399658203
71,457602799,0.44934922,-0.6082971,-0.32084438,-0.57019204,16.335399627685547,7.567153453826904,-6.276916027069092,106.48097229003906,220.72900390625, 76.76239013671875
72,457619466,0.46623892,-0.59585655,-0.30706772,-0.57730895,10.863036155700684,3.494737386703491,-13.478249549865723,38.86261749267578,155.5544891357422, 73.87235260009766
73,457636133,0.46740064,-0.5953994,-0.29426396,-0.58347654,7.921895980834961,5.148242950439453,-15.341233253479004,-58.134857177734375,67.89906311035156, 35.80491256713867
74,457652800,0.46206367,-0.60077375,-0.2916233,-0.58354425,9.351377487182617,0.8906345367431641,-15.311172485351562,-50.19532012939453,-26.202239990234375, -0.4242023229598999
75,457669467,0.45551223,-0.60668534,-0.300448,-0.57807666,11.248387336730957,4.4921674728393555,-12.411280632019043,0.19537365436553955,-89.99978637695312, -34.008548736572266
76,457686134,0.44674706,-0.61473405,-0.31299976,-0.5696934,12.66218090057373,3.293344736099243,-9.893431663513184,5.007467746734619,-126.84304809570312, -44.794883728027344
77,457702801,0.4379992,-0.6230517,-0.32916617,-0.558223,14.140357971191406,2.3774728775024414,-8.565499305725098,25.196155548095703,-152.03062438964844, -49.93071365356445
78,457719468,0.43068835,-0.6302196,-0.34928474,-0.54344374,14.920598030090332,1.2924715280532837,-8.473026275634766,57.38251495361328,-170.43209838867188, -53.98931121826172
79,457736135,0.42359993,-0.6377361,-0.36679155,-0.5285072,16.929340362548828,-7.676101207733154,1.921068549156189,47.921661376953125,-164.14730834960938, -40.54498291015625
80,457752802,0.42419863,-0.64137805,-0.38110912,-0.5132694,12.498245239257812,-11.688340187072754,13.649598121643066,82.11752319335938,-122.82193756103516, -7.605471134185791
81,457769469,0.4221185,-0.64503056,-0.39466923,-0.49998778,14.219778060913086,1.977278709411621,1.916797399520874,62.416019439697266,-119.23289489746094, -19.498348236083984
82,457786136,0.41654533,-0.6490367,-0.40797284,-0.48867112,17.228116989135742,2.63634991645813,-3.3770246505737305,39.70847702026367,-120.51919555664062, -35.075313568115234
83,457802803,0.40792304,-0.6545645,-0.41922098,-0.4789551,13.017269134521484,-1.0157173871994019,-1.3100773096084595,10.35899829864502,-121.15070343017578, -36.420692443847656
84,457819470,0.40408382,-0.6575981,-0.4314304,-0.46706417,10.31783676147461,-3.94547963142395,-2.0754823684692383,48.31481170654297,-111.64952087402344, -26.089378356933594
85,457836137,0.4047477,-0.6576092,-0.44546583,-0.45308903,10.429759979248047,-1.6772499084472656,-1.693388819694519,89.10972595214844,-103.08732604980469, -23.089969635009766
86,457852804,0.40587658,-0.65676755,-0.45844442,-0.4401698,9.792877197265625,-2.028611183166504,-0.0063931867480278015,87.06196594238281,-91.2998046875, -22.421142578125
87,457869471,0.407236,-0.65569264,-0.46983886,-0.42834276,10.689643859863281,-1.7204452753067017,-0.18965119123458862,80.51006317138672,-80.53947448730469, -18.360698699951172
88,457886138,0.40500477,-0.6561703,-0.47854283,-0.42001024,11.583084106445312,1.053227186203003,0.483122318983078,40.756771087646484,-73.44712829589844, -21.577016830444336
89,457902805,0.39896962,-0.6590968,-0.4836262,-0.415356,10.380758285522461,-1.1602838039398193,0.11026442795991898,-5.775542736053467,-66.3892593383789, -18.390533447265625
90,457919472,0.3925116,-0.662518,-0.488049,-0.4108682,10.529532432556152,-1.6753551959991455,-0.05883239954710007,-11.490564346313477,-66.66487884521484, -15.419220924377441
91,457936139,0.38530636,-0.66587454,-0.49298164,-0.40634876,11.206482887268066,-0.5936568379402161,1.104457139968872,-13.18210220336914,-70.53026580810547, -19.990461349487305
92,457952806,0.37806082,-0.66894746,-0.49861124,-0.4012059,10.634549140930176,-0.7680644989013672,0.9109697341918945,-8.556760787963867,-74.61018371582031, -22.600048065185547
93,457969473,0.37063932,-0.6717998,-0.50475955,-0.3956382,10.420611381530762,-1.1229636669158936,0.6583603620529175,-5.908196449279785,-77.93582916259766, -25.122352600097656
94,457986140,0.36168608,-0.6749939,-0.51051456,-0.39107743,11.390229225158691,-1.0998889207839966,1.961516261100769,-18.418745040893555,-78.55486297607422, -28.85731315612793
95,458002807,0.3515767,-0.6790382,-0.5147304,-0.38775462,10.521512985229492,-2.7018446922302246,1.7008737325668335,-34.38460922241211,-75.36998748779297, -24.92325782775879
96,458019474,0.34039664,-0.6834207,-0.51905936,-0.38424447,10.074258804321289,-1.6735434532165527,1.26435124874115,-39.249183654785156,-81.24393463134766, -26.678081512451172
97,458036141,0.3286502,-0.68801916,-0.52384275,-0.37974676,9.548383712768555,-2.4009482860565186,1.435225009918213,-37.69646072387695,-89.5676040649414, -27.237789154052734
98,458052808,0.3173152,-0.6926514,-0.5294099,-0.3731898,9.597746849060059,-2.7107698917388916,0.8953823447227478,-26.36980628967285,-99.71421813964844, -25.115745544433594
99,458069475,0.30704388,-0.69699955,-0.5358241,-0.36442846,9.73387336730957,-2.0738914012908936,0.4974522292613983,-10.494933128356934,-107.4839096069336, -22.664255142211914
100,458086142,0.29709518,-0.7011482,-0.5431546,-0.35370743,9.69716739654541,-1.2993566989898682,0.17494641244411469,0.9744648337364197,-117.14434051513672, -22.849544525146484
101,458102809,0.2876554,-0.70512134,-0.5510266,-0.34121552,9.891833305358887,-1.032321810722351,-0.039991945028305054,11.714344024658203,-124.48229217529297, -21.258874893188477
102,458119476,0.27795717,-0.7090427,-0.5589467,-0.32798904,10.7201566696167,-0.211488276720047,-1.354232907295227,13.461797714233398,-129.02247619628906, -20.841041564941406
103,458136143,0.26677305,-0.713214,-0.5661361,-0.31567037,11.63426399230957,0.2310437709093094,-0.8559750914573669,0.610778272151947,-129.49472045898438, -21.39557456970215
104,458152810,0.25398377,-0.7180401,-0.5717188,-0.30503842,11.9028959274292,-0.2878968417644501,-0.9423543810844421,-18.50762176513672,-125.98377227783203, -17.535512924194336
105,458169477,0.23975724,-0.723321,-0.5760199,-0.29584536,11.731257438659668,-0.17002569139003754,-0.8235315084457397,-34.7366828918457,-123.28858947753906, -14.950919151306152
106,458186144,0.22325222,-0.729107,-0.57886314,-0.28892753,12.255791664123535,0.5821753740310669,-0.6673120260238647,-58.879981994628906,-119.66761016845703, -14.086034774780273
107,458202811,0.20402338,-0.73515445,-0.58028,-0.28495178,13.035307884216309,1.463099718093872,0.48346972465515137,-87.4644775390625,-114.14543151855469, -15.835115432739258
108,458219478,0.18288997,-0.74112463,-0.5807004,-0.2829718,14.117348670959473,1.0025359392166138,1.125931739807129,-106.8863296508789,-110.18341827392578, -17.64390754699707
109,458236145,0.16155855,-0.7463946,-0.5809735,-0.281538,15.072389602661133,0.8415205478668213,2.174588203430176,-109.47416687011719,-106.73677825927734, -20.77926254272461
110,458252812,0.13903186,-0.7510916,-0.58141375,-0.2801599,16.463850021362305,0.19943831861019135,0.9272102117538452,-114.85806274414062,-110.41419219970703, -26.342010498046875
111,458269479,0.11546509,-0.755343,-0.5818706,-0.27848062,16.771028518676758,-2.098749876022339,3.9871792793273926,-118.5683822631836,-115.39894104003906, -29.972332000732422
112,458286146,0.09192459,-0.75939685,-0.5819819,-0.27597767,15.67654037475586,-4.64962100982666,5.256899833679199,-115.66078186035156,-119.05966186523438, -28.34316635131836
113,458302813,0.069331035,-0.763038,-0.58196634,-0.2725464,15.181112289428711,-7.835170745849609,6.618926525115967,-107.02574157714844,-119.38460540771484, -27.048376083374023
114,458319480,0.048059005,-0.7660745,-0.58112663,-0.27039242,14.126716613769531,-10.5684232711792,8.966350555419922,-106.54155731201172,-106.00078582763672, -23.386966705322266
115,458336147,0.027013047,-0.7681458,-0.57995695,-0.2699488,12.514420509338379,-9.372928619384766,2.6705901622772217,-112.5842514038086,-94.31500244140625, -25.774324417114258
116,458352814,0.0036025515,-0.7689579,-0.579355,-0.27025688,14.360136985778809,-4.983227252960205,-3.7590274810791016,-126.88117218017578,-97.59367370605469, -38.43570327758789
117,458369481,-0.021628834,-0.7694744,-0.576125,-0.27481207,18.004287719726562,-2.9000964164733887,-6.621506690979004,-158.36709594726562,-81.8037338256836, -29.305206298828125
118,458386148,-0.035814617,-0.7681022,-0.57565147,-0.27814037,10.49196720123291,-11.180158615112305,0.626945972442627,-90.17644500732422,-40.623252868652344, -30.777515411376953
119,458402815,-0.030119972,-0.7660595,-0.57960945,-0.27622196,5.936531066894531,-4.682711124420166,4.323397159576416,43.78846740722656,12.694219589233398, -20.18735122680664
120,458419482,-0.019548902,-0.7632986,-0.58146,-0.280887,5.928330898284912,-0.5247159004211426,4.200545310974121,39.11288833618164,67.76394653320312, -1.2670491933822632
121,458436149,-0.009558076,-0.7600366,-0.57925797,-0.29447177,6.280032634735107,0.09182852506637573,2.5634472370147705,-7.375441551208496,112.79568481445312, 18.14620018005371
122,458452816,-0.0006013879,-0.75675917,-0.57260495,-0.3153396,6.522186756134033,-2.1259710788726807,2.0387465953826904,-50.71167755126953,146.62490844726562, 39.8124885559082
123,458469483,0.012243308,-0.753879,-0.5624119,-0.33942497,6.7375898361206055,-4.423763275146484,1.3210021257400513,-50.775184631347656,177.95155334472656, 68.29427337646484
124,458486150,0.03307035,-0.7516536,-0.55052626,-0.36172384,7.058586120605469,-4.690072059631348,0.2385493367910385,-6.479403972625732,198.31015014648438, 98.41919708251953
125,458502817,0.060232256,-0.7494115,-0.53690916,-0.3827309,8.26386547088623,-2.809110164642334,0.5456187725067139,26.85187530517578,216.16551208496094, 123.40242004394531
126,458519484,0.091664866,-0.7464074,-0.5214399,-0.40320492,9.872230529785156,-1.413767695426941,-0.5492745637893677,46.29231262207031,232.04437255859375, 141.64511108398438
127,458536151,0.12647414,-0.74223584,-0.50457495,-0.4224859,10.542582511901855,-0.6506888270378113,-1.2169337272644043,64.79330444335938,242.21090698242188, 154.7899932861328
128,458552818,0.16419244,-0.7364603,-0.486731,-0.44018203,11.611289978027344,-0.13321556150913239,-1.5823092460632324,83.7153549194336,249.78466796875, 164.10675048828125
129,458569485,0.20353894,-0.7285212,-0.46771574,-0.45724267,13.405973434448242,1.38839852809906,-2.0244016647338867,93.01078033447266,259.9367980957031, 168.49464416503906
130,458586152,0.24141179,-0.7186531,-0.44627157,-0.47549957,14.302628517150879,1.4505053758621216,-2.0063397884368896,76.85164642333984,270.6922912597656, 168.21473693847656
131,458602819,0.27786013,-0.70724684,-0.42245123,-0.49409586,15.272506713867188,0.3127683997154236,-2.5530428886413574,63.579322814941406,277.0100402832031, 170.06509399414062
132,458619486,0.3137022,-0.69369286,-0.3973041,-0.51237756,17.068885803222656,0.6590179204940796,-2.879092216491699,61.14342498779297,283.5964660644531, 168.8607940673828
133,458636153,0.3481611,-0.6784475,-0.37151587,-0.52959317,18.150165557861328,-0.5389254093170166,-3.592644214630127,58.84888458251953,282.1177062988281, 164.76705932617188
134,458652820,0.38283375,-0.6612239,-0.34758356,-0.5435138,18.665912628173828,-1.052202582359314,-4.312344551086426,79.76493072509766,270.10382080078125, 159.75302124023438
135,458669487,0.41801894,-0.6415393,-0.3277851,-0.55339384,18.965421676635742,-0.9849976301193237,-4.804636001586914,113.67588806152344,251.34149169921875, 147.65936279296875
136,458686154,0.45530877,-0.61638176,-0.31464365,-0.56014913,19.27109146118164,5.53653621673584,-4.6418843269348145,171.08995056152344,244.0866241455078, 122.98942565917969
137,458702821,0.47934884,-0.5965172,-0.29861197,-0.57028306,16.78618049621582,3.2865757942199707,-7.21798038482666,79.80022430419922,218.48594665527344, 85.16897583007812
138,458719488,0.49514094,-0.58453625,-0.2828083,-0.57721084,12.652192115783691,5.943477153778076,-13.15347671508789,27.553119659423828,156.82655334472656, 78.7190170288086
139,458736155,0.4956765,-0.58519804,-0.26788604,-0.58316827,8.687292098999023,4.728575229644775,-15.220500946044922,-71.41352844238281,70.27583312988281, 42.60187530517578
140,458752822,0.49177924,-0.5894403,-0.2665219,-0.5828201,9.995372772216797,1.7324703931808472,-15.208152770996094,-35.40764236450195,-23.641006469726562, -1.5670846700668335
141,458769489,0.48602396,-0.5952867,-0.27641264,-0.5770709,11.549223899841309,2.504197359085083,-12.544757843017578,6.754720687866211,-93.26631164550781, -33.38297653198242
142,458786156,0.4787837,-0.603167,-0.29119894,-0.5675906,13.281328201293945,1.4615917205810547,-9.356931686401367,20.473587036132812,-135.6764678955078, -42.94489288330078
143,458802823,0.4715104,-0.610762,-0.31033722,-0.5552826,14.603315353393555,2.2304322719573975,-7.286053657531738,43.7401123046875,-160.56080627441406, -52.39382553100586
144,458819490,0.46426913,-0.6175194,-0.33224925,-0.54104936,14.124750137329102,2.2497146129608154,-6.451895236968994,61.43294906616211,-174.36619567871094, -59.438880920410156
145,458836157,0.45672706,-0.6240422,-0.35357627,-0.5262659,13.88357162475586,0.6187435984611511,-4.060691833496094,59.985015869140625,-174.62440490722656, -56.84453201293945
146,458852824,0.4514345,-0.62931573,-0.37000313,-0.5130949,12.93807315826416,-7.120572566986084,7.657827377319336,51.87916564941406,-142.33460998535156, -35.789710998535156
147,458869491,0.4514415,-0.63177764,-0.38278106,-0.5005361,8.998881340026855,-5.156949996948242,7.105657577514648,69.110107421875,-105.16260528564453, -10.475234031677246
148,458886158,0.44878352,-0.63443416,-0.39297944,-0.49158296,13.217065811157227,2.248810291290283,-1.4683595895767212,38.532779693603516,-89.3504867553711, -19.204925537109375
149,458902825,0.44515836,-0.636741,-0.40369204,-0.48314384,16.412473678588867,0.5474807620048523,-1.2229578495025635,35.75352478027344,-90.16178894042969, -27.21022605895996
150,458919492,0.441196,-0.63915795,-0.413537,-0.47519535,12.86876392364502,-1.5889025926589966,0.4819384515285492,29.695539474487305,-86.70379638671875, -25.707122802734375
151,458936159,0.4404347,-0.6401175,-0.4235049,-0.46573648,11.389720916748047,-3.811213493347168,-1.300594687461853,52.87263870239258,-79.91668701171875, -15.370304107666016
152,458952826,0.44242707,-0.6389474,-0.43509442,-0.4546399,11.67041301727295,-2.3119797706604004,-0.785855770111084,81.38851165771484,-77.22994995117188, -14.980415344238281
153,458969493,0.4444845,-0.63677716,-0.4472148,-0.4437876,11.041521072387695,-0.7227960824966431,-0.598837673664093,85.6326904296875,-74.4896240234375, -20.86728858947754
154,458986160,0.4446819,-0.63505125,-0.45807305,-0.43489885,10.62926959991455,-0.295433908700943,0.46073758602142334,66.23767852783203,-69.14979553222656, -25.651504516601562
155,459002827,0.4420149,-0.6353843,-0.4662732,-0.42836788,10.370431900024414,-1.5394927263259888,0.4417343735694885,32.0588493347168,-65.96013641357422, -23.32818603515625
156,459019494,0.436041,-0.6376848,-0.47285533,-0.42383295,10.553489685058594,-1.918982982635498,0.9092771410942078,0.4574322998523712,-68.77249145507812, -25.76835060119629
157,459036161,0.4299026,-0.6402664,-0.4794217,-0.41880497,10.392203330993652,-2.55068302154541,1.0162897109985352,0.4355720579624176,-72.30272674560547, -23.800870895385742
158,459052828,0.42411786,-0.6423429,-0.48695824,-0.41278514,10.413595199584961,-1.2133111953735352,0.6306951642036438,9.529512405395508,-76.97727966308594, -25.808835983276367
159,459069495,0.41771162,-0.6445628,-0.49500704,-0.40623137,11.075080871582031,-1.1161376237869263,0.9667952656745911,9.610886573791504,-83.37279510498047, -27.80373764038086
160,459086162,0.41012973,-0.6474138,-0.5017513,-0.40111664,11.77641773223877,-1.1786291599273682,3.156287431716919,-5.962246417999268,-79.07674407958984, -27.29088020324707
161,459102829,0.4009547,-0.6514687,-0.50714904,-0.39701846,10.543352127075195,-1.1717301607131958,1.3692610263824463,-23.680517196655273,-79.6768569946289, -24.408613204956055
162,459119496,0.38908944,-0.6568297,-0.5120923,-0.3936312,9.74677848815918,-1.5281938314437866,2.104653835296631,-43.054683685302734,-88.25312805175781, -27.132265090942383
163,459136163,0.37738183,-0.6622768,-0.51722383,-0.38916868,9.71299934387207,-1.9888551235198975,1.016859531402588,-38.293235778808594,-93.36385345458984, -24.391210556030273
164,459152830,0.36565956,-0.6675094,-0.5231416,-0.38346753,9.968295097351074,-0.931538999080658,0.44701099395751953,-31.299915313720703,-100.5789794921875, -25.58617401123047
165,459169497,0.3536652,-0.67262286,-0.52987176,-0.37647763,9.520862579345703,-0.6762005090713501,0.24239994585514069,-25.47667121887207,-109.25238800048828, -27.226560592651367
166,459186164,0.34208795,-0.6776236,-0.5373624,-0.3674836,9.445653915405273,-1.429235816001892,0.4549749493598938,-14.001032829284668,-118.60526275634766, -25.20581817626953
167,459202831,0.33163634,-0.6821082,-0.5454992,-0.35661826,9.816096305847168,-1.2552391290664673,-0.2924090325832367,0.9955569505691528,-123.43611145019531, -22.891721725463867
168,459219498,0.32164505,-0.68615025,-0.55391043,-0.3448556,10.83271598815918,-0.6261550188064575,-1.1581664085388184,8.195389747619629,-125.50777435302734, -22.67091178894043
169,459236165,0.31047872,-0.69053465,-0.56125855,-0.3342963,11.290888786315918,-0.019565077498555183,-0.8100451231002808,-5.209268569946289,-122.81635284423828, -21.796001434326172
170,459252832,0.2970707,-0.69596094,-0.56661135,-0.32609645,11.342225074768066,-0.5354747772216797,-0.6268366575241089,-31.760906219482422,-118.46849822998047, -18.489938735961914
171,459269499,0.2821422,-0.7021187,-0.5703676,-0.3195406,11.44663143157959,-0.45121103525161743,-0.7800138592720032,-50.520172119140625,-114.98126220703125, -14.776057243347168
172,459286166,0.2656286,-0.7087509,-0.57277596,-0.31470844,11.967561721801758,0.3723991811275482,0.06374365091323853,-68.81358337402344,-111.38512420654297, -13.255186080932617
173,459302833,0.24737403,-0.7156563,-0.57389283,-0.31191203,12.72248363494873,1.1177347898483276,-0.00328141450881958,-88.60651397705078,-106.66036987304688, -13.385753631591797
174,459319500,0.22780491,-0.72218966,-0.57496697,-0.30977428,13.089130401611328,0.8740977644920349,1.3009064197540283,-97.1129150390625,-107.85469055175781, -18.60561180114746
175,459336167,0.208604,-0.7279696,-0.5764614,-0.30698085,13.908668518066406,0.5265641212463379,1.4678940773010254,-90.6061019897461,-108.85578918457031, -21.88985252380371
176,459352834,0.18868843,-0.7331666,-0.5783739,-0.30388707,14.791254997253418,-0.1876688003540039,2.080399990081787,-91.26421356201172,-112.7259292602539, -27.418588638305664
177,459369501,0.16853899,-0.73802567,-0.58029413,-0.30028582,15.402608871459961,-2.144408941268921,3.059842586517334,-89.97357940673828,-115.70758819580078, -28.696640014648438
178,459386168,0.14804831,-0.742876,-0.58190536,-0.2959789,15.337199211120605,-4.667025566101074,4.0062408447265625,-89.54682159423828,-120.4891586303711, -27.156980514526367
179,459402835,0.12805977,-0.7474323,-0.58330834,-0.29102775,14.884507179260254,-8.20592212677002,5.6985931396484375,-84.6039810180664,-121.18844604492188, -25.73003578186035
180,459419502,0.10752617,-0.7516288,-0.5835206,-0.28809035,15.031566619873047,-9.878323554992676,7.205453872680664,-97.6754379272461,-111.46885681152344, -24.095550537109375
181,459436169,0.08279651,-0.75497514,-0.5828592,-0.28884682,14.326340675354004,-7.933794021606445,1.9743359088897705,-135.4196014404297,-107.05320739746094, -34.239280700683594
182,459452836,0.05618171,-0.75745726,-0.58202714,-0.29042518,15.226984024047852,-6.531457424163818,-3.60530686378479,-148.45089721679688,-108.55587005615234, -41.184059143066406
183,459469503,0.0332248,-0.7594311,-0.58037233,-0.29211026,15.9312162399292,-4.251955509185791,-4.96726131439209,-131.35183715820312,-91.96726989746094, -31.79412841796875
184,459486170,0.011721301,-0.7589537,-0.5786388,-0.29837787,13.643533706665039,-8.013131141662598,-0.6545979380607605,-141.68661499023438,-57.22431945800781, -39.38029479980469
185,459502837,0.01274255,-0.75702775,-0.58154225,-0.2975827,5.565657615661621,-8.191506385803223,6.26747989654541,13.533251762390137,-1.8179553747177124, -22.61849021911621
186,459519504,0.020654345,-0.75488406,-0.5818662,-0.3019198,6.875367641448975,-0.8079949021339417,6.757687568664551,23.619888305664062,53.21725845336914, 3.628626823425293
187,459536171,0.026125524,-0.75217885,-0.5774345,-0.31640783,7.2721147537231445,0.07269895821809769,4.30717658996582,-39.33431625366211,98.06414031982422, 19.631221771240234
188,459552838,0.032745115,-0.74953455,-0.5685332,-0.33748484,7.388497829437256,-2.86405873298645,2.410714864730835,-69.189697265625,137.4842529296875, 44.34613037109375
189,459569505,0.045155346,-0.7472121,-0.55638087,-0.36065987,7.015961170196533,-4.994013786315918,2.195030450820923,-55.13328170776367,171.0373992919922, 75.33143615722656
190,459586172,0.06608536,-0.7450946,-0.54243815,-0.38239774,7.080158233642578,-4.458632946014404,1.9103724956512451,-10.366189002990723,196.40318298339844, 106.8873062133789
191,459602839,0.09248096,-0.7427961,-0.5262687,-0.40341356,8.245712280273438,-2.854029417037964,1.2360903024673462,14.560150146484375,214.66973876953125, 132.33734130859375
192,459619506,0.124881856,-0.73933274,-0.5088778,-0.42288896,9.660587310791016,-2.1038379669189453,-0.17041072249412537,48.180152893066406,232.61671447753906, 152.03871154785156
193,459636173,0.16263255,-0.7337319,-0.4908195,-0.4407772,11.10889720916748,-0.9092177748680115,-1.0956144332885742,80.84610748291016,250.12095642089844, 164.9282989501953
194,459652840,0.20329072,-0.72591645,-0.47144872,-0.457662,12.844931602478027,0.22669366002082825,-1.5786628723144531,97.42488861083984,263.10791015625, 174.08082580566406
195,459669507,0.24471888,-0.7160859,-0.45008156,-0.4740888,14.54813289642334,0.7582707405090332,-1.8127390146255493,99.30264282226562,272.4967346191406, 180.66387939453125
196,459686174,0.28573632,-0.70355934,-0.42728755,-0.49069777,16.015586853027344,1.7141603231430054,-2.470029592514038,96.62933349609375,283.3592529296875, 177.78106689453125
197,459702841,0.32407802,-0.6894377,-0.40211624,-0.5078892,16.898805618286133,0.6445489525794983,-2.584463119506836,77.0843734741211,288.4253234863281, 174.52371215820312
198,459719508,0.36139187,-0.6737392,-0.37560165,-0.5238272,18.001331329345703,-1.0644451379776,-2.9955410957336426,74.53141021728516,288.2120056152344, 175.81161499023438
199,459736175,0.39875844,-0.65568835,-0.34979907,-0.53731287,19.249292373657227,-1.0450190305709839,-3.3104472160339355,89.48893737792969,283.7833557128906, 172.7884063720703
200,459752842,0.43601775,-0.63481617,-0.32612693,-0.54821366,19.846439361572266,-0.49005767703056335,-4.271005630493164,110.88738250732422,276.5529479980469, 163.1576690673828
201,459769509,0.47515348,-0.6094959,-0.30734774,-0.55523103,19.640518188476562,1.9209070205688477,-4.6051225662231445,159.57691955566406,266.0582580566406, 150.6471710205078
202,459786176,0.5060838,-0.5832163,-0.29068166,-0.5650154,18.567359924316406,8.445832252502441,-4.539694309234619,130.4959716796875,257.23309326171875, 99.51448822021484
203,459802843,0.5288216,-0.5638206,-0.2732234,-0.5725411,14.596417427062988,2.7083845138549805,-11.435103416442871,74.96697235107422,208.01651000976562, 92.67647552490234
204,459819510,0.5389457,-0.5553107,-0.25732866,-0.57874846,9.705265045166016,8.50432300567627,-15.318603515625,-4.667101860046387,130.90060424804688, 62.335052490234375
205,459836177,0.5380603,-0.5574318,-0.24885264,-0.5812344,6.826645851135254,3.095249891281128,-16.43902587890625,-50.08877944946289,27.804073333740234, 22.937786102294922
206,459852844,0.5359715,-0.5602126,-0.25633767,-0.5772241,10.095015525817871,4.099834442138672,-14.723011016845703,18.07734489440918,-60.596763610839844, -17.745235443115234
207,459869511,0.53138095,-0.5650741,-0.2706542,-0.57015073,11.629256248474121,4.1135077476501465,-10.95190143585205,33.39670181274414,-109.96416473388672, -38.93287658691406
208,459886178,0.5261869,-0.570688,-0.2888134,-0.56038326,13.26257038116455,2.5303821563720703,-9.245664596557617,48.362430572509766,-138.31634521484375, -44.922393798828125
209,459902845,0.52170295,-0.57528114,-0.31040168,-0.5482047,13.5662260055542,2.606174945831299,-7.998751640319824,72.823974609375,-154.65414428710938, -48.91397476196289
210,459919512,0.5160516,-0.5804874,-0.33223665,-0.5351115,13.842238426208496,0.9351428151130676,-6.822917938232422,69.00878143310547,-163.84866333007812, -49.65605926513672
211,459936179,0.5082988,-0.5894348,-0.34531593,-0.52436244,15.461938858032227,-12.147098541259766,6.626138210296631,9.784964561462402,-141.88746643066406, -22.204233169555664
212,459952846,0.50347376,-0.59525824,-0.35654318,-0.51483864,14.375402450561523,-2.452781915664673,10.186984062194824,22.958765029907227,-112.4418716430664, -16.057167053222656
213,459969513,0.4952671,-0.6021635,-0.36820924,-0.5064895,17.3953857421875,2.5767135620117188,-2.6961190700531006,3.9940168857574463,-121.5457992553711, -31.27345848083496
214,459986180,0.48617285,-0.6086657,-0.38137308,-0.4977115,15.887436866760254,-1.2914226055145264,-0.2675948739051819,8.055272102355957,-129.2681884765625, -40.04310607910156
215,460002847,0.47986427,-0.6132533,-0.3953292,-0.48720178,11.211688041687012,-4.195334434509277,-1.9355123043060303,33.33740997314453,-125.35488891601562, -33.06425476074219
216,460019514,0.47885108,-0.6135764,-0.41232035,-0.47351614,10.960786819458008,-4.019674301147461,-2.68314266204834,88.54751586914062,-120.10342407226562, -29.32509994506836
217,460036181,0.48061204,-0.61097926,-0.42995664,-0.45918816,9.581879615783691,-3.393033027648926,-1.2041518688201904,113.7851791381836,-107.56927490234375, -29.2686824798584
218,460052848,0.48304713,-0.60739595,-0.44556594,-0.44632596,9.409041404724121,-2.5873966217041016,-1.293097972869873,109.12559509277344,-89.64470672607422, -26.462392807006836
219,460069515,0.48305807,-0.6051496,-0.45809576,-0.4365743,11.725728988647461,-0.09029114991426468,-0.7028988599777222,75.56001281738281,-77.99307250976562, -27.326885223388672
220,460086182,0.4790251,-0.6060004,-0.4662242,-0.43120024,11.819198608398438,-0.0667194202542305,-0.7038301229476929,21.443002700805664,-67.25672149658203, -25.92148208618164
221,460102849,0.47405717,-0.6078208,-0.47246897,-0.4273137,11.134405136108398,-0.05923086777329445,-0.44199877977371216,3.9936487674713135,-60.79138946533203, -22.613365173339844
222,460119516,0.46918884,-0.61004716,-0.47801903,-0.42332283,10.841967582702637,-0.601809561252594,0.743546187877655,1.372840166091919,-59.90230178833008, -17.73834228515625
223,460136183,0.464728,-0.6119294,-0.48435178,-0.4182986,10.709848403930664,0.05871821567416191,0.4855714738368988,9.86250114440918,-64.51775360107422, -17.62816047668457
224,460152850,0.45843807,-0.61472696,-0.49047932,-0.41397518,10.781696319580078,-0.3096328675746918,0.5072478652000427,-3.6960198879241943,-69.72461700439453, -21.196374893188477
225,460169517,0.44960362,-0.61910367,-0.49474806,-0.41205785,11.197616577148438,-0.7703551054000854,1.9556506872177124,-32.843223571777344,-66.86250305175781, -22.829368591308594
226,460186184,0.43809098,-0.62522155,-0.49726588,-0.41219056,10.625274658203125,-2.729532241821289,2.1877379417419434,-61.56587600708008,-66.90003204345703, -23.379728317260742
227,460202851,0.42677006,-0.63106024,-0.5005462,-0.41119808,10.417445182800293,-2.602177619934082,1.9219589233398438,-53.926849365234375,-72.71943664550781, -23.721370697021484
228,460219518,0.4152057,-0.6369324,-0.504503,-0.40914327,9.964165687561035,-1.6695812940597534,1.6586403846740723,-49.529258728027344,-80.37083435058594, -24.157529830932617
229,460236185,0.40265283,-0.6431932,-0.5090308,-0.40627724,9.441636085510254,-0.6852927207946777,1.1821588277816772,-50.57218933105469,-90.18897247314453, -25.799718856811523
230,460252852,0.38941494,-0.6496185,-0.51451474,-0.40202817,9.479220390319824,-0.6968047022819519,0.7783494591712952,-46.542930603027344,-101.90960693359375, -27.549850463867188
231,460269519,0.37671694,-0.6556288,-0.52175087,-0.39498317,9.37798023223877,-1.0676571130752563,1.0228333473205566,-28.292789459228516,-116.12478637695312, -27.87697410583496
232,460286186,0.36580852,-0.66051424,-0.53107977,-0.38452482,9.7356595993042,-0.34092170000076294,0.6636707782745361,0.6085495352745056,-127.55828857421875, -27.663570404052734
233,460302853,0.3552773,-0.6647387,-0.5417171,-0.3720793,10.206991195678711,1.019028663635254,-0.3745378851890564,14.701992988586426,-136.84962463378906, -30.024520874023438
234,460319520,0.34395862,-0.6692191,-0.552014,-0.3593314,10.766508102416992,0.7293418049812317,-1.1347965002059937,10.758217811584473,-141.07272338867188, -28.765737533569336
235,460336187,0.33170494,-0.674117,-0.5611874,-0.3472853,11.212101936340332,0.2467210441827774,-0.6854815483093262,0.04270581528544426,-139.84983825683594, -25.960268020629883
236,460352854,0.31754574,-0.67998403,-0.5683685,-0.33725917,11.420495986938477,-0.11631616204977036,-1.3019720315933228,-23.540390014648438,-135.71885681152344, -22.141586303710938
237,460369521,0.30130583,-0.6868065,-0.57372963,-0.32915938,11.655458450317383,-0.13575617969036102,-0.18496587872505188,-47.09920883178711,-133.19618225097656, -18.943050384521484
238,460386188,0.28253767,-0.6945761,-0.57702285,-0.32369974,12.376235961914062,-0.032075345516204834,-0.26292183995246887,-76.09587097167969,-128.71119689941406, -16.661287307739258
239,460402855,0.26248702,-0.70253175,-0.57901937,-0.3198221,13.834866523742676,0.3226759135723114,0.4062640070915222,-91.74828338623047,-124.30780792236328, -15.696516036987305
240,460419522,0.24040134,-0.710389,-0.5797029,-0.31858984,15.27334213256836,1.345461368560791,1.7542297840118408,-114.81244659423828,-117.26322937011719, -19.054609298706055
241,460436189,0.21595232,-0.7179321,-0.5796645,-0.31926042,16.173620223999023,0.6872549653053284,2.196540355682373,-134.98866271972656,-115.78627014160156, -25.163755416870117
242,460452856,0.1908676,-0.7245868,-0.57996327,-0.3196658,16.855268478393555,-1.645338535308838,3.668220043182373,-134.99534606933594,-118.48619079589844, -31.477561950683594
243,460469523,0.1670413,-0.730344,-0.58073086,-0.31850684,17.064470291137695,-5.5874810218811035,5.612832069396973,-120.3082275390625,-120.25495910644531, -32.74460983276367
244,460486190,0.14771882,-0.73437744,-0.5830154,-0.31458235,17.083683013916016,-9.885961532592773,5.2344183921813965,-81.44790649414062,-114.52086639404297, -34.44480514526367
245,460502857,0.12959969,-0.73730123,-0.58499175,-0.3120506,16.88926887512207,-11.106674194335938,6.1435017585754395,-80.68106079101562,-100.34296417236328, -36.45981979370117
246,460519524,0.108639225,-0.73991925,-0.58528703,-0.31329918,14.22034740447998,-9.376731872558594,0.7261993288993835,-113.83932495117188,-90.85385131835938, -38.9798469543457
247,460536191,0.08644898,-0.7425235,-0.5845103,-0.315489,13.937984466552734,-8.224343299865723,-5.508747100830078,-126.37384033203125,-90.39300537109375, -37.26292419433594
248,460552858,0.06838709,-0.7450492,-0.582151,-0.31831622,15.485175132751465,-3.6972522735595703,-6.612390995025635,-111.4561538696289,-69.5177993774414, -21.21405792236328
249,460569525,0.05495225,-0.74536985,-0.57990927,-0.32420582,9.252706527709961,-11.057046890258789,1.9198880195617676,-98.82615661621094,-30.64054298400879, -22.19646644592285
250,460586192,0.06289871,-0.743625,-0.5813817,-0.32413164,4.626736640930176,-5.519184589385986,6.407436370849609,43.385807037353516,27.095962524414062, 0.21394485235214233
251,460602859,0.07196061,-0.74143213,-0.578476,-0.33236423,6.916740894317627,1.4777230024337769,6.5825886726379395,6.298629283905029,76.78693389892578, 19.644987106323242
252,460619526,0.07605729,-0.7392601,-0.568891,-0.3522403,8.124354362487793,-0.32694733142852783,4.986334800720215,-80.4579849243164,119.51795959472656, 36.620426177978516
253,460636193,0.08335045,-0.7379501,-0.55415934,-0.37601843,7.351902961730957,-4.479515075683594,2.8642659187316895,-92.30906677246094,152.36355590820312, 71.689453125
254,460652860,0.101213254,-0.736556,-0.5384037,-0.39668992,6.967453956604004,-4.762591361999512,1.4207934141159058,-29.4796085357666,177.6288299560547, 105.4622573852539
255,460669527,0.1273489,-0.734587,-0.5215588,-0.41489837,7.568716049194336,-3.0704550743103027,1.8175123929977417,18.901884078979492,198.07159423828125, 132.98663330078125
256,460686194,0.15904154,-0.73132837,-0.50290906,-0.43237382,8.80859661102295,-1.9807372093200684,1.6166714429855347,45.54743957519531,219.48565673828125, 153.9017791748047
257,460702861,0.19575371,-0.725791,-0.48292837,-0.44909734,10.067853927612305,-0.8102420568466187,0.7058334350585938,71.9096450805664,241.19305419921875, 168.44137573242188
258,460719528,0.2352707,-0.7177998,-0.4610498,-0.46566567,11.650309562683105,0.653130054473877,-0.31571096181869507,83.85432434082031,259.7655334472656, 178.66986083984375
259,460736195,0.27511814,-0.7075427,-0.43647474,-0.48289075,13.729436874389648,2.2706282138824463,-0.7165312170982361,78.43901824951172,275.5973205566406, 184.87042236328125
260,460752862,0.31294006,-0.6954721,-0.4087577,-0.5013027,15.581158638000488,3.067967653274536,-1.4987518787384033,58.02019119262695,287.2027893066406, 185.8667755126953
261,460769529,0.3485106,-0.6815521,-0.37927392,-0.51978695,16.68411636352539,2.453420639038086,-2.3750410079956055,44.95991897583008,291.39154052734375, 181.34414672851562
262,460786196,0.3827076,-0.66581005,-0.34909666,-0.53699476,17.32577896118164,0.9786408543586731,-2.71647572517395,43.73234558105469,290.0643005371094, 178.14108276367188
263,460802863,0.41701144,-0.6471057,-0.32042038,-0.55198413,18.33104705810547,0.2779509723186493,-3.1614949703216553,62.8831901550293,287.2666015625, 170.53421020507812
264,460819530,0.45092866,-0.6258084,-0.29397792,-0.5644502,18.891420364379883,-0.7461768388748169,-3.8537659645080566,82.62210083007812,278.7900390625, 160.8267364501953
265,460836197,0.48532096,-0.60153025,-0.27167115,-0.5734283,19.087465286254883,-1.025164008140564,-5.390347957611084,117.04203033447266,263.71435546875, 149.8738555908203
266,460852864,0.5228973,-0.5715276,-0.25656924,-0.5780199,19.23009490966797,2.089494228363037,-5.500460624694824,185.92657470703125,250.4038848876953, 136.8552703857422
267,460869531,0.5520036,-0.5420679,-0.2429156,-0.5851894,18.03541374206543,8.084759712219238,-6.136670112609863,151.8899688720703,238.61402893066406, 89.57843017578125
268,460886198,0.57207435,-0.52189195,-0.22864902,-0.5899826,12.999778747558594,3.7832512855529785,-13.091960906982422,84.54705047607422,180.07147216796875, 80.6130599975586
269,460902865,0.5792288,-0.51565146,-0.21567336,-0.5933655,8.569134712219238,6.332934856414795,-17.03293800354004,-9.202171325683594,93.86494445800781, 51.2880744934082
270,460919532,0.5782944,-0.5180131,-0.21341929,-0.59303486,8.264816284179688,1.5995808839797974,-17.278064727783203,-22.58028221130371,-8.330062866210938, 8.228859901428223
271,460936199,0.5752478,-0.52153575,-0.22631417,-0.5881092,10.616588592529297,3.709829330444336,-14.863061904907227,34.114715576171875,-91.99330139160156, -34.1315803527832
272,460952866,0.5686348,-0.5292093,-0.24423029,-0.58046865,12.433406829833984,2.8062965869903564,-11.06867790222168,29.61878776550293,-143.19375610351562, -49.091609954833984
273,460969533,0.56026894,-0.53929836,-0.26473606,-0.57023764,14.298073768615723,1.6612815856933594,-8.5834321975708,28.696992874145508,-174.78323364257812, -51.08329391479492
274,460986200,0.5526371,-0.5479132,-0.28889662,-0.5576042,14.532768249511719,1.4710590839385986,-6.7576422691345215,55.77960968017578,-190.1576385498047, -55.07465744018555
275,461002867,0.5468404,-0.5534803,-0.3148755,-0.54357964,14.501470565795898,-0.037041835486888885,-1.4240829944610596,84.06837463378906,-186.63255310058594, -55.56301498413086
276,461019534,0.5435859,-0.5582062,-0.332971,-0.53108454,13.38457202911377,-12.573454856872559,14.829882621765137,64.25849914550781,-142.4565887451172, -23.59501075744629
277,461036201,0.54521495,-0.5583899,-0.34836367,-0.519215,9.997208595275879,-1.7699880599975586,8.691985130310059,88.58164978027344,-102.75689697265625, -8.545734405517578
278,461052868,0.5401022,-0.5626412,-0.3609758,-0.5112936,18.64316749572754,4.255234241485596,-5.432411193847656,28.04433822631836,-108.18648529052734, -27.045312881469727
279,461069535,0.5326964,-0.56775177,-0.3759918,-0.5025166,17.389890670776367,0.3212244510650635,-1.4977617263793945,26.609392166137695,-128.9101104736328, -38.88126754760742
280,461086202,0.52503526,-0.5734346,-0.39021784,-0.4931946,11.198203086853027,-4.152620315551758,-1.6232662200927734,22.229337692260742,-130.74545288085938, -33.15214920043945
281,461102869,0.5198424,-0.5762847,-0.4056496,-0.48281276,11.74685287475586,-0.49832117557525635,-0.6971015930175781,49.13123321533203,-123.04846954345703, -33.44709396362305
282,461119536,0.51282656,-0.57976824,-0.41861263,-0.47501713,10.530261993408203,0.2922925353050232,0.5954897403717041,24.243444442749023,-111.20553588867188, -37.21409225463867
283,461136203,0.5065476,-0.5827523,-0.42987776,-0.46798998,9.717341423034668,-2.888775587081909,-0.9077137112617493,21.17321014404297,-98.49519348144531, -32.19089126586914
284,461152870,0.50217384,-0.5842445,-0.4406181,-0.46079898,10.082304000854492,-2.1978726387023926,-0.7995766401290894,32.79329299926758,-86.9416732788086, -27.893644332885742
285,461169537,0.49736282,-0.5858715,-0.44959193,-0.45524946,10.986416816711426,-0.6745561957359314,-0.042948611080646515,19.993614196777344,-76.05586242675781, -27.510683059692383
286,461186204,0.49245107,-0.58792984,-0.4566608,-0.45087877,10.8399658203125,-1.6092480421066284,-0.6559529900550842,8.497759819030762,-66.53775024414062, -22.866668701171875
287,461202871,0.4889298,-0.5889893,-0.46344912,-0.44637892,10.620528221130371,-0.6851176023483276,-0.5458810329437256,17.02483558654785,-58.71147537231445, -20.16029167175293
288,461219538,0.48540086,-0.5900284,-0.46956173,-0.4424528,9.948478698730469,-0.4455927312374115,-0.2088962197303772,13.145526885986328,-54.14164733886719, -19.4556941986084
289,461236205,0.48205322,-0.5909339,-0.47590894,-0.4381012,10.148679733276367,-0.6364515423774719,-0.20686955749988556,16.408010482788086,-55.730186462402344, -18.878522872924805
290,461252872,0.47834706,-0.59189194,-0.48277432,-0.43333268,10.233955383300781,-0.2408319115638733,-0.4340789020061493,17.69239616394043,-60.541412353515625, -20.524608612060547
291,461269539,0.47233722,-0.59414274,-0.48942065,-0.42937136,10.623675346374512,-0.26961976289749146,0.4700363874435425,0.7315954566001892,-68.09449005126953, -24.863563537597656
292,461286206,0.46406782,-0.5979435,-0.4956906,-0.42590562,10.19107723236084,-1.0704312324523926,0.9824590086936951,-16.317018508911133,-77.1194076538086, -26.394004821777344
293,461302873,0.4550119,-0.6026004,-0.5020653,-0.42162496,10.068105697631836,-1.6678361892700195,0.604008674621582,-19.20710563659668,-86.09584045410156, -23.636323928833008
294,461319540,0.44515407,-0.60784954,-0.50840425,-0.4169917,10.200005531311035,-0.7538740634918213,0.9215019345283508,-23.286052703857422,-92.0198745727539, -22.704177856445312
295,461336207,0.43485725,-0.6135584,-0.51462644,-0.41183135,10.178057670593262,-0.4096907079219818,0.4610748291015625,-25.02913475036621,-96.81853485107422, -20.270837783813477
296,461352874,0.42471215,-0.6190256,-0.5218332,-0.4051137,10.319500923156738,-0.4075244069099426,0.22157876193523407,-15.370828628540039,-105.19743347167969, -20.204195022583008
297,461369541,0.41503218,-0.6238283,-0.53028166,-0.39672166,10.393792152404785,-0.3619530498981476,0.264532208442688,-1.9857932329177856,-112.51371765136719, -21.69830322265625
298,461386208,0.40517688,-0.6283078,-0.53959596,-0.38716584,11.096080780029297,-0.1241278350353241,-0.44707271456718445,4.794713497161865,-119.82180786132812, -23.757083892822266
299,461402875,0.3941383,-0.63339406,-0.5486789,-0.377384,11.527371406555176,-0.4557332992553711,-0.26431581377983093,-1.7821581363677979,-126.23751068115234, -23.029178619384766
300,461419542,0.3821557,-0.63914436,-0.55697024,-0.36774436,11.284565925598145,-1.1706552505493164,-0.18495716154575348,-10.281095504760742,-128.85317993164062, -19.922849655151367
301,461436209,0.3692048,-0.6453736,-0.5647101,-0.35816678,11.62566089630127,-0.8594174385070801,-0.870964527130127,-17.4400577545166,-132.15087890625, -18.303491592407227
302,461452876,0.35484326,-0.6521543,-0.5716497,-0.34928197,12.363489151000977,0.1608639359474182,-0.15459030866622925,-29.765207290649414,-133.97471618652344, -17.866411209106445
303,461469543,0.33803555,-0.65999854,-0.57683957,-0.3426225,13.447188377380371,0.8246941566467285,0.22868618369102478,-56.26545715332031,-132.02781677246094, -17.156946182250977
304,461486210,0.31943178,-0.6683995,-0.5803254,-0.33827215,14.7495698928833,1.1188263893127441,0.9531073570251465,-78.88036346435547,-126.18636322021484, -16.812801361083984
305,461502877,0.29956394,-0.6768578,-0.58234507,-0.3361536,15.389730453491211,0.3781326115131378,1.8292442560195923,-97.11480712890625,-118.0925521850586, -17.704708099365234
306,461519544,0.27905673,-0.6847004,-0.5839791,-0.33508384,15.754636764526367,-0.6528949737548828,2.6862175464630127,-103.90987396240234,-113.7935562133789, -22.062381744384766
307,461536211,0.25753522,-0.6921086,-0.58582544,-0.33387136,16.385576248168945,-3.896705389022827,2.3208072185516357,-106.80321502685547,-118.20985412597656, -26.953903198242188
308,461552878,0.23636585,-0.6988447,-0.5881457,-0.33140936,16.62394142150879,-6.028308868408203,4.481502056121826,-97.8786392211914,-122.29867553710938, -29.055315017700195
309,461569545,0.21646984,-0.7044013,-0.59094745,-0.32823908,16.020252227783203,-7.680667400360107,4.160648822784424,-85.98104858398438,-118.96028900146484, -32.28512191772461
310,461586212,0.1990263,-0.70798564,-0.59436697,-0.32538113,16.385961532592773,-8.670134544372559,5.224514961242676,-71.16519165039062,-104.24150848388672, -38.444793701171875
311,461602879,0.17944749,-0.71205544,-0.59493,-0.32685485,13.629314422607422,-7.958851337432861,3.417961835861206,-106.45545196533203,-89.37445831298828, -33.51437759399414
312,461619546,0.15698293,-0.71688986,-0.5936985,-0.33007193,13.051843643188477,-6.367980003356934,-2.863640785217285,-132.82432556152344,-92.35015869140625, -30.49195671081543
313,461636213,0.13582192,-0.7218609,-0.5900105,-0.335197,13.101261138916016,-4.293075084686279,-4.771084785461426,-140.03469848632812,-75.33135986328125, -17.157060623168945
314,461652880,0.11807146,-0.7243332,-0.58619833,-0.3431795,12.214620590209961,-6.526159286499023,-0.0690416544675827,-132.73944091796875,-41.44845199584961, -21.68573570251465
315,461669547,0.118539065,-0.7229356,-0.5861668,-0.34600776,6.3791937828063965,-6.2591705322265625,6.817781448364258,-9.264200210571289,12.26107406616211, -9.13366413116455
316,461686214,0.12563547,-0.7209247,-0.58316517,-0.35270634,6.82709264755249,-0.07680003345012665,6.2103047370910645,1.4836432933807373,61.95731735229492, 15.667366027832031
317,461702881,0.13183688,-0.71898013,-0.57515144,-0.36727038,7.473877429962158,0.4598781168460846,3.4944827556610107,-46.621395111083984,101.4131851196289, 31.789562225341797
318,461719548,0.14112826,-0.71713644,-0.56336933,-0.38524434,7.6443634033203125,-2.3285744190216064,2.253722667694092,-54.37374496459961,133.60040283203125, 55.48420715332031
319,461736215,0.15756863,-0.71512747,-0.548737,-0.40330234,7.610747814178467,-4.677466869354248,2.1666111946105957,-26.84241485595703,164.88319396972656, 87.66405487060547
320,461752882,0.18171233,-0.71235096,-0.5322002,-0.4198805,7.019020080566406,-4.16254997253418,1.5440938472747803,12.1256685256958,190.83218383789062, 116.98130798339844
321,461769549,0.21158078,-0.70837075,-0.5135544,-0.4355532,7.640956878662109,-2.70109224319458,1.5105907917022705,38.8487548828125,213.44239807128906, 140.5040283203125
322,461786216,0.2453066,-0.7027614,-0.49241626,-0.4510847,9.377102851867676,-1.4653996229171753,0.6282018423080444,53.015960693359375,234.86129760742188, 158.6331024169922
323,461802883,0.28326607,-0.69443226,-0.4695343,-0.46589902,11.031389236450195,0.23783078789710999,-0.7079561352729797,75.0732650756836,257.0921630859375, 172.22048950195312
324,461819550,0.3223906,-0.6835127,-0.44430178,-0.48111418,12.884014129638672,2.384153366088867,-1.5907108783721924,76.85743713378906,275.65435791015625, 178.1177978515625
325,461836217,0.35928386,-0.67166364,-0.41566372,-0.49699762,14.468721389770508,2.273465633392334,-1.3574620485305786,55.13186264038086,282.6404113769531, 182.55906677246094
326,461852884,0.39524755,-0.6580513,-0.38545743,-0.5120258,15.33154582977295,1.8199963569641113,-2.0490689277648926,52.27086639404297,285.9869079589844, 183.83851623535156
327,461869551,0.4306159,-0.6416962,-0.35473698,-0.52626765,16.718236923217773,2.259139060974121,-2.4965767860412598,57.302330017089844,292.0128173828125, 179.082763671875
328,461886218,0.46349457,-0.62362677,-0.32288352,-0.54037833,17.854066848754883,1.2621928453445435,-2.310608148574829,47.606895446777344,295.0726318359375, 171.45822143554688
329,461902885,0.49434522,-0.6044836,-0.2915133,-0.5524877,18.090065002441406,-0.6786103844642639,-3.1566245555877686,48.5713005065918,284.6161804199219, 166.0151824951172
330,461919552,0.52649814,-0.581891,-0.26477447,-0.56044364,18.824806213378906,-1.0651404857635498,-5.050955772399902,91.623291015625,267.5841064453125, 159.07366943359375
331,461936219,0.56233835,-0.5520691,-0.24714898,-0.56383777,19.04295539855957,3.16995906829834,-5.269201278686523,176.03756713867188,251.28921508789062, 140.4031524658203
332,461952886,0.59042615,-0.52267,-0.23121922,-0.56986916,17.803438186645508,6.713912487030029,-5.563384056091309,147.06195068359375,240.34791564941406, 94.76911926269531
333,461969553,0.6116671,-0.50055796,-0.21685575,-0.5729563,13.394583702087402,3.53709077835083,-12.340967178344727,103.54241943359375,184.468017578125, 86.18768310546875
334,461986220,0.62025684,-0.4926885,-0.20404813,-0.5752426,8.405730247497559,6.647302150726318,-16.58241844177246,7.595617771148682,100.76570129394531, 55.85717010498047
335,462002887,0.6198207,-0.49470642,-0.20183384,-0.57476187,7.973508358001709,2.138962507247925,-16.310264587402344,-19.084415435791016,-4.987646102905273, 10.275839805603027
336,462019554,0.61664265,-0.49806514,-0.21447486,-0.570687,11.033685684204102,3.4750325679779053,-13.77618408203125,29.79561424255371,-89.07136535644531, -33.75868606567383
337,462036221,0.61017907,-0.504853,-0.23242153,-0.56461084,13.219080924987793,2.379375457763672,-9.756664276123047,27.939794540405273,-136.21861267089844, -51.09349822998047
338,462052888,0.602399,-0.5131464,-0.25348097,-0.55636644,14.894287109375,0.7598570585250854,-7.171316146850586,32.66426467895508,-164.34532165527344, -55.38505935668945
339,462069555,0.5943861,-0.5216235,-0.2765639,-0.5460099,15.47150993347168,0.4831211268901825,-6.1934380531311035,42.59515380859375,-180.98040771484375, -54.25981521606445
340,462086222,0.58471966,-0.5319879,-0.29782003,-0.53515923,15.404180526733398,-1.9834222793579102,-4.267087459564209,23.13080406188965,-185.27423095703125, -48.233707427978516
341,462102889,0.57654953,-0.5416184,-0.31513306,-0.5243388,14.166170120239258,-5.937009334564209,3.328455686569214,17.060943603515625,-163.3907470703125, -29.93573570251465
342,462119556,0.5696091,-0.5485808,-0.33053613,-0.5151217,13.396171569824219,0.36902740597724915,2.7866415977478027,21.872108459472656,-137.67782592773438, -30.65810775756836
343,462136223,0.5603052,-0.5564003,-0.34329835,-0.50855,14.239543914794922,0.8520345687866211,-1.3822731971740723,-5.7572021484375,-125.88475799560547, -37.44233322143555
344,462152890,0.55396456,-0.56217337,-0.35716733,-0.49951586,13.358328819274902,-4.355164051055908,-4.448846817016602,23.1567440032959,-125.41133117675781, -26.609344482421875
345,462169557,0.551774,-0.56358594,-0.37353876,-0.48824728,11.417403221130371,-2.6141140460968018,-1.1099522113800049,69.95125579833984,-118.32964324951172, -24.339778900146484
346,462186224,0.5507837,-0.56298965,-0.3885782,-0.4782122,10.147418975830078,-2.209230661392212,-1.6204473972320557,74.5861587524414,-98.69844818115234, -25.082992553710938
347,462202891,0.551093,-0.56058025,-0.4025515,-0.46904048,10.785834312438965,-2.5872254371643066,-0.5776480436325073,80.67688751220703,-81.9068603515625, -24.88473129272461
348,462219558,0.5541933,-0.55511326,-0.41681653,-0.45932925,11.422599792480469,-2.116201877593994,-0.9467870593070984,105.44402313232422,-67.5628662109375, -23.522808074951172
349,462236225,0.55511284,-0.55137026,-0.42840475,-0.4520069,11.75262451171875,-0.22088657319545746,-0.36346572637557983,75.22804260253906,-59.981998443603516, -24.426410675048828
350,462252892,0.5541539,-0.5495735,-0.43772995,-0.44640243,11.175329208374023,0.37096309661865234,-0.7040877938270569,48.570716857910156,-56.479427337646484, -22.513097763061523
351,462269559,0.55138624,-0.5494235,-0.44561487,-0.4421926,11.229080200195312,0.050797391682863235,-0.31614673137664795,26.820005416870117,-56.277442932128906, -22.961503982543945
352,462286226,0.5483904,-0.5491233,-0.45441246,-0.4373112,11.287038803100586,-0.257719486951828,0.5783461332321167,31.348962783813477,-62.58828353881836, -25.005104064941406
353,462302893,0.5437361,-0.54990584,-0.46260285,-0.4335358,11.776225090026855,0.04723178222775459,0.9629635810852051,15.69929027557373,-64.65792846679688, -28.482152938842773
354,462319560,0.5369311,-0.5527363,-0.46872786,-0.43183556,12.393152236938477,-0.9962417483329773,2.5937840938568115,-12.872763633728027,-62.145172119140625, -28.305431365966797
355,462336227,0.5286029,-0.5572083,-0.47321537,-0.43146887,11.720436096191406,-0.9127150774002075,2.021317481994629,-33.903995513916016,-60.97987365722656, -26.234651565551758
356,462352894,0.5190264,-0.56250876,-0.47749716,-0.43150005,10.500911712646484,-1.3938475847244263,1.592647910118103,-43.62577819824219,-65.37206268310547, -27.89652442932129
357,462369561,0.5090905,-0.5678901,-0.4825601,-0.4306549,9.543451309204102,-2.276986837387085,2.2560603618621826,-40.129913330078125,-73.0959701538086, -28.606813430786133
358,462386228,0.4996781,-0.57301265,-0.48870367,-0.42795724,8.708822250366211,-2.184504270553589,1.1946070194244385,-27.861360549926758,-81.748291015625, -25.697330474853516
359,462402895,0.4898093,-0.57826036,-0.4964073,-0.42341685,9.019155502319336,-1.5333704948425293,0.4704511761665344,-19.31561279296875,-96.37609100341797, -26.485549926757812
360,462419562,0.4795434,-0.58375335,-0.50502074,-0.41740212,9.06007194519043,-1.6807067394256592,0.4953390061855316,-14.051458358764648,-107.45545959472656, -25.490116119384766
361,462436229,0.46949485,-0.5892383,-0.51448363,-0.40948686,9.179767608642578,-1.9671562910079956,0.34999871253967285,-4.1237688064575195,-117.19554138183594, -22.07646942138672
362,462452896,0.46002388,-0.5943589,-0.5245543,-0.3999484,9.509963989257812,-1.3465440273284912,-0.4090555012226105,6.836620807647705,-122.75263977050781, -19.00908088684082
363,462469563,0.45056286,-0.5993569,-0.53473985,-0.38963798,10.110395431518555,-0.28725847601890564,-1.0473787784576416,10.357390403747559,-125.96934509277344, -17.481170654296875
364,462486230,0.44037956,-0.60480535,-0.5436898,-0.38036567,10.772571563720703,0.9054285287857056,-1.4645819664001465,-1.1380199193954468,-121.78868103027344, -15.885071754455566
365,462502897,0.4283091,-0.61154974,-0.5504739,-0.37354654,11.027894020080566,1.1968278884887695,-1.3200106620788574,-27.729761123657227,-115.54015350341797, -14.370745658874512
366,462519564,0.41487533,-0.6193223,-0.5553937,-0.36858705,11.042884826660156,0.411406010389328,-0.9961140155792236,-48.301109313964844,-110.11309051513672, -11.587677955627441
367,462536231,0.40016195,-0.6276716,-0.5590593,-0.36517334,11.299226760864258,0.41398733854293823,-0.4757099747657776,-64.47310638427734,-106.39986419677734, -11.688779830932617
368,462552898,0.38444605,-0.6362526,-0.56178105,-0.36302382,12.079434394836426,0.8272027373313904,-0.1447971910238266,-76.66108703613281,-102.90225219726562, -12.720881462097168
369,462569565,0.36699626,-0.6450031,-0.5639518,-0.36227545,12.882896423339844,1.0244686603546143,0.9930980205535889,-91.47515106201172,-102.58013153076172, -17.683191299438477
370,462586232,0.34867874,-0.6537145,-0.565881,-0.36174497,13.708740234375,-0.07014273852109909,1.5453386306762695,-96.66715240478516,-104.455078125, -19.479219436645508
371,462602899,0.3295116,-0.66220224,-0.568066,-0.36084843,14.774808883666992,-0.31123608350753784,1.863785982131958,-97.88915252685547,-109.67030334472656, -22.77748680114746
372,462619566,0.309379,-0.67064524,-0.5701124,-0.35984963,15.968888282775879,-1.9538726806640625,3.249767541885376,-102.14695739746094,-113.70751953125, -24.53573226928711
373,462636233,0.28881377,-0.678878,-0.572122,-0.35831282,15.702873229980469,-6.084749698638916,5.496572971343994,-101.70580291748047,-117.56037139892578, -25.221851348876953
374,462652900,0.26964176,-0.6860294,-0.5745451,-0.3557454,16.253662109375,-10.375380516052246,7.723330020904541,-88.07939910888672,-115.3618392944336, -26.120269775390625
375,462669567,0.24746913,-0.6931079,-0.5754337,-0.35670263,16.08527183532715,-9.203371047973633,5.287555694580078,-119.93047332763672,-107.93244934082031, -33.338321685791016
376,462686234,0.2217834,-0.69982684,-0.5765939,-0.3586004,16.470746994018555,-8.816853523254395,-1.9736768007278442,-139.25369262695312,-117.21698760986328, -46.548728942871094
377,462702901,0.19777891,-0.7064094,-0.5763226,-0.36016902,14.109569549560547,-7.927234649658203,-5.504126071929932,-133.3107452392578,-109.72976684570312, -35.8188591003418
378,462719568,0.17448641,-0.71071994,-0.57551247,-0.36498928,20.06597328186035,-2.1268815994262695,-2.721806526184082,-141.1114044189453,-84.75038146972656, -45.09392547607422
379,462736235,0.1655322,-0.7106649,-0.5762703,-0.36805883,7.303864479064941,-12.057353973388672,6.56217098236084,-54.959266662597656,-27.66815185546875, -32.08088302612305
380,462752902,0.17157249,-0.70786655,-0.57752305,-0.36872116,6.689992427825928,-3.5627830028533936,7.145605087280273,32.08680725097656,26.205236434936523, -4.9034528732299805
381,462769569,0.17880589,-0.7051191,-0.5735751,-0.37662622,6.983301639556885,-0.6398034691810608,4.4172587394714355,-4.1025285720825195,72.05187225341797, 15.063685417175293
382,462786236,0.18775828,-0.70301306,-0.56389683,-0.3905636,7.773814678192139,-2.405888319015503,4.602260589599609,-35.131309509277344,113.39592742919922, 42.39266586303711
383,462802903,0.20135947,-0.7006297,-0.5492202,-0.40857026,7.060833930969238,-3.338146686553955,4.703407287597656,-41.49195098876953,158.22315979003906, 72.63971710205078
384,462819570,0.22077547,-0.69792974,-0.53038466,-0.42760342,6.7162933349609375,-3.9959585666656494,2.725553035736084,-28.607921600341797,191.7313232421875, 106.30913543701172
385,462836237,0.24646062,-0.694142,-0.5088319,-0.44554946,7.657580852508545,-2.9912633895874023,2.0497775077819824,-0.9202712178230286,216.7103729248047, 135.3870391845703
386,462852904,0.27769506,-0.6884524,-0.4848806,-0.4623957,9.14934253692627,-1.9563690423965454,1.174384593963623,25.275497436523438,240.78138732910156, 159.01063537597656
387,462869571,0.31369475,-0.67961794,-0.45892966,-0.47864267,10.968925476074219,-0.25155818462371826,0.6153006553649902,49.472816467285156,267.6734313964844, 174.29893493652344
388,462886238,0.35072237,-0.6686966,-0.42977354,-0.49510968,12.452539443969727,0.1908273994922638,-0.1267552375793457,47.5380859375,285.7539978027344, 185.66192626953125
389,462902905,0.38877046,-0.6555376,-0.39789742,-0.51069146,15.235274314880371,1.0580552816390991,-1.5324904918670654,50.988365173339844,298.9324951171875, 197.24862670898438
390,462919572,0.42691302,-0.6391353,-0.36450517,-0.5257258,17.771318435668945,2.4980876445770264,-2.055689811706543,56.26219940185547,312.2756042480469, 197.1310272216797
391,462936239,0.46286076,-0.6211951,-0.32953238,-0.53970826,18.597171783447266,1.131364345550537,-3.006713390350342,48.05826950073242,312.4974060058594, 195.55917358398438
392,462952906,0.4992056,-0.6002059,-0.29613826,-0.55031705,19.395437240600586,-0.3363956809043884,-4.04850959777832,72.97439575195312,305.4928283691406, 194.29893493652344
393,462969573,0.5358991,-0.5750967,-0.26645112,-0.5577455,20.237878799438477,-0.5715002417564392,-4.476820468902588,109.07000732421875,296.2252502441406, 183.02566528320312
394,462986240,0.572462,-0.54657733,-0.24207067,-0.5611974,20.201902389526367,-1.5797359943389893,-6.815101146697998,148.7825164794922,274.10870361328125, 170.15345764160156
395,463002907,0.6101889,-0.5109865,-0.22729318,-0.56115997,19.8956356048584,5.5830583572387695,-6.951927661895752,223.97341918945312,252.8354949951172, 140.74044799804688
396,463019574,0.6379101,-0.47836134,-0.21413785,-0.5642573,17.388288497924805,5.370859146118164,-10.492035865783691,177.68792724609375,230.39816284179688, 88.2386703491211
397,463036241,0.65804434,-0.45556617,-0.20357908,-0.5639085,12.328935623168945,6.110034465789795,-16.018945693969727,124.7515640258789,158.8785400390625, 80.1099624633789
398,463052908,0.6626316,-0.45296186,-0.19305815,-0.5643346,7.919954299926758,6.283567428588867,-18.020572662353516,-16.147985458374023,61.64956283569336, 44.692813873291016
399,463069575,0.661927,-0.4558258,-0.19597645,-0.56184417,9.122097969055176,2.6224958896636963,-17.127220153808594,-1.2575894594192505,-36.45431900024414, 3.143608808517456
400,463086242,0.65843886,-0.45953578,-0.21188195,-0.55712795,11.696537971496582,4.078707218170166,-13.670799255371094,39.534515380859375,-109.08609008789062, -36.90278244018555
401,463102909,0.6519748,-0.4668644,-0.23200746,-0.5505806,13.707236289978027,1.8535414934158325,-9.981176376342773,32.68389129638672,-151.74378967285156, -47.93350601196289
402,463119576,0.6435979,-0.4766472,-0.25341013,-0.54256123,15.55172061920166,1.4590234756469727,-7.24204683303833,22.816118240356445,-174.18959045410156, -48.66259002685547
403,463136243,0.63379955,-0.48737043,-0.27448574,-0.53425276,15.191399574279785,1.6071019172668457,-5.50383996963501,13.336602210998535,-179.38905334472656, -49.885562896728516
404,463152910,0.6231127,-0.498192,-0.29417062,-0.526307,14.533480644226074,-0.3789129853248596,-2.7327377796173096,4.181429386138916,-173.9442901611328, -49.796199798583984
405,463169577,0.6151286,-0.50724,-0.30931136,-0.51831555,12.235504150390625,-7.843942642211914,5.7502760887146,4.720061302185059,-142.6374969482422, -27.81154441833496
406,463186244,0.60966223,-0.51277196,-0.32296062,-0.5109537,11.082711219787598,0.049864761531353,3.750739574432373,21.784460067749023,-116.43203735351562, -23.93478775024414
407,463202911,0.60207325,-0.5197452,-0.3347716,-0.5052729,15.447418212890625,1.0064435005187988,-3.0546703338623047,-1.9688524007797241,-112.69667053222656, -28.74881935119629
408,463219578,0.5959806,-0.52494466,-0.34895286,-0.49746594,15.06351375579834,-2.997110605239868,-4.002384185791016,23.887252807617188,-120.41649627685547, -27.231311798095703
409,463236245,0.5920746,-0.5277878,-0.3641648,-0.48813123,12.020130157470703,-3.645298480987549,-1.88402259349823,48.68150329589844,-116.74451446533203, -22.919836044311523
410,463252912,0.588532,-0.52911496,-0.3788738,-0.47971067,11.156771659851074,0.3410736620426178,-0.06505070626735687,52.21294403076172,-105.36097717285156, -27.498632431030273
411,463269579,0.58356124,-0.53129256,-0.39081132,-0.4737628,10.614639282226562,-1.1445379257202148,-0.444204181432724,27.983076095581055,-91.72291564941406, -29.920665740966797
412,463286246,0.57924026,-0.53289115,-0.40118727,-0.46856883,10.8276948928833,-2.127342939376831,-0.7975896000862122,25.558374404907227,-79.11991882324219, -26.71422576904297
413,463302913,0.5752406,-0.53436935,-0.40969533,-0.4644326,11.1045560836792,-0.8810882568359375,-0.6189669966697693,18.27128028869629,-66.56954193115234, -23.430267333984375
414,463319580,0.57097846,-0.53626424,-0.41609687,-0.46180928,11.12779426574707,-1.0269142389297485,-0.8850902318954468,4.659230709075928,-54.800968170166016, -21.34721565246582
415,463336247,0.5675397,-0.53747994,-0.42180878,-0.4594472,11.449353218078613,-1.033428430557251,-0.9791064262390137,7.4111738204956055,-46.662662506103516, -19.16690444946289
416,463352914,0.5644641,-0.5378002,-0.4276544,-0.45745313,10.436203956604004,-0.6283388137817383,0.6081124544143677,11.58839225769043,-41.98387908935547, -22.554567337036133
417,463369581,0.56093836,-0.5381928,-0.4337448,-0.45558986,10.52518367767334,-1.0423372983932495,-0.2683202624320984,10.007852554321289,-44.0930061340332, -25.174869537353516
418,463386248,0.55573815,-0.5394702,-0.44020766,-0.45425168,11.6077299118042,-1.4042515754699707,0.7272878289222717,-0.02151494100689888,-51.41407775878906, -31.197641372680664
419,463402915,0.5485788,-0.54236513,-0.44632486,-0.45353684,11.08687973022461,-2.049694538116455,2.1590347290039062,-16.461946487426758,-58.854976654052734, -33.530670166015625
420,463419582,0.5397447,-0.54667443,-0.4525392,-0.4528039,10.380330085754395,-1.5874745845794678,1.3595901727676392,-27.710214614868164,-68.98370361328125, -34.73427963256836
421,463436249,0.52934533,-0.5520642,-0.4593348,-0.4516975,10.095246315002441,-1.8070186376571655,1.7544853687286377,-34.660888671875,-80.90208435058594, -37.06334686279297
422,463452916,0.5188903,-0.5576886,-0.46688512,-0.4491713,9.490654945373535,-2.360377073287964,1.8810923099517822,-28.920291900634766,-90.0821533203125, -34.22225570678711
423,463469583,0.5093902,-0.5626702,-0.47547588,-0.4447998,9.866168975830078,-1.475461483001709,0.4059947431087494,-13.850667953491211,-95.96522521972656, -30.79949188232422
424,463486250,0.4997943,-0.5677061,-0.48474127,-0.43925112,9.89111042022705,-0.7263543605804443,-0.1422118991613388,-8.51061725616455,-103.45853424072266, -29.435041427612305
425,463502917,0.4899019,-0.5729819,-0.49413463,-0.43303496,9.724325180053711,-0.28477445244789124,-0.0940922349691391,-7.883386611938477,-108.305908203125, -27.756977081298828
426,463519584,0.47995868,-0.57821894,-0.5038143,-0.42599764,10.253908157348633,-0.15276409685611725,-0.22072046995162964,-4.327162265777588,-112.6533432006836, -26.40989875793457
427,463536251,0.47003606,-0.58330995,-0.5132947,-0.41874143,10.82476806640625,0.35184386372566223,-0.6561854481697083,-3.579632043838501,-112.46451568603516, -25.350509643554688
428,463552918,0.45922142,-0.5888099,-0.5220111,-0.41221735,11.593000411987305,1.0493104457855225,-0.687851071357727,-13.263309478759766,-111.47551727294922, -25.76971435546875
429,463569585,0.44672644,-0.5955331,-0.5289191,-0.4074561,11.659661293029785,0.9757026433944702,-0.8254326581954956,-35.369728088378906,-108.23231506347656, -24.361299514770508
430,463586252,0.43310258,-0.60309756,-0.53468716,-0.40349153,11.32383918762207,0.6154525876045227,-0.39607709646224976,-48.66331100463867,-108.04035949707031, -22.2189998626709
431,463602919,0.41836816,-0.611045,-0.53954893,-0.40059844,11.687895774841309,1.2541109323501587,0.6684503555297852,-60.857948303222656,-106.17152404785156, -23.31534767150879
432,463619586,0.40192348,-0.6198127,-0.5430499,-0.39923257,12.21618366241455,1.4152369499206543,0.8729687929153442,-79.8077621459961,-104.61155700683594, -23.639001846313477
433,463636253,0.3843129,-0.6285841,-0.5461695,-0.39860326,13.218878746032715,1.1966817378997803,1.314862608909607,-88.57255554199219,-104.9661636352539, -27.221752166748047
434,463652920,0.36576554,-0.63709325,-0.5494945,-0.3979744,14.147180557250977,0.08688761293888092,1.7891324758529663,-91.35989379882812,-108.51377868652344, -31.662031173706055
435,463669587,0.34697875,-0.64514285,-0.5533994,-0.39641628,14.97992992401123,-1.9124205112457275,2.841362953186035,-86.15689849853516,-113.91992950439453, -34.29497528076172
436,463686254,0.32865158,-0.6524988,-0.5584543,-0.39289004,15.459301948547363,-4.787683010101318,3.3227081298828125,-71.86503601074219,-122.02349090576172, -36.184207916259766
437,463702921,0.3114569,-0.65892744,-0.56466174,-0.3872552,15.09898567199707,-7.69973087310791,4.582813739776611,-53.53316116333008,-127.51957702636719, -37.262474060058594
438,463719588,0.29421926,-0.66505075,-0.56990135,-0.38256392,15.305306434631348,-10.233203887939453,7.933499336242676,-59.412044525146484,-120.83560943603516, -36.43495178222656
439,463736255,0.27352056,-0.67198455,-0.57287323,-0.38136563,14.75738525390625,-10.658860206604004,1.973604440689087,-96.67642974853516,-116.36653900146484, -39.35645294189453
440,463752922,0.2520156,-0.6787956,-0.57649183,-0.37865832,16.466259002685547,-9.753609657287598,-3.8134665489196777,-92.67606353759766,-127.6322250366211, -42.412384033203125
441,463769589,0.23223743,-0.6847201,-0.5789329,-0.3769099,14.553354263305664,-5.769561767578125,-3.8820695877075195,-90.10095977783203,-112.0683364868164, -37.866451263427734
442,463786256,0.20996262,-0.6899537,-0.5778967,-0.3819885,16.90106201171875,-6.363609313964844,-1.4261534214019775,-137.03277587890625,-82.5923843383789, -41.8100700378418
443,463802923,0.2072309,-0.6890399,-0.58022213,-0.3816044,7.946946144104004,-8.972387313842773,7.352907657623291,-5.00102424621582,-19.74092674255371, -23.168045043945312
444,463819590,0.2120005,-0.68619186,-0.5795463,-0.38512707,7.401347637176514,-0.8929189443588257,6.034847259521484,9.741413116455078,37.802093505859375, -2.7358992099761963
445,463836257,0.21578081,-0.68435645,-0.5719041,-0.3975181,7.481198787689209,-0.8036418557167053,2.980120897293091,-50.13756561279297,83.00532531738281, 18.586305618286133
446,463852924,0.22341408,-0.6825169,-0.5592891,-0.41406867,7.19281005859375,-1.9866888523101807,2.920856475830078,-61.92193603515625,125.04580688476562, 46.27339553833008
447,463869591,0.23410037,-0.6812956,-0.54095924,-0.43404678,7.019792556762695,-3.570209503173828,3.1451292037963867,-77.9887466430664,159.84881591796875, 78.80264282226562
448,463886258,0.25311047,-0.67890996,-0.5199656,-0.45238498,7.092584133148193,-4.694201946258545,1.9220954179763794,-38.99040603637695,190.85128784179688, 114.30841064453125
449,463902925,0.2793373,-0.67521924,-0.49708828,-0.46792427,7.738891124725342,-3.1070456504821777,1.971183180809021,1.084891438484192,210.91395568847656, 145.6375732421875
450,463919592,0.31122842,-0.6695414,-0.472443,-0.48129934,9.6157808303833,-2.3175086975097656,0.6516642570495605,32.89305114746094,229.9980926513672, 169.39053344726562
451,463936259,0.34870297,-0.66018385,-0.44730985,-0.49242032,10.880850791931152,-0.01771518960595131,-0.005786895751953125,72.17544555664062,250.9893798828125, 182.99546813964844
452,463952926,0.38696784,-0.64909285,-0.4194817,-0.502961,12.079947471618652,1.0789058208465576,-0.6336931586265564,72.57923126220703,263.14398193359375, 194.06112670898438
453,463969593,0.42582765,-0.63540703,-0.38998485,-0.51267993,14.069315910339355,2.6821000576019287,-1.170164942741394,78.74917602539062,274.6754455566406, 198.4087677001953
454,463986260,0.4631972,-0.61895686,-0.35881072,-0.523064,15.716509819030762,3.231065034866333,-1.4894399642944336,72.64036560058594,288.3489685058594, 191.32020568847656
455,464002927,0.49938273,-0.5996764,-0.3269934,-0.5329924,16.785903930664062,1.4315389394760132,-2.3781185150146484,75.42555236816406,295.8671875, 184.49559020996094
456,464019594,0.53552413,-0.5766281,-0.29564822,-0.5415774,18.240659713745117,0.281643807888031,-2.5614075660705566,92.931640625,302.6349792480469, 178.7323455810547
457,464036261,0.57048726,-0.5504835,-0.26532224,-0.5487408,19.696481704711914,-0.09323101490736008,-3.347372055053711,106.36324310302734,302.63580322265625, 169.44163513183594
458,464052928,0.6040474,-0.5215155,-0.23773597,-0.5537417,20.354631423950195,-1.8160256147384644,-4.791649341583252,126.44491577148438,292.110595703125, 157.32266235351562
459,464069595,0.638805,-0.4880993,-0.21562682,-0.5542495,20.970027923583984,-3.720867156982422,-6.4361252784729,177.4528045654297,272.5628662109375, 153.8158416748047
460,464086262,0.67249155,-0.4476306,-0.20099267,-0.5540613,20.433788299560547,10.241743087768555,-5.9553632736206055,234.44569396972656,263.1947326660156, 117.37391662597656
461,464102929,0.6888166,-0.42637202,-0.17894983,-0.5583154,15.083880424499512,4.301668167114258,-11.596966743469238,57.59004592895508,214.4110565185547, 80.37117004394531
462,464119596,0.69684905,-0.41820312,-0.16043444,-0.5601502,9.462685585021973,8.123279571533203,-17.223661422729492,-12.086565971374512,130.6553955078125, 66.00032043457031
463,464136263,0.69437295,-0.42401507,-0.15113948,-0.56143963,7.947066307067871,1.639075756072998,-17.58287811279297,-72.98774719238281,19.933107376098633, 17.389636993408203
464,464152930,0.69204515,-0.42789182,-0.16045773,-0.5587805,10.439311981201172,1.554738163948059,-15.266815185546875,12.921390533447266,-72.39817810058594, -19.273975372314453
465,464169597,0.68849933,-0.4327707,-0.17804672,-0.5540557,12.08403491973877,3.131681442260742,-10.924581527709961,38.83266830444336,-122.58021545410156, -37.22152328491211
466,464186264,0.683459,-0.43959522,-0.19857556,-0.5479123,13.819689750671387,2.9384231567382812,-7.6017327308654785,38.129493713378906,-149.53465270996094, -42.49896240234375
467,464202931,0.6779856,-0.44588107,-0.2217529,-0.5406953,14.252830505371094,2.571737051010132,-6.359267711639404,50.90226745605469,-163.4799346923828, -47.67865753173828
468,464219598,0.67234194,-0.4514434,-0.24602331,-0.5325675,13.692155838012695,0.9545206427574158,-6.000277042388916,59.3115119934082,-168.6670684814453, -48.39970016479492
469,464236265,0.66661245,-0.4579187,-0.2671249,-0.5240064,14.555362701416016,-4.919854164123535,-0.4013705551624298,43.94833755493164,-158.55763244628906, -35.33590316772461
470,464252932,0.66439074,-0.46202856,-0.28328234,-0.5146513,12.761460304260254,-7.939621448516846,9.404555320739746,49.62876892089844,-123.35099029541016, -7.894789695739746
471,464269599,0.6599608,-0.46689323,-0.2965281,-0.508462,13.685866355895996,3.767223358154297,3.5492777824401855,22.682666778564453,-107.15464782714844, -19.63507843017578
472,464286266,0.6528918,-0.4730776,-0.30974236,-0.5039739,16.946596145629883,1.7558194398880005,-3.818131923675537,4.595324516296387,-111.59441375732422, -33.64999008178711
473,464302933,0.64526266,-0.47996825,-0.32332325,-0.4987275,14.006889343261719,-3.2275357246398926,-1.456963300704956,2.502040147781372,-119.16136932373047, -31.760461807250977
474,464319600,0.63996565,-0.48415223,-0.33792832,-0.49177778,10.674543380737305,-4.028404235839844,-1.8652297258377075,29.55345344543457,-114.78683471679688, -25.652202606201172
475,464336267,0.63638127,-0.4853018,-0.3532796,-0.484453,10.60862922668457,-0.970190167427063,-0.14008426666259766,52.05597686767578,-105.03609466552734, -27.85955238342285
476,464352934,0.63255614,-0.4863241,-0.36660543,-0.47849986,9.91677474975586,-1.7041866779327393,0.4114008843898773,41.742042541503906,-91.76903533935547, -28.25885009765625
477,464369601,0.6298464,-0.48611933,-0.3787896,-0.472758,10.645171165466309,-2.4600670337677,-0.7329351902008057,46.508148193359375,-79.283447265625, -24.852001190185547
478,464386268,0.6273454,-0.48516962,-0.38975963,-0.46811974,11.494847297668457,-0.26496177911758423,0.056924447417259216,43.6098518371582,-67.37284088134766, -26.913976669311523
479,464402935,0.6235093,-0.48616272,-0.3976635,-0.46555972,11.155473709106445,-0.9817658066749573,-0.03372737392783165,15.318367958068848,-57.071380615234375, -24.740966796875
480,464419602,0.61937726,-0.48794186,-0.40419212,-0.4635877,10.864374160766602,-1.6227847337722778,-0.04693007096648216,4.925372123718262,-52.5727424621582, -21.471025466918945
481,464436269,0.6148343,-0.49013183,-0.41042736,-0.46184352,10.498066902160645,-1.207779884338379,0.9951969385147095,0.2210337519645691,-53.06166458129883, -21.64455795288086
482,464452936,0.60964704,-0.49270162,-0.4173491,-0.4597778,10.286507606506348,-1.5177416801452637,0.360789954662323,-0.4999927878379822,-60.160438537597656, -23.586759567260742
483,464469603,0.60363626,-0.4954173,-0.4253389,-0.4574628,11.37447738647461,-1.6364994049072266,1.3851745128631592,0.17659656703472137,-68.38179016113281, -28.369009017944336
484,464486270,0.59664357,-0.49901053,-0.4329532,-0.45558396,10.788961410522461,-1.9166898727416992,2.0714564323425293,-9.292112350463867,-71.07750701904297, -29.44339942932129
485,464502937,0.58789504,-0.504311,-0.44040078,-0.4539792,10.224783897399902,-1.7101502418518066,0.994597315788269,-23.685914993286133,-80.1648941040039, -30.44015884399414
486,464519604,0.57757294,-0.5110824,-0.44758743,-0.45262563,9.55204963684082,-1.3133083581924438,1.6075106859207153,-36.681278228759766,-87.70951080322266, -31.024824142456055
487,464536271,0.5663618,-0.51880187,-0.45480248,-0.4508146,9.255069732666016,-1.2601348161697388,1.1438995599746704,-42.09741973876953,-95.25599670410156, -29.16462516784668
488,464552938,0.5548919,-0.52643627,-0.4630881,-0.4477831,9.081930160522461,-0.7274655699729919,0.519750714302063,-35.576168060302734,-104.45240020751953, -29.310224533081055
489,464569605,0.54306674,-0.5338995,-0.47274652,-0.4433293,9.177398681640625,-0.622525691986084,-0.03607230633497238,-27.459369659423828,-115.55284118652344, -30.498109817504883
490,464586272,0.53181326,-0.5405766,-0.4839198,-0.43677637,9.598261833190918,-1.1729862689971924,0.2939304709434509,-10.986539840698242,-124.75372314453125, -29.04634666442871
491,464602939,0.52184105,-0.54596496,-0.49619284,-0.42824885,10.59036636352539,-1.028351068496704,-0.4697685241699219,8.338456153869629,-128.0841522216797, -26.39076042175293
492,464619606,0.5123506,-0.5505763,-0.5083806,-0.41941875,11.513669967651367,0.5180314779281616,-1.4741355180740356,13.728545188903809,-125.07228088378906, -26.25495147705078
493,464636273,0.50125,-0.5563025,-0.51868856,-0.41259962,11.769438743591309,1.9303624629974365,-1.5761065483093262,-8.73786735534668,-119.74771118164062, -26.95673179626465
494,464652940,0.48754525,-0.5640932,-0.52635187,-0.40872058,11.97007942199707,1.603942632675171,-0.7114239931106567,-43.79618453979492,-114.61271667480469, -26.936452865600586
495,464669607,0.47163478,-0.573665,-0.5316374,-0.40722355,12.833931922912598,0.40363311767578125,0.2205253392457962,-73.62789154052734,-110.5160903930664, -25.387853622436523
496,464686274,0.45444357,-0.5840837,-0.5353821,-0.40705472,13.168317794799805,0.23621413111686707,1.7279713153839111,-90.59063720703125,-107.5068130493164, -24.077728271484375
497,464702941,0.43706337,-0.5940594,-0.53885263,-0.40707162,14.100282669067383,0.44935405254364014,1.7844407558441162,-91.42549896240234,-105.58673858642578, -25.696149826049805
498,464719608,0.41922098,-0.60359395,-0.54247046,-0.40700632,15.106034278869629,-0.2836589813232422,3.3304104804992676,-91.27259826660156,-107.08104705810547, -28.96333122253418
499,464736275,0.400479,-0.6129939,-0.546103,-0.40697277,15.53023910522461,-1.2966163158416748,3.625112533569336,-94.708251953125,-110.26625061035156, -32.152462005615234
500,464752942,0.38014606,-0.62287045,-0.5505247,-0.40551737,15.872220993041992,-3.4297070503234863,3.688389778137207,-95.20025634765625,-126.05052947998047, -34.2816047668457
501,464769609,0.35959905,-0.6320425,-0.55580336,-0.4028569,16.24879264831543,-5.390166759490967,6.315649032592773,-87.35590362548828,-132.6105499267578, -38.192909240722656
502,464786276,0.33796766,-0.6399733,-0.5618244,-0.4007068,17.033254623413086,-9.594266891479492,6.648113250732422,-88.95413970947266,-133.3263397216797, -50.61460876464844
503,464802943,0.31716207,-0.64760673,-0.5665278,-0.39882383,16.834388732910156,-10.740957260131836,2.5786755084991455,-89.3963623046875,-125.48560333251953, -44.61438751220703
504,464819610,0.29265934,-0.6572875,-0.568868,-0.39838824,16.133590698242188,-10.740814208984375,-2.9214344024658203,-122.57852172851562,-134.1914825439453, -39.742942810058594
505,464836277,0.27056944,-0.6671026,-0.5686554,-0.39799204,13.14191722869873,-6.920104026794434,-5.615858554840088,-119.24405670166016,-119.9265365600586, -21.47087860107422
506,464852944,0.24758422,-0.67614836,-0.5640418,-0.40420622,14.936651229858398,-3.231098175048828,-3.464724063873291,-159.92945861816406,-82.81407165527344, -19.263246536254883
507,464869611,0.23628472,-0.68052155,-0.5589864,-0.41060248,8.179837226867676,-11.543089866638184,8.716111183166504,-99.62205505371094,-22.994150161743164, -3.3162240982055664
508,464886278,0.23617305,-0.681092,-0.5525428,-0.41836908,4.523283958435059,-1.5543615818023682,9.199607849121094,-50.417884826660156,39.10836410522461, 17.596572875976562
509,464902945,0.23351142,-0.68265975,-0.53856665,-0.43519452,5.792462348937988,-0.14928749203681946,4.193630218505859,-120.04235076904297,80.9905776977539, 34.5352668762207
510,464919612,0.2379697,-0.6828384,-0.5213467,-0.45310035,6.860137939453125,-4.327845096588135,2.166545867919922,-98.07391357421875,121.70726776123047, 64.12605285644531
511,464936279,0.25483444,-0.6797321,-0.5045317,-0.46740964,6.305464744567871,-4.203034400939941,2.8531558513641357,-20.32054901123047,158.8135986328125, 94.84053802490234
512,464952946,0.2800487,-0.67393774,-0.48656887,-0.48024094,6.633088111877441,-3.0139269828796387,3.130195379257202,24.831295013427734,191.45614624023438, 120.21066284179688
513,464969613,0.3102911,-0.66623056,-0.4656438,-0.4929832,7.700931072235107,-2.2860465049743652,2.780024528503418,42.331111907958984,219.8167266845703, 144.27540588378906
514,464986280,0.34459448,-0.656314,-0.44235742,-0.5048037,9.54491138458252,-1.9626154899597168,1.478317141532898,60.6042366027832,241.06349182128906, 163.74673461914062
515,465002947,0.38340288,-0.6429052,-0.41823873,-0.5145404,11.176880836486816,-0.9896163940429688,0.12160691618919373,92.66230010986328,259.4317321777344, 177.4913330078125
516,465019614,0.42475,-0.62589747,-0.39342436,-0.5225488,12.81324577331543,0.983623206615448,-0.8912436962127686,115.89935302734375,273.6779479980469, 183.84616088867188
517,465036281,0.46495387,-0.60635656,-0.36681914,-0.53065413,14.973362922668457,2.8522555828094482,-1.3423888683319092,111.66798400878906,285.40216064453125, 180.47323608398438
518,465052948,0.5032187,-0.5846867,-0.3393565,-0.53828424,16.230884552001953,1.4433144330978394,-2.037548065185547,108.47760772705078,289.14898681640625, 173.34716796875
519,465069615,0.5408306,-0.55959004,-0.31213483,-0.5449159,17.48531723022461,0.6470376253128052,-2.3506805896759033,120.91981506347656,295.6461181640625, 165.62542724609375
520,465086282,0.5764619,-0.5324173,-0.2838302,-0.5510574,19.205198287963867,-0.6609206795692444,-2.4901485443115234,117.99729919433594,301.55584716796875, 159.93067932128906
521,465102949,0.6094879,-0.5045237,-0.2547873,-0.5559353,20.292692184448242,-1.7710447311401367,-4.215077877044678,111.00355529785156,297.78424072265625, 156.54017639160156
522,465119616,0.64095163,-0.4758915,-0.22799426,-0.55742925,19.921375274658203,-3.437649965286255,-6.1373090744018555,123.23052215576172,277.08831787109375, 155.79925537109375
523,465136283,0.67319936,-0.44264522,-0.20737386,-0.5548552,19.50157356262207,-1.0273149013519287,-6.832382678985596,176.3092041015625,255.93882751464844, 149.44744873046875
524,465152950,0.70088154,-0.40821812,-0.18994471,-0.5532128,19.03412437438965,11.474427223205566,-6.107995986938477,178.76947021484375,242.50184631347656, 116.45120239257812
525,465169617,0.71027225,-0.39712048,-0.16323638,-0.55781966,12.525911331176758,5.454078197479248,-11.035334587097168,-28.68552017211914,192.60752868652344, 73.59309387207031
526,465186284,0.71435547,-0.39513168,-0.1442079,-0.55925995,8.185530662536621,4.864229202270508,-17.589420318603516,-54.48521423339844,105.93765258789062, 58.287906646728516
527,465202951,0.7104771,-0.40383872,-0.13687237,-0.5598238,8.118158340454102,0.9526463150978088,-16.105554580688477,-82.6493148803711,-2.446776866912842, 11.045082092285156
528,465219618,0.70643055,-0.41093928,-0.14545381,-0.55760956,11.137136459350586,2.4526472091674805,-14.352729797363281,-11.13263988494873,-81.5079574584961, -21.560834884643555
529,465236285,0.70090306,-0.41894445,-0.1602043,-0.554577,13.122048377990723,4.641228675842285,-9.65733528137207,4.9007344245910645,-118.288330078125, -39.64787292480469
530,465252952,0.69438744,-0.42792836,-0.17843956,-0.5503299,13.85848331451416,2.203883409500122,-8.255182266235352,12.008342742919922,-143.0248260498047, -46.34220886230469
531,465269619,0.68889815,-0.43482637,-0.20162606,-0.54377604,14.506088256835938,-0.4295687675476074,-8.579947471618652,46.60631561279297,-163.9345703125, -48.47866439819336
532,465286286,0.6846965,-0.43983182,-0.22823477,-0.53446025,15.638203620910645,-2.871628522872925,-6.040280818939209,76.23210906982422,-179.20358276367188, -43.3761100769043
533,465302953,0.6849364,-0.43927452,-0.25420114,-0.5227639,15.848372459411621,-6.6866230964660645,8.475062370300293,117.27053833007812,-155.60113525390625, -22.763465881347656
534,465319620,0.6854845,-0.43573248,-0.27801758,-0.512791,13.272814750671387,3.9806199073791504,7.470245838165283,121.60289764404297,-129.08245849609375, -28.647319793701172
535,465336287,0.6829923,-0.43436304,-0.29820713,-0.50588846,15.255781173706055,5.07102632522583,-1.1169712543487549,83.48822784423828,-116.3453598022461, -38.765380859375
536,465352954,0.6782815,-0.43590456,-0.31509623,-0.50063574,12.936136245727539,0.59662926197052,-0.7426490783691406,48.26708221435547,-110.43782806396484, -38.28739547729492
537,465369621,0.6754738,-0.4362869,-0.33053976,-0.49409783,10.359367370605469,-4.5211358070373535,-2.460313081741333,57.1713981628418,-99.34219360351562, -23.926860809326172
538,465386288,0.6756899,-0.43267334,-0.3474475,-0.4853012,11.072295188903809,-4.380677700042725,-3.155046224594116,94.9926986694336,-92.37796783447266, -16.804523468017578
539,465402955,0.6753985,-0.42870414,-0.36354542,-0.47737256,11.37122631072998,-1.2703255414962769,-1.0974377393722534,90.42529296875,-85.93592834472656, -21.154579162597656
540,465419622,0.67367226,-0.42620403,-0.37727252,-0.4713613,11.65395450592041,-0.521553635597229,0.07943183183670044,66.80253601074219,-77.63274383544922, -24.196502685546875
541,465436289,0.67040515,-0.42639196,-0.38819355,-0.46696126,11.713711738586426,-0.4283709228038788,0.5248520970344543,36.54283905029297,-72.62191009521484, -21.499374389648438
542,465452956,0.6651306,-0.42987764,-0.39636192,-0.46443957,10.969048500061035,-0.7574527859687805,0.6835797429084778,1.5727967023849487,-70.40336608886719, -19.737659454345703
543,465469623,0.65869075,-0.43544975,-0.40317047,-0.46256217,10.333135604858398,-1.9449799060821533,0.8107261061668396,-17.532724380493164,-72.17578125, -16.692188262939453
544,465486290,0.6529716,-0.4397507,-0.41111356,-0.45960125,10.499218940734863,-1.2152215242385864,0.6384075284004211,-3.0068137645721436,-74.59538269042969, -16.433881759643555
545,465502957,0.6464534,-0.44433394,-0.41927224,-0.45703006,10.54051399230957,-0.6442630887031555,0.6784629225730896,-7.131097316741943,-77.61012268066406, -20.574153900146484
546,465519624,0.6390519,-0.449585,-0.42669252,-0.45543373,11.437612533569336,-0.3911370038986206,1.610307216644287,-17.943679809570312,-76.07827758789062, -23.489816665649414
547,465536291,0.6306041,-0.45629656,-0.43236217,-0.45518693,10.429268836975098,-1.6672661304473877,1.9017537832260132,-37.07528305053711,-71.96915435791016, -22.96575355529785
548,465552958,0.62158376,-0.463233,-0.43830234,-0.4549067,10.118999481201172,-1.2523611783981323,1.0906622409820557,-38.91847610473633,-75.78768157958984, -24.788864135742188
549,465569625,0.61199653,-0.4704664,-0.44439846,-0.45456785,9.620988845825195,-1.7324353456497192,1.2283527851104736,-41.34614562988281,-79.39226531982422, -25.900623321533203
550,465586292,0.60216945,-0.4778718,-0.45085627,-0.4536071,9.530831336975098,-1.978747010231018,0.8049628734588623,-39.83938217163086,-84.31903839111328, -24.68720245361328
551,465602959,0.59256375,-0.4848412,-0.45828372,-0.45141274,9.530057907104492,-1.7368580102920532,0.609227180480957,-30.463712692260742,-90.45330047607422, -23.4476261138916
552,465619626,0.5830082,-0.49142447,-0.4670635,-0.4477224,9.724584579467773,-1.351227879524231,-0.04930221289396286,-19.82688331604004,-99.69982147216797, -22.947998046875
553,465636293,0.5734792,-0.49762353,-0.47699437,-0.44268414,9.971861839294434,-1.0811859369277954,0.41797125339508057,-10.326153755187988,-107.68948364257812, -22.610456466674805
554,465652960,0.56427,-0.503268,-0.4878346,-0.43627796,10.442117691040039,-1.0049430131912231,-0.06550082564353943,0.20134447515010834,-113.32112121582031, -21.199705123901367
555,465669627,0.5547481,-0.5088469,-0.49894822,-0.42939574,10.911930084228516,-0.49929526448249817,-0.3085867166519165,1.7853647470474243,-116.97069549560547, -21.483673095703125
556,465686294,0.5442313,-0.515177,-0.5095181,-0.42284358,11.187335014343262,-0.057699330151081085,-0.6137657761573792,-7.30588960647583,-119.46395874023438, -21.210309982299805
557,465702961,0.5322354,-0.5229757,-0.51878196,-0.4172382,11.44244384765625,0.41104385256767273,-0.49284833669662476,-25.157611846923828,-120.7666244506836, -19.27157974243164
558,465719628,0.51839566,-0.5324567,-0.52629906,-0.41323796,12.058165550231934,1.0609469413757324,0.18900999426841736,-48.676124572753906,-120.11489868164062, -18.1184139251709
559,465736295,0.5023301,-0.54328597,-0.53224725,-0.41136113,12.937297821044922,1.5536209344863892,0.7793883681297302,-73.78564453125,-118.77943420410156, -21.32303810119629
560,465752962,0.48405352,-0.5553366,-0.5369527,-0.41106674,14.182747840881348,0.6498834490776062,1.8431942462921143,-95.56114959716797,-120.30437469482422, -23.846376419067383
561,465769629,0.46477875,-0.5677464,-0.54093075,-0.41114336,15.091057777404785,-0.5844040513038635,2.68168568611145,-104.01222229003906,-121.39688873291016, -23.73744773864746
562,465786296,0.44497672,-0.57967436,-0.54493535,-0.41111916,15.436384201049805,-1.994194746017456,3.0184457302093506,-104.08167266845703,-122.74470520019531, -26.789043426513672
563,465802963,0.4245886,-0.591067,-0.54954785,-0.41031918,16.247520446777344,-3.578378677368164,2.633854866027832,-100.1819076538086,-128.66659545898438, -30.53516960144043
564,465819630,0.40376112,-0.6023449,-0.55414116,-0.4087611,16.463537216186523,-5.421289920806885,4.919480323791504,-98.84504699707031,-133.31211853027344, -30.012025833129883
565,465836297,0.38181654,-0.61335975,-0.557625,-0.40873042,16.13842010498047,-6.359314918518066,7.446561813354492,-111.73181915283203,-127.78408813476562, -33.951385498046875
566,465852964,0.35979822,-0.62235904,-0.5600101,-0.41182956,15.615032196044922,-9.012613296508789,8.710073471069336,-121.90904235839844,-106.74591064453125, -45.662471771240234
567,465869631,0.3361581,-0.6330082,-0.5583318,-0.41780895,14.597723960876465,-10.28929615020752,0.9695395827293396,-155.63079833984375,-95.73783111572266, -33.917991638183594
568,465886298,0.30888125,-0.646263,-0.55422187,-0.42399877,14.469721794128418,-8.975712776184082,-6.587251663208008,-185.39967346191406,-110.85681915283203, -24.58284568786621
569,465902965,0.28870875,-0.65588987,-0.55079746,-0.4278766,15.609445571899414,-3.2852652072906494,-5.347988605499268,-135.41180419921875,-84.91277313232422, -16.104642868041992
570,465919632,0.26963982,-0.66215664,-0.5450298,-0.43793347,10.989677429199219,-8.843133926391602,3.6914827823638916,-154.10398864746094,-38.36652374267578, -27.41973114013672
571,465936299,0.2727849,-0.66088474,-0.5433471,-0.4399932,4.896487236022949,-6.553851127624512,9.31739616394043,3.181328296661377,23.36316680908203, 7.182821750640869
572,465952966,0.27855232,-0.65911835,-0.5367013,-0.44712803,5.050065994262695,1.3232077360153198,6.619355201721191,-17.991689682006836,66.72811126708984, 26.12447166442871
573,465969633,0.2843134,-0.6577798,-0.52435935,-0.45993388,7.187264919281006,-0.7698575854301453,3.3431358337402344,-57.24166488647461,101.80171203613281, 42.65805435180664
574,465986300,0.29798052,-0.65441674,-0.50932515,-0.47279438,7.218451023101807,-3.670905351638794,2.9063284397125244,-26.225505828857422,142.0950164794922, 72.38333129882812
575,466002967,0.31981266,-0.64879614,-0.49314675,-0.48331147,6.363550186157227,-5.109870910644531,2.5395514965057373,19.604267120361328,169.715576171875, 100.86954498291016
576,466019634,0.3487941,-0.6405435,-0.4756039,-0.49178016,7.0326361656188965,-3.873277187347412,2.1129226684570312,59.67643737792969,196.48043823242188, 126.18248748779297
577,466036301,0.3813607,-0.6303275,-0.45519522,-0.50004894,8.728874206542969,-2.1590051651000977,1.6684012413024902,71.1265640258789,220.7612762451172, 144.92730712890625
578,466052968,0.41760862,-0.6170655,-0.43255773,-0.5076685,10.243979454040527,-1.1185964345932007,0.5283302664756775,89.43988800048828,245.7301025390625, 159.4219512939453
579,466069635,0.45574844,-0.60092396,-0.4074273,-0.51496315,11.839844703674316,0.9230219125747681,-0.6033185124397278,97.99832153320312,267.1779479980469, 169.0287628173828
580,466086302,0.4927392,-0.5832603,-0.37911853,-0.5227667,13.993345260620117,2.2761824131011963,-1.3953155279159546,85.35072326660156,281.4500732421875, 172.35708618164062
581,466102969,0.52760476,-0.5647314,-0.3478843,-0.5307433,15.645956993103027,2.1346755027770996,-1.834031105041504,68.78446960449219,289.72698974609375, 173.7838592529297
582,466119636,0.5606138,-0.5448088,-0.31510556,-0.5381488,16.664541244506836,1.7362544536590576,-2.484264850616455,62.33028030395508,293.9252014160156, 171.92445373535156
583,466136303,0.59249043,-0.5229729,-0.28134632,-0.5443334,18.288469314575195,0.38064464926719666,-2.7193500995635986,64.48400115966797,297.98516845703125, 172.16033935546875
584,466152970,0.6236249,-0.49854487,-0.2486535,-0.54837644,19.414546966552734,-0.5986048579216003,-3.3103389739990234,80.48518371582031,294.5010986328125, 169.42613220214844
585,466169637,0.65348,-0.4722029,-0.21927984,-0.54945886,19.64993667602539,-1.6362472772598267,-4.475985527038574,101.93650817871094,275.47900390625, 162.83181762695312
586,466186304,0.6843346,-0.4410599,-0.19609909,-0.5465327,19.886899948120117,-1.9538520574569702,-5.821697235107422,156.26426696777344,254.71319580078125, 157.4399871826172
587,466202971,0.7148783,-0.40065753,-0.18141466,-0.5436097,19.388877868652344,9.833643913269043,-4.989266872406006,230.9595947265625,249.63082885742188, 118.17472076416016
588,466219638,0.7326083,-0.3742725,-0.16311218,-0.54460984,15.126103401184082,3.1108546257019043,-9.07112979888916,108.15892791748047,210.30043029785156, 78.79472351074219
589,466236305,0.7441346,-0.35922745,-0.14876208,-0.5432215,10.02878475189209,7.507883548736572,-15.278579711914062,52.403141021728516,135.42408752441406, 70.13289642333984
590,466252972,0.74420714,-0.3624742,-0.1397102,-0.5433688,6.843270301818848,2.853057384490967,-15.867021560668945,-51.00437545776367,32.46315002441406, 25.580551147460938
591,466269639,0.7427415,-0.36541164,-0.14789774,-0.5412357,10.110893249511719,1.3432906866073608,-14.952326774597168,13.50186824798584,-61.32888412475586, -11.609199523925781
592,466286306,0.7392053,-0.36933208,-0.16522554,-0.53839576,12.164142608642578,4.098434925079346,-11.565387725830078,38.24632263183594,-115.0855712890625, -37.49995040893555
593,466302973,0.7334673,-0.37676123,-0.18530473,-0.5345458,13.812993049621582,2.005521297454834,-9.367441177368164,26.164215087890625,-146.6178741455078, -43.42311477661133
594,466319640,0.7274743,-0.38338485,-0.20927234,-0.5291527,14.749837875366211,1.6812366247177124,-8.335248947143555,45.901283264160156,-167.125244140625, -47.57133483886719
595,466336307,0.72067624,-0.3903088,-0.2349152,-0.5225897,14.940074920654297,0.015437755733728409,-7.678586006164551,50.26740646362305,-180.44227600097656, -48.44355010986328
596,466352974,0.71418244,-0.3987231,-0.2558281,-0.5152823,15.998655319213867,-9.19970703125,3.945152759552002,27.897388458251953,-163.38389587402344, -28.598764419555664
597,466369641,0.7115246,-0.4003575,-0.2757243,-0.5073687,12.748750686645508,-1.8571856021881104,8.408270835876465,69.34241485595703,-129.15892028808594, -21.33596420288086
598,466386308,0.70550805,-0.40546995,-0.29181477,-0.50268966,14.568929672241211,3.8368771076202393,-1.4402899742126465,23.708328247070312,-120.23563385009766, -31.801239013671875
599,466402975,0.69817144,-0.41130507,-0.30677822,-0.49927175,15.523475646972656,0.2957213222980499,-3.1256372928619385,10.029752731323242,-116.18254089355469, -37.7501335144043
600,466419642,0.69153076,-0.41687506,-0.32092887,-0.4949803,11.909364700317383,-4.743946552276611,-1.8421274423599243,12.354536056518555,-112.1219711303711, -29.35045623779297
601,466436309,0.689131,-0.41606376,-0.33800983,-0.487585,10.965020179748535,-3.6636910438537598,-2.0774595737457275,71.76676940917969,-103.73733520507812, -22.780445098876953
602,466452976,0.6872645,-0.41312474,-0.3547645,-0.48076808,10.68259334564209,-0.6666180491447449,0.38186150789260864,81.00463104248047,-92.0403060913086, -27.921911239624023
603,466469643,0.6853158,-0.41000494,-0.36941585,-0.47515315,10.744624137878418,-2.1670873165130615,0.30920177698135376,71.70539855957031,-78.25863647460938, -28.450605392456055
604,466486310,0.68373775,-0.40639836,-0.38278186,-0.4699165,11.44647216796875,-0.5111060738563538,-0.4119974672794342,69.88743591308594,-68.5943374633789, -26.770212173461914
605,466502977,0.6803371,-0.40602443,-0.39259467,-0.46707106,11.040986061096191,-0.24524542689323425,-0.12764254212379456,31.788400650024414,-60.4279670715332, -25.52429962158203
606,466519644,0.6763101,-0.40784568,-0.399998,-0.4650464,10.437894821166992,-1.5318032503128052,-0.23298226296901703,9.784845352172852,-55.621238708496094, -18.736446380615234
607,466536311,0.6715016,-0.4108251,-0.40691727,-0.46338642,10.600443840026855,-0.5817325711250305,0.6656391024589539,-0.3555857241153717,-58.23489761352539, -18.41966438293457
608,466552978,0.66570485,-0.4149333,-0.4139068,-0.46189728,10.614371299743652,-0.0722009465098381,0.5197404623031616,-8.63994312286377,-64.51130676269531, -19.387027740478516
609,466569645,0.65824026,-0.42047104,-0.42127374,-0.46092612,10.629262924194336,0.011003484949469566,0.7450518012046814,-20.262296676635742,-74.12409973144531, -24.032236099243164
610,466586312,0.64952755,-0.42692375,-0.4280463,-0.46111476,11.550068855285645,-0.6779565215110779,3.135584831237793,-33.286041259765625,-74.69316864013672, -28.815305709838867
611,466602979,0.6404933,-0.43403566,-0.43398482,-0.4615614,10.621329307556152,-1.7852312326431274,1.199788212776184,-40.625953674316406,-73.4258041381836, -26.55615234375
612,466619646,0.630143,-0.44206712,-0.44046688,-0.4620453,9.909997940063477,-1.6788337230682373,1.3254694938659668,-47.010135650634766,-82.6810531616211, -29.76435661315918
613,466636313,0.62002414,-0.44948635,-0.4479358,-0.46139577,9.330784797668457,-1.8207062482833862,1.3546696901321411,-37.111656188964844,-87.89751434326172, -28.968631744384766
614,466652980,0.6102205,-0.45636642,-0.45694074,-0.4588748,9.411930084228516,-1.951067328453064,0.776099443435669,-23.213096618652344,-97.6990966796875, -26.422027587890625
615,466669647,0.60056794,-0.4627088,-0.46736392,-0.4547417,9.432809829711914,-1.4250966310501099,0.41020146012306213,-10.957721710205078,-106.6676025390625, -25.366661071777344
616,466686314,0.59128124,-0.46824378,-0.47955936,-0.44850588,9.656774520874023,-1.8325086832046509,0.5316730737686157,5.834975719451904,-117.09375762939453, -23.820858001708984
617,466702981,0.58242774,-0.4729026,-0.4929207,-0.44064796,10.257828712463379,-1.4335116147994995,-0.22690458595752716,19.739727020263672,-123.0514907836914, -22.610347747802734
618,466719648,0.57325584,-0.47770917,-0.5061686,-0.43239492,10.965378761291504,-0.3949330747127533,-0.8758497834205627,19.097421646118164,-125.50865936279297, -21.197269439697266
619,466736315,0.56235796,-0.48426852,-0.51783395,-0.42554206,11.413918495178223,0.6056835055351257,-0.793467104434967,-3.065964937210083,-125.9804916381836, -20.572254180908203
620,466752982,0.5493535,-0.49323228,-0.52750087,-0.42032838,11.211441993713379,0.18253560364246368,-0.3291878402233124,-31.065561294555664,-127.43601989746094, -17.827423095703125
621,466769649,0.5352609,-0.50364226,-0.5355829,-0.41592255,11.702112197875977,0.46825700998306274,-0.42437487840652466,-47.725406646728516,-126.97806549072266, -13.365913391113281
622,466786316,0.519708,-0.5150501,-0.5422288,-0.41305634,12.699894905090332,1.8528193235397339,0.14176045358181,-66.24111938476562,-124.74453735351562, -14.499610900878906
623,466802983,0.50250405,-0.5272409,-0.5475508,-0.41194096,13.891988754272461,2.2037887573242188,1.1876085996627808,-85.18000030517578,-122.37984466552734, -17.722105026245117
624,466819650,0.48403275,-0.5398596,-0.55167335,-0.41221458,15.05112361907959,1.3014730215072632,2.50480318069458,-99.87155151367188,-119.4310073852539, -20.02198028564453
625,466836317,0.46517077,-0.5520944,-0.55467653,-0.41369346,15.57220458984375,1.098641037940979,3.410989761352539,-107.79995727539062,-111.93611145019531, -22.345640182495117
626,466852984,0.44516772,-0.56387436,-0.55776495,-0.41565633,15.946535110473633,-1.221032977104187,2.7111425399780273,-112.28771209716797,-113.78465270996094, -29.122732162475586
627,466869651,0.425182,-0.5747289,-0.56217283,-0.4157753,16.300437927246094,-4.304833889007568,3.865424633026123,-98.55403900146484,-122.59526824951172, -32.11088180541992
628,466886318,0.40550214,-0.58484685,-0.567221,-0.41446686,15.895722389221191,-6.378329277038574,5.196933746337891,-87.8756103515625,-127.19216918945312, -32.57453918457031
629,466902985,0.38623703,-0.593758,-0.5718394,-0.41385072,15.122688293457031,-8.949604034423828,6.838005065917969,-86.8214340209961,-118.56269073486328, -36.51255416870117
630,466919652,0.36768317,-0.60179806,-0.5742859,-0.41574523,14.711482048034668,-10.69296646118164,6.8948445320129395,-97.74420928955078,-97.71876525878906, -36.0094108581543
631,466936319,0.344311,-0.61327785,-0.5731851,-0.42047548,15.004866600036621,-9.314226150512695,-3.978632688522339,-147.83497619628906,-106.31634521484375, -29.04317283630371
632,466952986,0.3243263,-0.6235086,-0.5713293,-0.4238312,11.825156211853027,-7.7074689865112305,-7.319106101989746,-127.45487976074219,-93.4480209350586, -18.038137435913086
633,466969653,0.3049398,-0.6309064,-0.5691494,-0.43016082,18.2032470703125,-0.9973398447036743,-5.076457500457764,-131.29051208496094,-69.3083267211914, -32.912315368652344
634,466986320,0.29871053,-0.63161856,-0.56865066,-0.43412787,6.376011848449707,-12.157906532287598,7.393442630767822,-46.004329681396484,-11.932382583618164, -22.572668075561523
635,467002987,0.3075149,-0.62772435,-0.5676574,-0.4349278,4.16165018081665,-2.6363365650177,6.206268310546875,39.530582427978516,47.52988815307617, 12.570178031921387
636,467019654,0.31610155,-0.6244175,-0.5601186,-0.4432271,5.79201078414917,1.0124760866165161,3.775831699371338,-11.49950885772705,90.88526916503906, 26.532146453857422
637,467036321,0.3247939,-0.62222975,-0.5455008,-0.45800456,6.532101154327393,-1.7962181568145752,2.621896743774414,-59.965946197509766,130.91415405273438, 47.49456787109375
638,467052988,0.33689854,-0.62016255,-0.5256258,-0.4749901,6.245632648468018,-4.3355560302734375,2.5579819679260254,-70.46721649169922,164.4023895263672, 76.17658996582031
639,467069655,0.35621527,-0.6165368,-0.5030621,-0.4898184,6.493624687194824,-5.218286991119385,2.0509531497955322,-37.095542907714844,192.48764038085938, 110.41380310058594
640,467086322,0.38139558,-0.61116767,-0.4787029,-0.5018521,7.8541154861450195,-3.1314828395843506,2.0086441040039062,-4.349052906036377,211.11367797851562, 138.42901611328125
641,467102989,0.4103104,-0.6042778,-0.4522319,-0.51184016,9.77538776397705,-1.5760915279388428,0.7581431865692139,14.798048973083496,225.51341247558594, 160.4722900390625
642,467119656,0.4434782,-0.59416974,-0.4252937,-0.51905227,10.922476768493652,-0.46249669790267944,-0.2552697956562042,48.55845642089844,239.810791015625, 175.20420837402344
643,467136323,0.4796277,-0.58077556,-0.39794037,-0.52373755,12.240118980407715,0.31836575269699097,-0.760939359664917,76.69834899902344,251.20726013183594, 185.69952392578125
644,467152990,0.51703703,-0.56422514,-0.36949894,-0.5270615,14.365287780761719,2.4075729846954346,-1.1249324083328247,91.96918487548828,264.2203674316406, 190.55137634277344
645,467169657,0.5520587,-0.54635715,-0.33818412,-0.53137285,15.750061988830566,2.9412128925323486,-1.321148157119751,74.47710418701172,277.0688171386719, 186.39088439941406
646,467186324,0.58484465,-0.5273755,-0.30542865,-0.53529954,16.57602310180664,0.771515429019928,-1.9805409908294678,65.92093658447266,280.11810302734375, 182.73883056640625
647,467202991,0.6168332,-0.5058813,-0.27289593,-0.5377073,18.069324493408203,0.043417371809482574,-2.171661615371704,77.1314697265625,281.5157470703125, 180.01535034179688
648,467219658,0.647441,-0.4824904,-0.24101193,-0.5384578,19.302871704101562,-0.31890612840652466,-2.583223819732666,85.93096160888672,277.6954345703125, 176.3314666748047
649,467236325,0.676843,-0.456222,-0.21168064,-0.5375285,19.940202713012695,0.0772453024983406,-3.6369259357452393,106.9720458984375,269.7854919433594, 166.3023223876953
650,467252992,0.7058006,-0.4255354,-0.18702368,-0.53459126,19.718997955322266,-0.5511685609817505,-4.2052178382873535,146.38064575195312,257.869873046875, 153.1331024169922
651,467269659,0.73311627,-0.3889175,-0.16800687,-0.53203183,19.429710388183594,7.859991073608398,-4.4919281005859375,190.6685791015625,251.81443786621094, 121.30492401123047
652,467286326,0.7493195,-0.36484957,-0.1461502,-0.5329592,15.898113250732422,3.58351731300354,-8.742108345031738,83.15165710449219,217.1866912841797, 85.52733612060547
653,467302993,0.759949,-0.35080886,-0.12857786,-0.5318636,11.258191108703613,6.772508144378662,-14.561601638793945,35.144264221191406,148.30963134765625, 74.93797302246094
654,467319660,0.7606652,-0.3530772,-0.117179155,-0.5319721,7.606121063232422,4.24312162399292,-16.214536666870117,-52.39335632324219,51.07603454589844, 32.2143669128418
655,467336327,0.7590301,-0.35659,-0.12265073,-0.53072953,9.617072105407715,3.262491464614868,-15.570454597473145,-1.4680161476135254,-46.56700134277344, -8.82835578918457
656,467352994,0.7553606,-0.36071807,-0.13876428,-0.52920485,11.13934326171875,5.251742839813232,-11.852550506591797,29.55837059020996,-106.24853515625, -40.20494079589844
657,467369661,0.7497373,-0.36761335,-0.15875326,-0.5268323,12.860719680786133,3.401557207107544,-8.918038368225098,25.284109115600586,-139.92124938964844, -49.7303581237793
658,467386328,0.7434868,-0.3743088,-0.1824347,-0.5232956,14.050206184387207,2.693817138671875,-7.326104640960693,39.387454986572266,-161.37704467773438, -55.45700454711914
659,467402995,0.73636127,-0.38127705,-0.20783257,-0.5188506,14.72165298461914,-0.4977462589740753,-6.3289971351623535,43.13390350341797,-174.13253784179688, -57.89719772338867
660,467419662,0.72940236,-0.39133364,-0.22652537,-0.5133389,15.740270614624023,-11.956269264221191,6.110456466674805,5.636911869049072,-153.32887268066406, -29.860368728637695
661,467436329,0.7259655,-0.39465296,-0.2450719,-0.5071127,12.948041915893555,-3.8892040252685547,8.678885459899902,49.77410125732422,-125.20748138427734, -24.117706298828125
662,467452996,0.71955085,-0.4001605,-0.26329595,-0.50278616,15.385180473327637,2.4162025451660156,-1.582148790359497,26.41204261779785,-131.17169189453125, -39.523170471191406
663,467469663,0.71223634,-0.40541694,-0.28257987,-0.49850327,15.767261505126953,-0.44940638542175293,-1.8536711931228638,28.72548484802246,-136.8249053955078, -46.1142692565918
664,467486330,0.7044322,-0.41139674,-0.3007568,-0.4940382,11.496291160583496,-3.394836187362671,-0.9859493970870972,20.3868408203125,-135.1237030029297, -42.38685989379883
665,467502997,0.69986683,-0.41246057,-0.3202973,-0.4873117,10.087983131408691,-3.6584339141845703,-2.88191819190979,62.742610931396484,-124.64601135253906, -34.58089065551758
666,467519664,0.6970203,-0.41000825,-0.33994785,-0.48009568,10.160980224609375,-1.1591920852661133,-1.7100529670715332,86.06513977050781,-110.88643646240234, -34.732147216796875
667,467536331,0.69392914,-0.4078606,-0.35699818,-0.47398803,9.911234855651855,-1.8456506729125977,-0.8984919786453247,72.7353515625,-96.81436920166016, -32.9649772644043
668,467552998,0.6915978,-0.4045691,-0.37275937,-0.4680462,10.949786186218262,-1.1424713134765625,-0.6054254770278931,75.70701599121094,-84.59577941894531, -30.64223289489746
669,467569665,0.6879734,-0.40268394,-0.38586894,-0.4643747,11.275887489318848,1.581752061843872,0.24660268425941467,51.030303955078125,-73.51406860351562, -34.74036407470703
670,467586332,0.68296516,-0.4039773,-0.3953593,-0.46265766,10.931500434875488,-0.33305123448371887,-0.5505304336547852,15.32027530670166,-64.84591674804688, -29.94301414489746
671,467602999,0.67764276,-0.40608838,-0.40402138,-0.46115008,10.796128273010254,-0.2558917999267578,0.10002157092094421,7.360813140869141,-63.87560272216797, -27.41048812866211
672,467619666,0.6719373,-0.40873152,-0.41252196,-0.4596357,10.126067161560059,0.10074077546596527,0.39675670862197876,3.264390230178833,-65.97120666503906, -26.66912269592285
673,467636333,0.6659941,-0.4115657,-0.42165434,-0.45746407,9.847856521606445,-0.7718207240104675,-0.1029631569981575,5.529326915740967,-72.11833953857422, -25.613601684570312
674,467653000,0.65988916,-0.41428053,-0.4317113,-0.45447084,9.897795677185059,-1.2237248420715332,0.2689938545227051,10.866806030273438,-78.862060546875, -25.35896110534668
675,467669667,0.6530479,-0.41798413,-0.44136623,-0.45167887,10.255651473999023,-1.7266942262649536,0.23078641295433044,2.4140782356262207,-81.852783203125, -24.537620544433594
676,467686334,0.6449967,-0.42304704,-0.45026743,-0.44974455,11.031034469604492,-1.6084104776382446,0.6721643209457397,-12.132035255432129,-84.01019287109375, -25.899921417236328
677,467703001,0.6359371,-0.42974234,-0.4576139,-0.44888246,10.594185829162598,-2.2673566341400146,1.0238261222839355,-30.455284118652344,-82.2973403930664, -24.209251403808594
678,467719668,0.62661284,-0.43718538,-0.4643825,-0.4478554,10.172240257263184,-1.3801019191741943,0.17754028737545013,-35.785091400146484,-83.55526733398438, -20.26523208618164
679,467736335,0.6168641,-0.44483456,-0.47146568,-0.44645423,10.29163646697998,-0.7271867990493774,0.40524840354919434,-35.796051025390625,-88.15840911865234, -20.239662170410156
680,467753002,0.60734653,-0.4517463,-0.4793448,-0.4441672,10.384302139282227,-0.28243985772132874,0.23233655095100403,-26.668872833251953,-91.3729248046875, -20.581350326538086
681,467769669,0.5976435,-0.45820203,-0.48857892,-0.44064087,10.69959545135498,-0.6822664141654968,0.19122973084449768,-17.133319854736328,-100.23778533935547, -21.667951583862305
682,467786336,0.5881504,-0.46386686,-0.49930322,-0.43543485,11.227993965148926,-0.905153751373291,-0.20782524347305298,-3.0839154720306396,-108.68680572509766, -21.496173858642578
683,467803003,0.5783298,-0.46908376,-0.5111797,-0.4291746,11.664060592651367,-0.1868716925382614,-0.3724968433380127,4.737247467041016,-116.61395263671875, -23.460304260253906
684,467819670,0.567218,-0.47538826,-0.5224789,-0.42342168,12.235252380371094,0.38659146428108215,-0.4036771059036255,-7.249818325042725,-120.55472564697266, -23.61321258544922
685,467836337,0.5542102,-0.48373994,-0.53211796,-0.41916296,12.51984977722168,0.49359700083732605,-0.18806706368923187,-31.651208877563477,-122.10285949707031, -22.150205612182617
686,467853004,0.5390555,-0.49419025,-0.5396523,-0.41709822,13.021183013916016,1.0002752542495728,-0.00857052206993103,-60.892337799072266,-120.8502426147461, -21.958786010742188
687,467869671,0.52187264,-0.50588423,-0.54572535,-0.41703036,13.83149242401123,1.1029173135757446,0.9822712540626526,-84.00247955322266,-119.92718505859375, -25.498327255249023
688,467886338,0.50356007,-0.5180435,-0.55085015,-0.4178789,14.601908683776855,-0.007518395781517029,1.976873517036438,-95.78138732910156,-119.15058898925781, -26.87200164794922
