PacketCounter,SampleTimeFine,Quat_W,Quat_X,Quat_Y,Quat_Z,Acc_X,Acc_Y,Acc_Z,Gyr_X,Gyr_Y,Gyr_Z 
1,3276432435,0.49601093,-0.43791425,-0.4525918,-0.59780014,1.165148377418518,-0.49135062098503113,0.16140374541282654,1.7930155992507935,0.9174587726593018, -0.32997697591781616
2,3276449102,0.4875964,-0.43963754,-0.46096963,-0.5970558,9.823901176452637,2.3444387912750244,1.55483877658844,4.207181453704834,-101.513671875, -23.698890686035156
3,3276465769,0.47181508,-0.44306862,-0.47476825,-0.5963857,10.167464256286621,0.731697678565979,0.7003195285797119,-13.190031051635742,-105.04057312011719, -26.998085021972656
4,3276482436,0.45877698,-0.45382497,-0.48633245,-0.5891075,10.9500732421875,-0.4225567579269409,0.41381075978279114,-10.064679145812988,-107.683837890625, -25.582141876220703
5,3276499103,0.44983444,-0.46810946,-0.49545816,-0.5770997,11.156435012817383,-0.025838298723101616,0.5112648010253906,1.9252736568450928,-111.2771987915039, -26.130970001220703
6,3276515770,0.44155055,-0.4819411,-0.50314254,-0.56534374,11.2647123336792,0.7776418924331665,0.4133816957473755,-0.7407040596008301,-114.30183410644531, -27.321949005126953
7,3276532437,0.43241537,-0.4941142,-0.51061445,-0.5551046,10.919609069824219,0.5786412954330444,0.19855937361717224,-5.0250444412231445,-116.88645935058594, -27.482158660888672
8,3276549104,0.4227757,-0.5049976,-0.51780516,-0.5460001,10.257495880126953,0.285322904586792,0.4372403621673584,-8.074618339538574,-117.51087951660156, -29.302526473999023
9,3276565771,0.41302633,-0.51459366,-0.5246919,-0.5378673,10.873875617980957,0.318516343832016,0.6032942533493042,-8.96585750579834,-118.10626983642578, -32.49026107788086
10,3276582438,0.40417203,-0.52297086,-0.53167427,-0.52959317,12.148258209228516,-0.5570201277732849,0.9370080828666687,-1.0453613996505737,-119.4138412475586, -30.811445236206055
11,3276599105,0.39681125,-0.53008956,-0.538956,-0.5206461,12.935515403747559,0.005900440737605095,1.5855438709259033,11.334922790527344,-121.04711151123047, -32.10407638549805
12,3276615772,0.39015394,-0.5359916,-0.54633814,-0.51186687,13.272679328918457,-0.20803004503250122,1.8104124069213867,17.549009323120117,-122.91663360595703, -33.78736114501953
13,3276632439,0.38433695,-0.5408273,-0.5545915,-0.50221455,14.045058250427246,-0.45165684819221497,2.569939136505127,30.178462982177734,-128.85630798339844, -35.123008728027344
14,3276649106,0.37988925,-0.5441674,-0.5641295,-0.49124748,14.576983451843262,-0.3991681635379791,3.687624216079712,49.006927490234375,-134.60226440429688, -37.24540328979492
15,3276665773,0.37652034,-0.5458431,-0.5748164,-0.47945175,14.787874221801758,-0.21167400479316711,4.514439105987549,65.14457702636719,-139.56478881835938, -41.24012756347656
16,3276682440,0.37445655,-0.54582727,-0.5863754,-0.46692508,14.884296417236328,0.18525955080986023,6.844827175140381,81.05972290039062,-141.79542541503906, -43.10185623168945
17,3276699107,0.37431404,-0.54501086,-0.59677714,-0.45465285,14.856175422668457,0.6235750317573547,9.58431339263916,87.13163757324219,-137.53736877441406, -33.54475021362305
18,3276715774,0.37578183,-0.54291683,-0.6044767,-0.44568726,14.314507484436035,4.555201053619385,9.683609962463379,76.48625183105469,-118.89590454101562, -28.653453826904297
19,3276732441,0.37704322,-0.5374697,-0.61542237,-0.43614233,15.37412166595459,9.053022384643555,-2.533033847808838,100.57624053955078,-127.31450653076172, -44.668601989746094
20,3276749108,0.37656492,-0.5317316,-0.6275742,-0.42615846,17.70237922668457,7.9376749992370605,-5.018439292907715,103.48191833496094,-127.12849426269531, -41.78472137451172
21,3276765775,0.37294,-0.5280803,-0.6345097,-0.423609,16.207721710205078,6.651778697967529,5.7161478996276855,40.821895599365234,-95.2265396118164, -35.349609375
22,3276782442,0.3720216,-0.5258095,-0.62970394,-0.43427786,5.561269283294678,-1.5684798955917358,11.144450187683105,-42.6038932800293,-12.002927780151367, -10.036178588867188
23,3276799109,0.38020858,-0.5185981,-0.625294,-0.44215938,6.536319732666016,-1.0899652242660522,4.0862507820129395,15.209097862243652,28.084379196166992, -3.063084602355957
24,3276815776,0.39218605,-0.5082417,-0.6189931,-0.4524689,7.666105270385742,3.15571928024292,3.6079206466674805,18.9915828704834,71.74472045898438, -7.274226665496826
25,3276832443,0.40512887,-0.4973395,-0.60699314,-0.46913067,6.07724666595459,0.5529197454452515,4.837369441986084,-21.444528579711914,119.02516174316406, -2.71075701713562
26,3276849110,0.4222717,-0.4835488,-0.59140635,-0.48796108,5.558287143707275,-0.4121153652667999,4.591604709625244,-20.733766555786133,166.27806091308594, 3.87625789642334
27,3276865777,0.4420965,-0.46758884,-0.57142776,-0.50929546,6.677448749542236,-0.4027840793132782,5.03454065322876,-31.637466430664062,208.6811065673828, 9.846372604370117
28,3276882444,0.46287268,-0.4497793,-0.54699,-0.5331505,7.596070766448975,-0.3102574646472931,3.8845834732055664,-49.443355560302734,243.1808319091797, 11.054238319396973
29,3276899111,0.48416173,-0.43065158,-0.51777846,-0.5585986,9.066027641296387,-0.29030343890190125,1.5160198211669922,-68.05614471435547,273.4486999511719, 16.177650451660156
30,3276915778,0.50677496,-0.4100568,-0.48455346,-0.58330154,10.740684509277344,-1.2184714078903198,-0.15543252229690552,-73.0116195678711,299.7665710449219, 28.968427658081055
31,3276932445,0.5309738,-0.38754576,-0.4490775,-0.6051485,11.996658325195312,-1.3314675092697144,-0.48364657163619995,-62.23554992675781,318.21142578125, 43.55215072631836
32,3276949112,0.555059,-0.3641726,-0.40993306,-0.62549406,13.474129676818848,-0.11804497987031937,-0.8275290727615356,-70.63554382324219,336.60089111328125, 54.30623245239258
33,3276965779,0.5788554,-0.3406301,-0.36718407,-0.6434855,15.60100269317627,-0.532797634601593,-2.3226733207702637,-80.22640991210938,350.304443359375, 70.06629943847656
34,3276982446,0.5927456,-0.32092622,-0.32018703,-0.66568714,17.460342407226562,0.4055092930793762,-2.2688333988189697,-59.90251541137695,348.4646301269531, 86.08209228515625
35,3276999113,0.60894066,-0.29865947,-0.27485374,-0.6815051,19.00044822692871,1.643906593322754,-1.6709518432617188,-62.868038177490234,346.42828369140625, 95.24250793457031
36,3277015780,0.6285672,-0.274701,-0.2324396,-0.68950313,20.50828742980957,3.059286594390869,-1.619662880897522,-69.34075164794922,337.2962646484375, 96.33446502685547
37,3277032447,0.6431391,-0.25534984,-0.18799856,-0.69701153,20.884014129638672,4.2702202796936035,-2.6249539852142334,-108.551025390625,321.6869201660156, 87.20122528076172
38,3277049114,0.652872,-0.24259028,-0.14194836,-0.7033911,19.740859985351562,2.3732833862304688,-4.811700344085693,-153.6326446533203,295.32025146484375, 82.31233978271484
39,3277065781,0.66139054,-0.23394744,-0.098913915,-0.7057248,18.926090240478516,0.7347242832183838,-8.202778816223145,-156.0186309814453,259.7535705566406, 95.38667297363281
40,3277082448,0.66912025,-0.2220671,-0.07073115,-0.70566386,15.262606620788574,4.5843706130981445,-13.003692626953125,-68.4971923828125,208.95762634277344, 77.93819427490234
41,3277099115,0.6739641,-0.2091018,-0.06330091,-0.7057209,9.549771308898926,9.1038179397583,-17.475831985473633,32.22010803222656,121.97965240478516, 32.60244369506836
42,3277115782,0.67130244,-0.21099398,-0.0646882,-0.7075663,9.89756965637207,11.574274063110352,-16.25349998474121,-6.975015640258789,11.228978157043457, -17.125999450683594
43,3277132449,0.6625008,-0.22774178,-0.068557456,-0.71030015,11.895606994628906,6.855000972747803,-14.361516952514648,-75.0129623413086,-71.63023376464844, -46.33802032470703
44,3277149116,0.65119034,-0.24687614,-0.079457276,-0.71322495,13.13228988647461,5.965170383453369,-11.623913764953613,-56.546165466308594,-113.9649429321289, -67.82231903076172
45,3277165783,0.6383235,-0.26644388,-0.094133854,-0.7160237,13.989885330200195,5.86737060546875,-8.457794189453125,-43.36172103881836,-132.0884246826172, -79.70176696777344
46,3277182450,0.62438405,-0.2872864,-0.10890014,-0.7181587,13.720609664916992,5.20723819732666,-8.095101356506348,-50.901607513427734,-139.12322998046875, -80.03575134277344
47,3277199117,0.60935616,-0.30893502,-0.12212624,-0.719951,13.463520050048828,5.757946014404297,-7.245149612426758,-64.45540618896484,-136.79620361328125, -78.9467544555664
48,3277215784,0.5959006,-0.32769617,-0.13129531,-0.72130394,14.912566184997559,-5.318153381347656,11.051603317260742,-69.31240844726562,-104.29995727539062, -61.69284439086914
49,3277232451,0.58665675,-0.33940387,-0.13840348,-0.72213805,12.790292739868164,-7.175416469573975,8.858663558959961,-40.057769775390625,-59.72854232788086, -40.724021911621094
50,3277249118,0.57499963,-0.3558396,-0.14287406,-0.72273153,18.314985275268555,-2.454005002975464,-6.275390625,-76.68844604492188,-76.95527648925781, -41.78153610229492
51,3277265785,0.56673837,-0.36659306,-0.15681976,-0.720989,16.394102096557617,-2.117192506790161,-0.9086713790893555,4.206662654876709,-87.08402252197266, -44.416439056396484
52,3277282452,0.55916625,-0.37606248,-0.17177816,-0.7186114,12.703723907470703,1.7574018239974976,0.8767094612121582,17.061023712158203,-85.0816421508789, -42.96015167236328
53,3277299119,0.5517057,-0.38569057,-0.18689494,-0.7154955,11.677720069885254,0.8175898194313049,1.7722530364990234,18.249095916748047,-88.61538696289062, -39.95738220214844
54,3277315786,0.5464467,-0.3940879,-0.20269738,-0.7106367,9.203092575073242,0.8600733280181885,4.337012767791748,34.411109924316406,-87.56498718261719, -26.341882705688477
55,3277332453,0.5428925,-0.40086555,-0.21665491,-0.7054326,9.376320838928223,2.176276922225952,4.675887584686279,34.22323226928711,-72.06686401367188, -16.3735408782959
56,3277349120,0.5409911,-0.40599924,-0.22966689,-0.6998188,10.461577415466309,2.9913878440856934,3.3226819038391113,28.10572624206543,-58.471317291259766, -16.09706687927246
57,3277365787,0.5396577,-0.4100601,-0.24246535,-0.6941405,10.016988754272461,2.1197919845581055,2.470717668533325,32.42787551879883,-52.826229095458984, -14.184770584106445
58,3277382454,0.53772503,-0.41483375,-0.25442392,-0.68850076,9.79590892791748,0.885245680809021,-0.14868900179862976,26.993986129760742,-55.311832427978516, -11.659996032714844
59,3277399121,0.5362575,-0.41899052,-0.268361,-0.68180454,10.78114128112793,-0.45321211218833923,-0.5062313079833984,45.73763656616211,-62.859352111816406, -10.18444538116455
60,3277415788,0.5348374,-0.42252553,-0.28488958,-0.6739877,10.484416961669922,-1.9055557250976562,0.7745407819747925,71.79584503173828,-73.82113647460938, -9.78029727935791
61,3277432455,0.5356063,-0.42372116,-0.30445066,-0.66400003,10.255796432495117,-2.5141708850860596,2.368102550506592,105.42607879638672,-76.5352783203125, -6.255405426025391
62,3277449122,0.5372138,-0.42436618,-0.32616976,-0.65186495,9.510151863098145,-1.1652984619140625,1.540556788444519,117.93063354492188,-86.75555419921875, -6.689134120941162
63,3277465789,0.5364519,-0.42686698,-0.34768596,-0.63962376,8.915026664733887,1.2060739994049072,2.151848316192627,104.77770233154297,-100.67231750488281, -12.624151229858398
64,3277482456,0.53151214,-0.4326807,-0.3659399,-0.62957966,8.687061309814453,2.6693806648254395,2.3694915771484375,61.724578857421875,-107.58480072021484, -21.58820343017578
65,3277499123,0.5234083,-0.44109222,-0.38076085,-0.6216935,8.846274375915527,1.3467775583267212,1.917800784111023,22.83163070678711,-111.70161437988281, -26.826963424682617
66,3277515790,0.5141881,-0.45008695,-0.39396608,-0.6146733,9.406710624694824,-0.047256894409656525,1.0298447608947754,9.82386589050293,-115.44136047363281, -28.89933967590332
67,3277532457,0.5044534,-0.45878625,-0.40648907,-0.60811895,10.360613822937012,0.48121464252471924,1.2224900722503662,9.023615837097168,-117.42129516601562, -31.425844192504883
68,3277549124,0.4946257,-0.46708462,-0.4180739,-0.6019899,11.265012741088867,1.0576393604278564,0.36989420652389526,5.167591094970703,-115.15715789794922, -32.163551330566406
69,3277565791,0.48505095,-0.4751529,-0.42906114,-0.5957028,11.873208999633789,0.8389583826065063,-0.1004907414317131,4.909459114074707,-114.06407928466797, -29.68937873840332
70,3277582458,0.47595897,-0.48271808,-0.4397578,-0.5891177,11.493407249450684,0.8396521806716919,0.3753770887851715,7.949971675872803,-111.73148345947266, -27.468664169311523
71,3277599125,0.46623182,-0.4906365,-0.4492604,-0.5831544,11.261119842529297,1.4843453168869019,0.18237237632274628,-1.9745080471038818,-109.7572250366211, -27.162246704101562
72,3277615792,0.45619738,-0.49860367,-0.45817712,-0.57736665,11.107739448547363,1.5101255178451538,-0.21621358394622803,-6.029073715209961,-108.7872314453125, -26.885128021240234
73,3277632459,0.446788,-0.5059388,-0.46698713,-0.57125264,11.255117416381836,0.8835514783859253,0.8574060797691345,-1.2810720205307007,-105.29136657714844, -25.037561416625977
74,3277649126,0.43777525,-0.513266,-0.47542408,-0.5646972,11.614204406738281,0.8648576736450195,0.2531285881996155,0.08702903240919113,-104.50833129882812, -20.88115119934082
75,3277665793,0.4293005,-0.52016133,-0.4850343,-0.5566644,12.151289939880371,-0.14112623035907745,0.7438156008720398,12.678203582763672,-109.89336395263672, -19.91715431213379
76,3277682460,0.42119673,-0.52637494,-0.49601766,-0.5472561,12.59033203125,-0.02291078120470047,1.9825189113616943,25.8662109375,-115.0748519897461, -21.644901275634766
77,3277699127,0.41304708,-0.5315069,-0.50853443,-0.53692216,13.096131324768066,-0.5427688956260681,2.030651569366455,37.76398468017578,-119.00495910644531, -28.39065170288086
78,3277715794,0.40533355,-0.53561676,-0.52318805,-0.5244939,14.055591583251953,-1.5627013444900513,2.462425947189331,57.475196838378906,-127.46992492675781, -32.231719970703125
79,3277732461,0.39759302,-0.53851616,-0.53970104,-0.51053214,14.554458618164062,-0.8603415489196777,3.8560445308685303,72.9743881225586,-134.07093811035156, -39.27882766723633
80,3277749128,0.38943535,-0.5409796,-0.55683666,-0.49559486,14.9314546585083,-1.3508397340774536,5.760936737060547,78.43145751953125,-139.44879150390625, -42.00998306274414
81,3277765795,0.38072124,-0.54387903,-0.57357395,-0.4798542,15.534561157226562,-1.2163907289505005,7.430625915527344,76.91674041748047,-145.04440307617188, -38.617332458496094
82,3277782462,0.3714096,-0.5486547,-0.58796793,-0.46403357,15.453485488891602,0.7489549517631531,9.836471557617188,62.3582763671875,-147.81991577148438, -24.226547241210938
83,3277799129,0.36001286,-0.5533035,-0.5993296,-0.45282477,13.896001815795898,6.789268970489502,7.13746976852417,26.506771087646484,-130.77590942382812, -31.724685668945312
84,3277815796,0.34712604,-0.5574177,-0.6112061,-0.44183284,14.787710189819336,6.501447677612305,-5.502164363861084,22.892419815063477,-135.7417755126953, -41.014793395996094
85,3277832463,0.33539417,-0.5615991,-0.62157357,-0.431003,18.101125717163086,7.411388874053955,-2.8778629302978516,31.210063934326172,-125.21204376220703, -35.92766571044922
86,3277849130,0.3242164,-0.56631476,-0.6250133,-0.42840374,13.903188705444336,3.632998466491699,11.196588516235352,-23.902326583862305,-76.6147232055664, -24.399593353271484
87,3277865797,0.3210844,-0.5685933,-0.6232424,-0.4303203,4.133029937744141,-4.17062520980835,9.210868835449219,-21.65672492980957,-5.646264553070068, -1.2049514055252075
88,3277882464,0.32788873,-0.56424177,-0.6247305,-0.42875662,7.395598888397217,1.6174733638763428,4.680683135986328,47.20988082885742,33.97076416015625, -0.7373983860015869
89,3277899131,0.33575428,-0.5584277,-0.62210256,-0.43406904,7.159946441650391,3.525177240371704,4.558488368988037,12.955253601074219,78.79248809814453, -3.4185657501220703
90,3277915798,0.34656215,-0.5515456,-0.61474484,-0.4447259,6.084353446960449,-0.5890491008758545,5.307202339172363,-10.252124786376953,126.00468444824219, 6.635529518127441
91,3277932465,0.36298758,-0.5416224,-0.60475314,-0.45733914,6.401047706604004,-0.45193997025489807,5.668824195861816,1.9680774211883545,172.7447967529297, 16.2706241607666
92,3277949132,0.3808712,-0.5300287,-0.59066236,-0.47447336,7.155333518981934,0.7721855640411377,4.8384318351745605,-20.12662124633789,211.13027954101562, 17.880203247070312
93,3277965799,0.3983578,-0.51752776,-0.5715667,-0.49677733,8.125667572021484,0.49715352058410645,3.0203380584716797,-56.528499603271484,244.43812561035156, 17.59906005859375
94,3277982466,0.4171537,-0.50346756,-0.5482627,-0.5214512,9.779327392578125,-0.5613904595375061,0.969383955001831,-71.29720306396484,274.90350341796875, 24.42107582092285
95,3277999133,0.43846983,-0.48718527,-0.5217231,-0.546077,11.202075958251953,-1.121677041053772,0.10910964012145996,-67.6288833618164,301.5478820800781, 36.407100677490234
96,3278015800,0.46220765,-0.4684333,-0.49249128,-0.5695497,12.58452033996582,-0.5636066794395447,-0.1843578815460205,-58.04872131347656,323.839599609375, 49.12398910522461
97,3278032467,0.48664656,-0.44806215,-0.4591122,-0.5929852,14.530876159667969,0.25628164410591125,-0.7216679453849792,-66.77136993408203,345.7021179199219, 59.8628044128418
98,3278049134,0.51209646,-0.42628476,-0.4230485,-0.61405915,16.89859962463379,-0.32717135548591614,-2.2239022254943848,-62.44707489013672,356.4170837402344, 75.7295913696289
99,3278065801,0.53831583,-0.40293172,-0.38664007,-0.6311669,18.420774459838867,0.5155850052833557,-2.085880756378174,-44.557640075683594,354.97796630859375, 89.37615966796875
100,3278082468,0.5628273,-0.37971997,-0.34881416,-0.64603937,19.40522003173828,1.5116660594940186,-1.3821361064910889,-48.32666015625,349.0316162109375, 95.2787857055664
101,3278099135,0.5843119,-0.35787773,-0.30896673,-0.65957767,20.911422729492188,2.8379766941070557,-1.773639440536499,-69.01806640625,340.02490234375, 94.85318756103516
102,3278115802,0.6011671,-0.33940986,-0.26661256,-0.6725452,21.00603675842285,2.933654546737671,-3.342130661010742,-104.14592742919922,323.6307678222656, 89.51741027832031
103,3278132469,0.6148367,-0.3252037,-0.22413278,-0.68262964,19.631811141967773,0.7348869442939758,-4.9677653312683105,-124.50675201416016,291.949462890625, 94.84210968017578
104,3278149136,0.6255642,-0.31490725,-0.18174258,-0.69026995,18.410512924194336,2.3811590671539307,-7.650963306427002,-143.42323303222656,263.2992248535156, 97.21647644042969
105,3278165803,0.6358535,-0.3011967,-0.15420127,-0.69368076,14.025127410888672,4.1643385887146,-13.896197319030762,-53.896846771240234,205.9774169921875, 76.92985534667969
106,3278182470,0.64245844,-0.2876726,-0.14631459,-0.6950424,9.02063274383545,10.45592212677002,-16.602785110473633,33.57244873046875,111.08171081542969, 27.828872680664062
107,3278199137,0.63900316,-0.2904621,-0.14363328,-0.6976219,10.21196174621582,10.026888847351074,-14.817060470581055,-34.78550720214844,2.4809176921844482, -19.465068817138672
108,3278215804,0.62905616,-0.30463967,-0.14441578,-0.7004479,12.141142845153809,6.3945393562316895,-12.718945503234863,-81.45957946777344,-73.22846984863281, -47.30765151977539
109,3278232471,0.61691654,-0.32028374,-0.15078461,-0.70291996,12.976001739501953,4.924839496612549,-8.762771606445312,-65.15626525878906,-107.32579040527344, -66.54444122314453
110,3278249138,0.6031213,-0.3370032,-0.15980372,-0.7050791,13.561352729797363,4.724820137023926,-7.397781848907471,-60.240760803222656,-126.14557647705078, -77.91523742675781
111,3278265805,0.58806,-0.35513124,-0.16891736,-0.70677733,13.957225799560547,4.572479724884033,-6.992713451385498,-68.06026458740234,-135.80540466308594, -80.78601837158203
112,3278282472,0.5719982,-0.37379667,-0.17881271,-0.70789844,13.750163078308105,6.062898635864258,-6.2438764572143555,-68.21385192871094,-144.12863159179688, -84.57228088378906
113,3278299139,0.55889076,-0.38852254,-0.18844636,-0.70794034,15.396163940429688,-3.9862661361694336,7.753203868865967,-45.08409118652344,-123.04367065429688, -70.08119201660156
114,3278315806,0.5483564,-0.3999369,-0.19728862,-0.70741296,14.958494186401367,-3.227916717529297,3.1298792362213135,-28.56659507751465,-102.15046691894531, -57.58982849121094
115,3278332473,0.53687423,-0.41298655,-0.20484771,-0.7065733,17.198959350585938,-2.2315006256103516,-4.50054931640625,-43.12815475463867,-107.4503173828125, -55.31302261352539
116,3278349140,0.5285644,-0.42158446,-0.2180423,-0.70380676,14.717507362365723,0.24919451773166656,-0.7922084331512451,12.432071685791016,-107.58001708984375, -55.08213424682617
117,3278365807,0.5205063,-0.42972887,-0.23043297,-0.70093304,11.839330673217773,2.8750760555267334,-0.20445725321769714,11.082805633544922,-102.39816284179688, -51.83549499511719
118,3278382474,0.51197815,-0.43870437,-0.24010992,-0.69840115,10.595072746276855,1.6757724285125732,1.3414013385772705,-6.911417484283447,-96.44902038574219, -45.980506896972656
119,3278399141,0.5055524,-0.4461784,-0.24917252,-0.6951654,9.739075660705566,1.756419062614441,2.8666515350341797,2.925154209136963,-85.76971435546875, -34.038021087646484
120,3278415808,0.50088465,-0.45192418,-0.25727186,-0.6918746,10.248499870300293,2.3058135509490967,2.8076813220977783,9.813060760498047,-71.37346649169922, -25.456754684448242
121,3278432475,0.49737805,-0.45639417,-0.26446176,-0.68875223,10.550265312194824,1.6818598508834839,1.843666434288025,13.186574935913086,-59.639469146728516, -19.94397735595703
122,3278449142,0.4958961,-0.45917514,-0.27245826,-0.68484443,10.39108943939209,0.45292118191719055,0.9825769662857056,30.564395904541016,-53.20851135253906, -13.279447555541992
123,3278465809,0.4960779,-0.46076038,-0.28121278,-0.6800927,10.37891960144043,0.9915900230407715,0.3911176323890686,38.87797927856445,-49.17601013183594, -9.943821907043457
124,3278482476,0.4959812,-0.46247545,-0.28944,-0.67553216,10.276684761047363,0.2093742936849594,0.5452820658683777,34.23369216918945,-47.93335723876953, -10.089339256286621
125,3278499143,0.49573833,-0.4642754,-0.29815504,-0.6706681,10.26899242401123,-1.2109144926071167,0.25703275203704834,42.976802825927734,-51.79902267456055, -8.322931289672852
126,3278515810,0.49671274,-0.46507838,-0.30939943,-0.664267,10.156477928161621,-0.834571123123169,0.8043824434280396,65.0905990600586,-58.25428771972656, -7.625785827636719
127,3278532477,0.49942374,-0.46450424,-0.32379454,-0.6557203,10.278722763061523,-1.156758189201355,1.5131759643554688,94.31346130371094,-65.92070007324219, -5.404327869415283
128,3278549144,0.50305027,-0.4629807,-0.34064138,-0.6454091,10.190921783447266,0.07269903272390366,2.6418166160583496,115.49146270751953,-73.6918716430664, -5.196648597717285
129,3278565811,0.5052553,-0.46236992,-0.35761946,-0.634854,9.406578063964844,1.9770113229751587,2.970301866531372,100.63304901123047,-82.11341857910156, -11.64419174194336
130,3278582478,0.5040216,-0.46451253,-0.37179795,-0.6260646,9.289113998413086,1.7734895944595337,2.3102848529815674,64.84968566894531,-87.40994262695312, -16.50680923461914
131,3278599145,0.50032544,-0.46865365,-0.384277,-0.6183604,9.559904098510742,0.6695115566253662,1.4292893409729004,40.65365219116211,-93.05722045898438, -19.94168472290039
132,3278615812,0.4946102,-0.47420692,-0.3956788,-0.6114958,10.1303129196167,-0.2828134298324585,1.4129631519317627,23.276090621948242,-98.05839538574219, -23.842544555664062
133,3278632479,0.4869722,-0.48123133,-0.40616593,-0.60523045,10.748249053955078,-0.339980810880661,0.8458293676376343,12.022488594055176,-104.41808319091797, -25.701574325561523
134,3278649146,0.47838044,-0.4886101,-0.4166875,-0.5989857,11.294577598571777,0.13670814037322998,1.3117763996124268,7.768865585327148,-108.6138916015625, -28.87696075439453
135,3278665813,0.4677901,-0.49697223,-0.42575195,-0.594076,11.755817413330078,1.0811607837677002,1.1758941411972046,-12.003796577453613,-109.12796020507812, -33.793174743652344
136,3278682480,0.4563605,-0.5059614,-0.43391132,-0.58945686,12.322056770324707,-0.22470739483833313,0.8284364938735962,-21.436763763427734,-110.25663757324219, -33.22364044189453
137,3278699147,0.44598573,-0.5141596,-0.4425917,-0.5838229,12.590690612792969,-0.8636806607246399,0.4940847158432007,-10.143937110900879,-109.08140563964844, -29.94800567626953
138,3278715814,0.43661293,-0.5214286,-0.4516833,-0.57746303,12.036922454833984,-0.5618159770965576,1.1292393207550049,0.10949252545833588,-106.13958740234375, -28.0003719329834
139,3278732481,0.4274533,-0.5280441,-0.46101424,-0.5708933,11.47441577911377,-0.18745167553424835,1.0354793071746826,4.439563274383545,-104.37523651123047, -29.425640106201172
140,3278749148,0.4187108,-0.53437793,-0.47060683,-0.5636053,11.846590042114258,-0.42847487330436707,1.7403388023376465,10.086700439453125,-105.3455581665039, -27.53036880493164
141,3278765815,0.40970647,-0.5407432,-0.48007688,-0.55611473,11.787038803100586,-0.07626684755086899,3.134052038192749,9.216455459594727,-106.73812866210938, -27.423086166381836
142,3278782482,0.401345,-0.54633754,-0.49110207,-0.5470432,11.87572193145752,-0.09597575664520264,2.8500380516052246,24.946739196777344,-111.97875213623047, -28.847761154174805
143,3278799149,0.39341506,-0.5507442,-0.50501084,-0.5356023,12.567479133605957,0.7300528883934021,2.6431589126586914,48.69607162475586,-122.95928192138672, -35.54017639160156
144,3278815816,0.38547698,-0.5544562,-0.52097285,-0.5220855,13.46987247467041,0.8575611710548401,2.651634454727173,65.31881713867188,-133.8922119140625, -40.14311981201172
145,3278832483,0.37818354,-0.5568005,-0.53857815,-0.5068371,14.078828811645508,-0.5145371556282043,3.600264310836792,83.50992584228516,-137.68020629882812, -44.40595626831055
146,3278849150,0.37332827,-0.5570228,-0.5577173,-0.48918626,13.876927375793457,-1.0630807876586914,4.914211750030518,112.6118392944336,-134.51150512695312, -43.41014862060547
147,3278865817,0.3704142,-0.5557811,-0.57693666,-0.47015417,12.576268196105957,-0.4095792770385742,6.760540962219238,129.37847900390625,-127.7259750366211, -39.27657699584961
148,3278882484,0.37035346,-0.5531894,-0.5963208,-0.44857728,12.102385520935059,0.5469722747802734,8.78352165222168,154.363525390625,-122.29473114013672, -29.560457229614258
149,3278899151,0.3712745,-0.5478975,-0.61738497,-0.42520544,13.805447578430176,7.14995813369751,3.5150654315948486,177.5395965576172,-121.17709350585938, -39.40911102294922
150,3278915818,0.36767787,-0.5447719,-0.6353489,-0.4054237,14.474568367004395,9.035299301147461,-6.179844856262207,130.71078491210938,-125.29924774169922, -40.815887451171875
151,3278932485,0.35877004,-0.5469342,-0.64685476,-0.39207953,20.21138572692871,5.961522102355957,-0.8066421747207642,59.536827087402344,-121.84650421142578, -28.759693145751953
152,3278949152,0.34693527,-0.5528158,-0.6459334,-0.3959805,6.337751388549805,3.669405937194824,13.266642570495605,-71.1689224243164,-49.418853759765625, -15.967469215393066
153,3278965819,0.33908132,-0.55751777,-0.64051074,-0.40490013,6.677116394042969,-1.3288638591766357,6.279184341430664,-86.54046630859375,1.4009943008422852, -5.96447229385376
154,3278982486,0.3374268,-0.5578253,-0.6350338,-0.4143746,8.395065307617188,2.2219929695129395,3.0259954929351807,-64.06060791015625,41.95072937011719, -4.135064125061035
155,3278999153,0.33852825,-0.55722946,-0.6250717,-0.42916155,6.91103982925415,0.7488898634910583,2.8223674297332764,-87.36848449707031,87.31897735595703, 4.636167049407959
156,3279015820,0.34671673,-0.5539756,-0.6134767,-0.44333413,5.351667404174805,-1.2911967039108276,3.144115447998047,-56.21685028076172,127.06021118164062, 21.786378860473633
157,3279032487,0.3608814,-0.54742837,-0.5997543,-0.45867372,5.683962821960449,0.46477386355400085,3.5435659885406494,-37.02812576293945,171.82894897460938, 31.3972225189209
158,3279049154,0.37777194,-0.5383357,-0.58255655,-0.4776098,6.423975467681885,0.43897324800491333,3.402615547180176,-46.252471923828125,213.26193237304688, 33.64552307128906
159,3279065821,0.3961187,-0.52718675,-0.561888,-0.4994458,8.034749984741211,0.14912451803684235,2.0947046279907227,-58.54642105102539,245.60360717773438, 35.49561309814453
160,3279082488,0.41594425,-0.51412195,-0.5382567,-0.522445,9.745248794555664,-0.6474949717521667,0.3504294157028198,-62.6498908996582,270.20782470703125, 40.72687911987305
161,3279099155,0.43744949,-0.49874574,-0.51260924,-0.5450894,11.534445762634277,0.11313490569591522,-0.39880165457725525,-56.04142379760742,289.2923278808594, 46.322052001953125
162,3279115822,0.45870298,-0.4823543,-0.48328415,-0.56864965,13.119277954101562,0.5628352761268616,-0.8594768643379211,-70.87763977050781,306.4879150390625, 51.64309310913086
163,3279132489,0.47988388,-0.4651913,-0.4510753,-0.59147257,14.695183753967285,0.2324201911687851,-1.682088017463684,-77.52275848388672,316.003173828125, 60.67937469482422
164,3279149156,0.50078964,-0.4471975,-0.41736728,-0.61239594,15.72435188293457,1.3403747081756592,-1.1606831550598145,-75.87456512451172,317.50909423828125, 68.03923797607422
165,3279165823,0.5203028,-0.4293584,-0.38117695,-0.6321713,16.58099365234375,1.8241764307022095,-1.2789690494537354,-87.86376953125,318.00067138671875, 74.21808624267578
166,3279182490,0.53858715,-0.41158283,-0.34342,-0.65006655,17.694448471069336,1.9838815927505493,-1.014228105545044,-95.84725189208984,314.6602783203125, 79.68315124511719
167,3279199157,0.55523413,-0.39431718,-0.30384398,-0.66626436,18.80558967590332,1.3259857892990112,-1.6806015968322754,-105.18375396728516,310.65838623046875, 85.38924407958984
168,3279215824,0.5700539,-0.37784243,-0.26429582,-0.68001574,18.83493423461914,1.8225017786026,-2.135883331298828,-107.04358673095703,296.642578125, 88.35971069335938
169,3279232491,0.5812336,-0.36499542,-0.22281295,-0.6923151,18.104726791381836,1.4408704042434692,-3.350820541381836,-137.15089416503906,277.080322265625, 88.7105484008789
170,3279249158,0.5933217,-0.35256115,-0.18528931,-0.69952697,16.924983978271484,-1.0904507637023926,-6.322722434997559,-109.87419128417969,248.1217041015625, 104.13152313232422
171,3279265825,0.6065461,-0.33563468,-0.16176954,-0.70234025,14.39238166809082,4.453956127166748,-10.021324157714844,-15.777612686157227,203.60757446289062, 87.90348052978516
172,3279282492,0.61752266,-0.3185715,-0.15428318,-0.70240647,9.58151912689209,7.915045738220215,-14.81190299987793,60.06364440917969,128.82127380371094, 51.42959976196289
173,3279299159,0.62036294,-0.31353772,-0.15520333,-0.70196575,9.194954872131348,9.550836563110352,-14.626379013061523,32.24045181274414,25.554136276245117, 8.724809646606445
174,3279315826,0.61607176,-0.32031527,-0.16001832,-0.70160383,11.292227745056152,7.036861419677734,-12.405180931091309,-14.885334968566895,-55.259010314941406, -21.70685577392578
175,3279332493,0.6079712,-0.3308624,-0.16999987,-0.70142806,12.06062126159668,5.7410736083984375,-9.206944465637207,-14.584939956665039,-98.87869262695312, -47.997501373291016
176,3279349160,0.5971441,-0.34368357,-0.18258512,-0.70140105,13.0858154296875,5.276766300201416,-6.858482837677002,-17.9657039642334,-123.389892578125, -64.9404525756836
177,3279365827,0.58244836,-0.3607799,-0.19341213,-0.7022703,13.767908096313477,5.347881317138672,-7.264867782592773,-54.323387145996094,-139.37008666992188, -77.6505355834961
178,3279382494,0.5649707,-0.38030693,-0.20455621,-0.7030872,15.063811302185059,7.033956050872803,-5.261692047119141,-69.41536712646484,-156.05010986328125, -88.30000305175781
179,3279399161,0.5505702,-0.3967741,-0.21631807,-0.7018899,18.28316307067871,-5.711269378662109,4.706295967102051,-43.72977828979492,-144.44943237304688, -71.35856628417969
180,3279415828,0.53645945,-0.41159242,-0.22791651,-0.70061195,15.35098648071289,-1.4875292778015137,0.528123676776886,-37.29964828491211,-135.66183471679688, -71.70869445800781
181,3279432495,0.52328575,-0.42549646,-0.23971415,-0.6983281,15.279074668884277,-2.082597494125366,-3.0705947875976562,-28.7183780670166,-133.3365936279297, -65.478515625
182,3279449162,0.51264477,-0.43575588,-0.25399706,-0.6948366,12.565520286560059,0.9666420221328735,-0.6964106559753418,5.76045036315918,-124.0384750366211, -62.275020599365234
183,3279465829,0.5023938,-0.4452325,-0.26573566,-0.69191986,11.025524139404297,3.361717700958252,-0.4827194809913635,-3.4774413108825684,-108.90462493896484, -56.175331115722656
184,3279482496,0.49262053,-0.454496,-0.27412024,-0.68964946,10.42265796661377,2.33267879486084,0.6880776882171631,-18.442779541015625,-93.45572662353516, -46.20681381225586
185,3279499163,0.4850442,-0.46141735,-0.2818135,-0.6873191,10.770242691040039,3.1575255393981934,1.6423065662384033,-6.816905498504639,-76.12012481689453, -37.82637023925781
186,3279515830,0.4798606,-0.46660146,-0.289751,-0.6841501,11.807546615600586,1.270755410194397,0.2805439233779907,9.343067169189453,-66.87181854248047, -27.868484497070312
187,3279532497,0.47875094,-0.46911928,-0.3000597,-0.67874074,11.358963966369629,-0.7024765014648438,-0.5032594203948975,46.852691650390625,-61.33216857910156, -14.302093505859375
188,3279549164,0.47974834,-0.47011188,-0.31153533,-0.6721475,10.873618125915527,0.4743296504020691,-0.945229172706604,66.60406494140625,-57.6357307434082, -7.610293388366699
189,3279565831,0.4807081,-0.47112703,-0.32236403,-0.66561294,10.373604774475098,1.056061863899231,0.40659716725349426,63.326866149902344,-55.60544967651367, -5.942026615142822
190,3279582498,0.48110676,-0.47276807,-0.33176968,-0.65951174,10.58505630493164,0.38993674516677856,1.3671553134918213,51.9943733215332,-53.74620056152344, -4.026920795440674
191,3279599165,0.48176986,-0.47440848,-0.34120563,-0.65300316,10.877437591552734,0.2396937757730484,0.8310863971710205,53.95227813720703,-54.7177848815918, -1.6638357639312744
192,3279615832,0.48382625,-0.47538716,-0.3522452,-0.6448586,11.989704132080078,-1.0319724082946777,1.4720016717910767,71.75447082519531,-59.25295639038086, 3.1481854915618896
193,3279632499,0.48871717,-0.47371957,-0.3663889,-0.6344326,10.882606506347656,-0.014809321612119675,3.009087562561035,109.14561462402344,-58.55978012084961, 6.649333953857422
194,3279649166,0.49246487,-0.47245634,-0.38064486,-0.62399745,9.842634201049805,1.7893109321594238,2.4638638496398926,104.59676361083984,-63.754180908203125, 2.269437551498413
195,3279665833,0.4947146,-0.47246587,-0.3944443,-0.61355305,9.179396629333496,1.5465599298477173,2.9473800659179688,83.00316619873047,-71.65943145751953, -1.6872693300247192
196,3279682500,0.4942094,-0.47455615,-0.4062968,-0.6045468,8.712428092956543,1.2774059772491455,2.65065860748291,55.47108459472656,-76.79985046386719, -5.895884990692139
197,3279699167,0.49064255,-0.47879553,-0.41656113,-0.59707755,9.036588668823242,1.1898856163024902,1.5331274271011353,28.595422744750977,-84.03214263916016, -12.20451545715332
198,3279715834,0.48436067,-0.48478258,-0.42583343,-0.59080166,9.482444763183594,0.7258962392807007,0.38922977447509766,14.734970092773438,-91.76586151123047, -17.637409210205078
199,3279732501,0.47626626,-0.4917783,-0.43513215,-0.58479464,10.067938804626465,0.6353363990783691,1.1115001440048218,4.66068172454834,-100.4149169921875, -23.04155158996582
200,3279749168,0.46658844,-0.499769,-0.44346195,-0.57954097,10.492294311523438,0.19693969190120697,0.8845676183700562,-10.095564842224121,-103.49620056152344, -25.63395881652832
201,3279765835,0.45657554,-0.5078258,-0.45219758,-0.57373273,10.814985275268555,0.039215266704559326,0.2645735740661621,-8.145092964172363,-108.04498291015625, -26.400421142578125
202,3279782502,0.44633934,-0.5157424,-0.46136135,-0.5673947,11.02519702911377,0.039368174970149994,-0.07872100174427032,-5.143243789672852,-111.42285919189453, -27.568986892700195
203,3279799169,0.4357926,-0.52365667,-0.47054166,-0.56076676,11.125529289245605,0.06731005012989044,0.42262279987335205,-5.2493720054626465,-113.51414489746094, -27.97679901123047
204,3279815836,0.42555776,-0.5309822,-0.48026377,-0.5534486,10.824936866760254,-0.30094677209854126,0.2119336724281311,1.963776707649231,-114.39131927490234, -28.581188201904297
205,3279832503,0.41614315,-0.53740746,-0.49142796,-0.5445338,11.287506103515625,-0.9018750786781311,0.5655522346496582,18.355533599853516,-118.35249328613281, -29.051876068115234
206,3279849170,0.40620977,-0.54382706,-0.5030533,-0.5349608,11.781780242919922,-0.43697503209114075,1.6204558610916138,20.407934188842773,-123.89158630371094, -30.871829986572266
207,3279865837,0.39505157,-0.5506361,-0.51442313,-0.525455,12.748379707336426,-0.9223737716674805,2.2707934379577637,13.572042465209961,-128.67434692382812, -33.291683197021484
208,3279882504,0.3850887,-0.5564569,-0.52728885,-0.5138375,13.920036315917969,-1.701378345489502,1.5765784978866577,33.660091400146484,-133.02976989746094, -32.43537521362305
209,3279899171,0.37569392,-0.5613914,-0.5421452,-0.4997724,14.756465911865234,-0.8849202990531921,1.9548635482788086,54.08793640136719,-142.5648193359375, -34.83015441894531
210,3279915838,0.36589375,-0.56576127,-0.5578077,-0.48465124,14.824920654296875,0.05811411142349243,3.7344894409179688,60.68998718261719,-148.39877319335938, -38.750885009765625
211,3279932505,0.35603926,-0.5695575,-0.57349914,-0.4689764,14.476984977722168,-0.38256436586380005,4.98008918762207,64.1516342163086,-149.06507873535156, -39.87312316894531
212,3279949172,0.34796685,-0.5723571,-0.5887376,-0.45245406,14.448338508605957,-0.2340899556875229,7.546239852905273,75.46195983886719,-141.19989013671875, -34.2327766418457
213,3279965839,0.34118247,-0.57523984,-0.5997784,-0.43927166,15.0726318359375,2.4305002689361572,10.153155326843262,53.77010726928711,-113.26657104492188, -21.382314682006836
214,3279982506,0.33360353,-0.57728595,-0.61164165,-0.42584532,13.480656623840332,7.57938814163208,1.4785598516464233,56.12381362915039,-117.17323303222656, -29.892528533935547
215,3279999173,0.32275364,-0.5801721,-0.62476355,-0.41097572,16.962635040283203,8.827123641967773,-6.88714599609375,51.02602005004883,-142.08370971679688, -37.51494598388672
216,3280015840,0.31088775,-0.5853322,-0.6323277,-0.4011196,15.572317123413086,5.507714748382568,-2.4267547130584717,15.489378929138184,-119.05082702636719, -26.114866256713867
217,3280032507,0.30288967,-0.5895023,-0.63418496,-0.39818892,12.997369766235352,1.869998574256897,14.719216346740723,-13.197632789611816,-59.4811897277832, -11.591235160827637
218,3280049174,0.30427805,-0.59169596,-0.63195246,-0.39742553,3.693505048751831,-4.096579551696777,7.296071529388428,8.369057655334473,3.815932273864746, 17.391271591186523
219,3280065841,0.31426418,-0.58801144,-0.63234234,-0.39449233,6.7945170402526855,2.1218738555908203,2.705869436264038,62.16044616699219,41.39483642578125, 15.991780281066895
220,3280082508,0.326448,-0.5824185,-0.62908906,-0.39807984,7.343221187591553,2.8498833179473877,4.5095367431640625,36.94472122192383,90.32501983642578, 14.332479476928711
221,3280099175,0.34182298,-0.5744431,-0.62268007,-0.40674546,5.920077800750732,0.4343312084674835,5.852833271026611,24.485572814941406,137.99729919433594, 14.044941902160645
222,3280115842,0.35991287,-0.5639281,-0.6130866,-0.4202057,6.6926589012146,0.544797420501709,4.745650768280029,11.74140739440918,183.0704345703125, 12.077628135681152
223,3280132509,0.37869757,-0.55121154,-0.6010014,-0.43766585,8.204572677612305,1.259219765663147,4.240696907043457,-4.181833267211914,213.9821319580078, 4.5666937828063965
224,3280149176,0.39540634,-0.5380203,-0.58426666,-0.46132478,9.310911178588867,1.5812549591064453,2.500011920928955,-50.4256591796875,242.3866424560547, -2.163421630859375
225,3280165843,0.4123348,-0.5240571,-0.56326556,-0.48793036,10.432404518127441,-0.6451411247253418,-0.1616528034210205,-72.894287109375,268.216064453125, 3.193557024002075
226,3280182510,0.43221214,-0.50774056,-0.5406614,-0.51291084,11.468996047973633,-1.1170271635055542,-1.0187187194824219,-54.69602584838867,286.2779541015625, 14.305537223815918
227,3280199177,0.45374304,-0.48944655,-0.5156593,-0.5372661,12.156821250915527,0.21968773007392883,-0.9572398066520691,-49.195369720458984,304.433349609375, 22.961708068847656
228,3280215844,0.47547856,-0.4703443,-0.48740777,-0.5613644,13.130677223205566,0.36768829822540283,-1.8270413875579834,-57.09733963012695,317.5228271484375, 32.56621170043945
229,3280232511,0.49824443,-0.45003912,-0.45726871,-0.5832004,14.694364547729492,0.03470342978835106,-2.4957950115203857,-49.55184555053711,324.61273193359375, 45.997459411621094
230,3280249178,0.52198,-0.42840984,-0.42611608,-0.60201925,15.928046226501465,0.14456024765968323,-2.3169095516204834,-43.5257682800293,326.9088439941406, 58.288902282714844
231,3280265845,0.54456264,-0.40746364,-0.3934152,-0.6185867,16.68782615661621,0.718076765537262,-3.0298831462860107,-48.9373779296875,319.96514892578125, 67.53778839111328
232,3280282512,0.56494945,-0.3881117,-0.3584355,-0.63381827,17.77293586730957,1.5836997032165527,-3.1195695400238037,-66.70175170898438,312.4398193359375, 73.40055847167969
233,3280299179,0.58151305,-0.37177625,-0.32095343,-0.64854753,17.891923904418945,1.7712419033050537,-3.102348566055298,-92.22953796386719,298.59381103515625, 74.83037567138672
234,3280315846,0.59403014,-0.35939336,-0.28184518,-0.6622145,17.506153106689453,2.143296957015991,-3.509320020675659,-123.31749725341797,276.11871337890625, 73.95854187011719
235,3280332513,0.6024848,-0.35163713,-0.24123622,-0.67466176,17.308828353881836,2.278038263320923,-4.7879509925842285,-156.7573699951172,250.6105499267578, 73.19400024414062
236,3280349180,0.61058795,-0.3439874,-0.20570047,-0.6830392,15.287954330444336,0.10184914618730545,-8.835118293762207,-127.7730712890625,219.00914001464844, 76.43403625488281
237,3280365847,0.61981106,-0.3312602,-0.18671472,-0.6864683,12.280564308166504,4.894171237945557,-12.872793197631836,-19.03816032409668,163.6254119873047, 56.206600189208984
238,3280382514,0.62480766,-0.32172891,-0.18064938,-0.6880929,10.096529960632324,8.791194915771484,-15.561348915100098,20.974048614501953,84.35797882080078, 18.746051788330078
239,3280399181,0.622496,-0.3233502,-0.18119784,-0.68928295,10.651545524597168,8.08390998840332,-14.8285551071167,-11.378430366516113,-6.4316511154174805, -14.570417404174805
240,3280415848,0.61487937,-0.3324585,-0.187674,-0.6900529,11.450642585754395,7.52223014831543,-12.763375282287598,-26.70216941833496,-74.42620849609375, -41.59082794189453
241,3280432515,0.6033906,-0.3452717,-0.19804943,-0.69100195,13.053129196166992,7.022446632385254,-9.639411926269531,-33.04884338378906,-112.71581268310547, -64.67201232910156
242,3280449182,0.5861512,-0.3635883,-0.20897275,-0.69322515,13.739276885986328,8.823989868164062,-8.736963272094727,-68.77693939208984,-145.63589477539062, -90.88764190673828
243,3280465849,0.56563854,-0.38711897,-0.21420063,-0.6959239,18.555219650268555,-7.0137810707092285,7.38342809677124,-125.94798278808594,-150.77560424804688, -86.38713073730469
244,3280482516,0.5476493,-0.40617156,-0.2236139,-0.6964926,17.1086483001709,-5.162099361419678,1.326570987701416,-78.55950164794922,-147.58888244628906, -83.7599868774414
245,3280499183,0.5279641,-0.42675817,-0.23371457,-0.69606686,19.537384033203125,-2.961181163787842,-4.503454208374023,-84.18791198730469,-162.84947204589844, -87.70220947265625
246,3280515850,0.51337683,-0.4402417,-0.25071472,-0.692657,14.058110237121582,-1.6103248596191406,-0.21626362204551697,-5.575018882751465,-154.26365661621094, -84.1219253540039
247,3280532517,0.500972,-0.4513824,-0.26568216,-0.6889805,11.283267974853516,3.7333788871765137,-3.0509369373321533,0.09908425807952881,-133.001708984375, -70.72959899902344
248,3280549184,0.4909653,-0.46083122,-0.27823392,-0.68496263,9.875303268432617,4.598935127258301,-1.0496282577514648,2.521947145462036,-113.36577606201172, -53.74910354614258
249,3280565851,0.4835872,-0.46806294,-0.28868058,-0.68097305,9.599838256835938,5.697160243988037,1.029434323310852,8.341686248779297,-90.80975341796875, -39.00870132446289
250,3280582518,0.4784803,-0.47376773,-0.29748663,-0.6768328,11.781901359558105,2.3801019191741943,0.9353528022766113,13.324325561523438,-74.35424041748047, -25.592077255249023
251,3280599185,0.47646537,-0.47763816,-0.30736858,-0.67109394,12.444664001464844,-1.1619094610214233,0.15426012873649597,37.73006057739258,-68.38751983642578, -13.260820388793945
252,3280615852,0.4763646,-0.48023063,-0.3176337,-0.66450304,10.862844467163086,-1.7805448770523071,-0.5323213338851929,51.83013916015625,-62.61989212036133, -5.747124671936035
253,3280632519,0.47612202,-0.48229405,-0.32697296,-0.6586267,10.279441833496094,0.7744795680046082,-0.6257163882255554,47.360435485839844,-55.23893356323242, -6.99311637878418
254,3280649186,0.47532922,-0.4845437,-0.3353755,-0.6533014,10.345417976379395,-0.3541345000267029,0.6505718231201172,39.47239685058594,-52.53955078125, -7.850964546203613
255,3280665853,0.47607106,-0.4858476,-0.34466574,-0.64692664,10.372015953063965,-0.39125457406044006,0.5323127508163452,54.11715316772461,-51.29227828979492, -2.7727701663970947
256,3280682520,0.47822165,-0.48651108,-0.35582235,-0.63874996,10.474924087524414,0.3152768313884735,0.8931039571762085,73.5234375,-57.35994338989258, 1.5308729410171509
257,3280699187,0.48184162,-0.48657385,-0.36844411,-0.62874776,10.982072830200195,0.22322581708431244,2.4504151344299316,91.34232330322266,-62.17405700683594, 7.522556781768799
258,3280715854,0.4858614,-0.4854762,-0.3824455,-0.6180512,10.111849784851074,3.2219223976135254,4.081264495849609,104.27452850341797,-63.187644958496094, 3.902113676071167
259,3280732521,0.48737884,-0.4864227,-0.3945225,-0.6084464,9.561348915100098,1.6196967363357544,3.4241507053375244,67.88965606689453,-68.30758666992188, -0.5484498143196106
260,3280749188,0.48731342,-0.48857462,-0.40602493,-0.5991364,8.908978462219238,-0.058408208191394806,2.6953952312469482,55.706607818603516,-74.94392395019531, -2.7237892150878906
261,3280765855,0.4857894,-0.4913583,-0.4179647,-0.58981454,9.017338752746582,-0.1304371953010559,1.2941075563430786,49.848289489746094,-83.29598999023438, -8.327248573303223
262,3280782522,0.48259142,-0.49491778,-0.43031153,-0.58051187,9.604294776916504,0.13142608106136322,0.9148489832878113,42.35939407348633,-92.6949691772461, -14.203182220458984
263,3280799189,0.47599024,-0.5008456,-0.44066778,-0.5730611,10.004727363586426,0.15100401639938354,0.7491423487663269,20.684986114501953,-99.51966857910156, -18.86196517944336
264,3280815856,0.46718374,-0.5082735,-0.45010757,-0.56639266,10.545304298400879,-0.5146802663803101,0.735503613948822,2.2064146995544434,-106.4980697631836, -22.43479347229004
265,3280832523,0.4565815,-0.51658607,-0.45912087,-0.5602503,10.908839225769043,-0.5927596092224121,1.0462942123413086,-10.193593978881836,-112.37273406982422, -26.922157287597656
266,3280849190,0.4444232,-0.5257845,-0.4674044,-0.55459154,11.516170501708984,-0.4272055923938751,-0.2142203152179718,-22.834186553955078,-116.77777862548828, -29.076662063598633
267,3280865857,0.43243986,-0.53471345,-0.47605386,-0.54813325,11.866415023803711,-1.1188527345657349,0.030330926179885864,-17.411632537841797,-119.2538070678711, -28.18147850036621
268,3280882524,0.42109793,-0.5428854,-0.48551443,-0.540581,11.817147254943848,-0.3632954955101013,0.5582163333892822,-6.161866664886475,-120.80252838134766, -28.01537322998047
269,3280899191,0.41006672,-0.55038095,-0.49564356,-0.53222513,11.669821739196777,-0.5897989869117737,1.1210827827453613,2.125300407409668,-122.27021026611328, -29.317596435546875
270,3280915858,0.39892402,-0.5575125,-0.50620496,-0.52325517,12.384665489196777,-0.3991210460662842,2.1773383617401123,6.40709114074707,-124.96317291259766, -30.907630920410156
271,3280932525,0.3870507,-0.5646471,-0.5169644,-0.5139197,12.945388793945312,-0.07101793587207794,3.135723352432251,5.585951328277588,-129.59332275390625, -33.31831359863281
272,3280949192,0.37414202,-0.5714991,-0.5282753,-0.50431335,13.47688102722168,0.19389031827449799,4.143589019775391,5.2372727394104,-134.9555206298828, -39.432899475097656
273,3280965859,0.36177683,-0.576933,-0.5417237,-0.49274877,14.235027313232422,0.1857459545135498,3.5322699546813965,25.557899475097656,-141.44764709472656, -46.0915641784668
274,3280982526,0.35028368,-0.58105063,-0.55762637,-0.47826195,14.857839584350586,0.5431259274482727,3.5607492923736572,51.503726959228516,-151.6201171875, -50.54052734375
275,3280999193,0.33981097,-0.5838538,-0.5747963,-0.46179286,15.441874504089355,0.16988252103328705,5.162229061126709,70.53219604492188,-154.548583984375, -52.54099655151367
276,3281015860,0.33194846,-0.5850957,-0.59266245,-0.44297257,15.109023094177246,-0.991567075252533,5.822713375091553,96.18472290039062,-150.5821533203125, -47.75769805908203
277,3281032527,0.32739985,-0.58487314,-0.6089226,-0.4242007,14.074193954467773,0.7868513464927673,9.430740356445312,107.78448486328125,-129.0146026611328, -37.32806396484375
278,3281049194,0.32669628,-0.5817248,-0.62486106,-0.4054807,12.238383293151855,5.018760681152344,4.4854583740234375,128.72438049316406,-103.7828140258789, -37.180484771728516
279,3281065861,0.32720205,-0.57780755,-0.64434284,-0.379341,15.270655632019043,7.943962097167969,-6.118035316467285,188.72256469726562,-133.1358184814453, -41.86703109741211
280,3281082528,0.3221771,-0.5757023,-0.6593406,-0.36060917,15.029650688171387,13.217386245727539,-5.262568473815918,117.49085235595703,-123.05123901367188, -47.147804260253906
281,3281099195,0.31131986,-0.57911915,-0.6625027,-0.35887486,13.832961082458496,2.0236434936523438,12.33462905883789,-24.663803100585938,-69.7220230102539, -27.240522384643555
282,3281115862,0.309964,-0.5793262,-0.6630344,-0.35873243,4.499119281768799,-3.533519983291626,8.273651123046875,-3.773930549621582,-7.832802772521973, -3.715930700302124
283,3281132529,0.3146605,-0.57552534,-0.66375136,-0.35943553,6.786289215087891,3.3276946544647217,2.1873691082000732,25.44178581237793,32.449554443359375, -9.692893028259277
284,3281149196,0.31987414,-0.5709968,-0.6595855,-0.36958134,7.478733062744141,3.4739253520965576,3.463020086288452,-26.066701889038086,84.4794921875, -12.803943634033203
285,3281165863,0.32935706,-0.56443995,-0.6517273,-0.38494536,5.122000694274902,-0.5318418145179749,5.169714450836182,-37.86381149291992,137.50750732421875, -8.106413841247559
286,3281182530,0.34416452,-0.5548423,-0.6415218,-0.4026796,5.317714691162109,-0.5468479990959167,5.3975629806518555,-27.163549423217773,183.83938598632812, -3.9413909912109375
287,3281199197,0.36118576,-0.54305017,-0.62835175,-0.4240465,7.094083309173584,0.7039327025413513,4.178865909576416,-37.771888732910156,220.46307373046875, -4.81833028793335
288,3281215864,0.37815765,-0.5305988,-0.6099894,-0.45097092,8.409276962280273,-0.21545150876045227,1.440805435180664,-75.48172760009766,255.75111389160156, -2.254405975341797
289,3281232531,0.39728642,-0.516954,-0.58779407,-0.47897846,10.221466064453125,-1.8715085983276367,-0.2913878262042999,-80.9650650024414,282.41546630859375, 10.534351348876953
290,3281249198,0.41975355,-0.501591,-0.56262213,-0.5056379,11.269868850708008,-2.5672948360443115,-1.5846126079559326,-68.79618072509766,304.95263671875, 28.74734115600586
291,3281265865,0.44502127,-0.48389453,-0.53607607,-0.5295513,12.24963665008545,-0.8699687719345093,-1.5644991397857666,-46.590152740478516,318.48797607421875, 42.015628814697266
292,3281282532,0.47048998,-0.46510297,-0.50686854,-0.55263263,13.865078926086426,0.576019823551178,-1.8389956951141357,-49.22345733642578,328.7062072753906, 50.05630874633789
293,3281299199,0.49602944,-0.44547513,-0.47586375,-0.57363796,15.425959587097168,0.5367840528488159,-2.05657696723938,-45.91362762451172,331.4497985839844, 59.855079650878906
294,3281315866,0.52158433,-0.4246963,-0.44451466,-0.59159905,16.436012268066406,1.1305228471755981,-1.9888005256652832,-40.60018539428711,327.60400390625, 67.0029067993164
295,3281332533,0.5442512,-0.40533444,-0.4112591,-0.60857266,17.008834838867188,1.987877368927002,-2.5240893363952637,-59.22146224975586,317.31097412109375, 67.93946075439453
296,3281349200,0.5631597,-0.38881952,-0.37509242,-0.625281,18.090579986572266,1.5234111547470093,-3.027553081512451,-84.32258605957031,305.53240966796875, 70.71165466308594
297,3281365867,0.5782166,-0.37542096,-0.3371898,-0.64111465,17.994661331176758,2.063049554824829,-3.0678765773773193,-111.93392181396484,286.9160461425781, 70.23296356201172
298,3281382534,0.588516,-0.36655307,-0.29748273,-0.65634745,17.17232894897461,2.8359882831573486,-2.9128592014312744,-148.8335418701172,261.8999328613281, 66.8566665649414
299,3281399201,0.5938645,-0.3627379,-0.25551096,-0.6711635,16.442480087280273,2.8744826316833496,-4.294448375701904,-191.18653869628906,237.45904541015625, 62.330989837646484
300,3281415868,0.600753,-0.356402,-0.22256531,-0.6801016,13.90977954864502,0.8061606287956238,-7.11123514175415,-125.08335876464844,200.65875244140625, 66.61575317382812
301,3281432535,0.6072011,-0.34648797,-0.20292293,-0.68562025,11.197426795959473,5.903235912322998,-8.673382759094238,-43.92155838012695,153.799560546875, 40.68796157836914
302,3281449202,0.60995877,-0.33952954,-0.1937203,-0.6893059,9.993631362915039,6.632680892944336,-11.085464477539062,-13.36938190460205,87.17778778076172, 10.373808860778809
303,3281465869,0.60793376,-0.3398855,-0.1921322,-0.6913608,10.343239784240723,5.472622871398926,-10.974230766296387,-17.04728126525879,10.8446683883667, -13.303966522216797
304,3281482536,0.60234314,-0.34528655,-0.19669269,-0.69229466,11.094172477722168,5.028867244720459,-9.166624069213867,-15.837214469909668,-45.73164367675781, -33.1068115234375
305,3281499203,0.5940486,-0.3530405,-0.20527804,-0.6930582,12.321749687194824,4.922582149505615,-6.539751052856445,-12.690217971801758,-77.26345825195312, -51.48545837402344
306,3281515870,0.5812977,-0.3653119,-0.2143968,-0.69474757,12.462667465209961,5.777231693267822,-7.2047834396362305,-40.81766891479492,-104.66659545898438, -71.24920654296875
307,3281532537,0.56254756,-0.38328862,-0.22408885,-0.6974341,13.43181037902832,8.914352416992188,-8.846970558166504,-77.54027557373047,-140.21812438964844, -96.69512939453125
308,3281549204,0.54032606,-0.40696707,-0.22987095,-0.6997035,19.751434326171875,-6.5986199378967285,1.8770639896392822,-127.01888275146484,-158.5247802734375, -92.27367401123047
309,3281565871,0.522002,-0.42467308,-0.24287531,-0.6986975,17.618783950805664,-4.979022026062012,0.9402192831039429,-53.88982009887695,-159.4510955810547, -90.99695587158203
310,3281582538,0.50343585,-0.44275042,-0.25580254,-0.6964838,16.19080924987793,-3.8766684532165527,-3.3006532192230225,-54.216888427734375,-164.74232482910156, -86.99819946289062
311,3281599205,0.48979402,-0.45498052,-0.27327934,-0.6916742,12.59692668914795,0.42504310607910156,-0.21782054007053375,7.423765182495117,-151.4849853515625, -78.59803771972656
312,3281615872,0.47692877,-0.46526086,-0.2874541,-0.68807095,10.146549224853516,6.078660488128662,-1.6205837726593018,-1.5741324424743652,-125.76778411865234, -72.27835845947266
313,3281632539,0.46420678,-0.4756568,-0.29686368,-0.685664,9.476203918457031,5.022769451141357,-1.2829607725143433,-26.493886947631836,-106.49156188964844, -59.85747528076172
314,3281649206,0.45577112,-0.4835744,-0.30581984,-0.68183774,10.065925598144531,3.266295909881592,0.7271245121955872,-3.8596549034118652,-89.19664001464844, -38.54073715209961
315,3281665873,0.4504052,-0.48938072,-0.3145746,-0.6772625,12.429352760314941,2.2015540599823,1.4224283695220947,13.5790376663208,-74.70498657226562, -25.50469970703125
316,3281682540,0.44771174,-0.49353364,-0.32391882,-0.6716067,12.542231559753418,-2.084223747253418,0.12152145802974701,32.78067398071289,-66.67817687988281, -15.264376640319824
317,3281699207,0.44762215,-0.49571648,-0.33443043,-0.6648729,11.421000480651855,-1.6173040866851807,-0.5394731163978577,55.531124114990234,-58.98448181152344, -8.423956871032715
318,3281715874,0.44718647,-0.49750614,-0.34396344,-0.6589394,10.43320369720459,0.6889965534210205,-0.6571605801582336,49.29412078857422,-52.18492126464844, -10.188332557678223
319,3281732541,0.44669497,-0.49957517,-0.35253543,-0.6531518,10.878841400146484,0.06545969098806381,0.32655787467956543,43.56440353393555,-50.079036712646484, -7.009203910827637
320,3281749208,0.44786856,-0.5012994,-0.36145544,-0.6461134,10.840301513671875,0.037085868418216705,0.7260228395462036,54.96875,-49.84760284423828, 2.1836979389190674
321,3281765875,0.4512609,-0.5021874,-0.3722829,-0.6368494,11.685885429382324,0.08580290526151657,1.9047889709472656,79.23894500732422,-54.162086486816406, 10.124502182006836
322,3281782542,0.45669603,-0.5010019,-0.38595557,-0.62567085,10.590335845947266,1.745281457901001,3.167644500732422,110.13117218017578,-55.32524108886719, 9.729323387145996
323,3281799209,0.46085894,-0.50063235,-0.39942133,-0.6143607,10.038829803466797,1.596099853515625,2.4544131755828857,102.6763916015625,-62.10458755493164, 7.445599555969238
324,3281815876,0.46458203,-0.5005157,-0.41340202,-0.60228443,9.615062713623047,0.8760352730751038,2.796721935272217,93.8264389038086,-68.77243041992188, 5.497189044952393
325,3281832543,0.46664494,-0.50128204,-0.4267829,-0.5906059,8.8615083694458,0.6750777959823608,2.874272584915161,80.89984893798828,-74.0010757446289, 1.9765064716339111
326,3281849210,0.46623778,-0.503355,-0.43902895,-0.5800947,8.78580379486084,1.3404759168624878,2.353769063949585,60.34541320800781,-79.048583984375, -3.856178045272827
327,3281865877,0.46143588,-0.5081947,-0.4489953,-0.5720301,9.093103408813477,1.623281717300415,1.2793511152267456,31.169233322143555,-87.58489990234375, -12.154064178466797
328,3281882544,0.45375016,-0.51457065,-0.45827544,-0.56507665,9.330379486083984,1.1738288402557373,1.6687572002410889,10.095253944396973,-96.55744934082031, -19.86636734008789
329,3281899211,0.44357085,-0.5221923,-0.46673644,-0.5592114,9.645341873168945,0.5146719217300415,1.6819108724594116,-9.218188285827637,-102.96487426757812, -26.10976219177246
330,3281915878,0.43146795,-0.5307375,-0.4746328,-0.55396473,10.557845115661621,0.06320285052061081,1.0665420293807983,-23.0915584564209,-108.87690734863281, -30.39665412902832
331,3281932545,0.41815484,-0.5392621,-0.48283505,-0.54882896,11.04355525970459,0.5228989124298096,0.3932623267173767,-26.641462326049805,-113.36817932128906, -36.52769088745117
332,3281949212,0.4041528,-0.5478465,-0.49066722,-0.543848,11.5398588180542,0.03664863482117653,0.07345645129680634,-31.27910804748535,-114.34323120117188, -37.99534225463867
333,3281965879,0.39168462,-0.5555878,-0.4990839,-0.5374206,11.158475875854492,-0.781771719455719,-0.7826317548751831,-16.090612411499023,-113.18930053710938, -33.31061935424805
334,3281982546,0.38164216,-0.56151915,-0.5096557,-0.52848524,11.155402183532715,0.021956564858555794,0.053112953901290894,14.615455627441406,-113.6337661743164, -32.11505889892578
335,3281999213,0.37170392,-0.56707716,-0.52042353,-0.5190559,11.734817504882812,0.6908351182937622,0.7589249014854431,18.44319725036621,-114.45284271240234, -32.5717887878418
336,3282015880,0.36166254,-0.57265,-0.5314747,-0.50873077,12.305641174316406,-0.1999102234840393,2.3162717819213867,22.23078155517578,-119.26200103759766, -31.75163459777832
337,3282032547,0.35121003,-0.57834977,-0.5421596,-0.49822304,12.906472206115723,0.05883936583995819,2.9248180389404297,19.69670867919922,-121.27752685546875, -30.9231014251709
338,3282049214,0.34024504,-0.58420354,-0.5523007,-0.4877536,13.467571258544922,-0.8682844042778015,1.5317896604537964,15.303478240966797,-122.56266784667969, -30.122838973999023
339,3282065881,0.33010307,-0.588964,-0.56355524,-0.47598222,13.217108726501465,-0.5958239436149597,0.45391377806663513,29.84811782836914,-123.88253021240234, -33.07204818725586
340,3282082548,0.32156897,-0.5926137,-0.5751342,-0.4632744,12.718586921691895,-1.307778239250183,1.4253184795379639,43.566165924072266,-118.78871154785156, -31.42584800720215
341,3282099215,0.3147396,-0.59503746,-0.5873927,-0.44926515,12.605741500854492,-0.14611341059207916,2.6688528060913086,60.524105072021484,-115.24968719482422, -30.888742446899414
342,3282115882,0.30859348,-0.59623814,-0.5999962,-0.43505722,13.219701766967773,1.0673916339874268,5.606722831726074,67.84881591796875,-110.64390563964844, -34.807403564453125
343,3282132549,0.30500817,-0.5961745,-0.61296684,-0.4193064,13.4155912399292,1.2278600931167603,8.855493545532227,88.55182647705078,-103.93195343017578, -30.656471252441406
344,3282149216,0.30476487,-0.5943399,-0.6268029,-0.40124407,12.969111442565918,3.7079994678497314,7.089385509490967,118.29442596435547,-96.72264099121094, -27.2301082611084
345,3282165883,0.30531946,-0.58965445,-0.64580613,-0.37685856,15.159872055053711,9.17185115814209,-5.100243091583252,169.1841583251953,-122.7073974609375, -45.09836959838867
346,3282182550,0.30278972,-0.5865029,-0.66275865,-0.35367182,19.963218688964844,9.10897445678711,-4.754066467285156,143.00253295898438,-131.35476684570312, -40.183841705322266
347,3282199217,0.29342827,-0.58773667,-0.67064047,-0.34453905,13.522167205810547,5.7533440589904785,9.305142402648926,31.54807472229004,-96.75450134277344, -38.781959533691406
348,3282215884,0.28580636,-0.5897222,-0.6720083,-0.34488747,6.469419479370117,-1.9986841678619385,6.257152080535889,-22.63140106201172,-39.80373764038086, -23.636978149414062
349,3282232551,0.28695512,-0.5878584,-0.67439836,-0.34244165,9.367059707641602,0.22962093353271484,2.7067365646362305,35.18922424316406,-3.9422905445098877, -18.988094329833984
350,3282249218,0.290524,-0.5845155,-0.67427653,-0.34538227,8.87637710571289,3.2928807735443115,4.5980424880981445,16.854652404785156,37.07704544067383, -20.47063636779785
351,3282265885,0.2961033,-0.57964486,-0.6706713,-0.35571724,6.271356582641602,0.6005206108093262,5.125157833099365,-23.783790588378906,85.193603515625, -14.781492233276367
352,3282282552,0.3054307,-0.5733026,-0.66391873,-0.3704703,5.47931432723999,0.24611882865428925,4.326847076416016,-33.879661560058594,129.72579956054688, -8.884419441223145
353,3282299219,0.31668934,-0.56585777,-0.6533252,-0.39074194,5.544939994812012,0.05826482176780701,3.8077235221862793,-58.90947341918945,170.86984252929688, -5.500039100646973
354,3282315886,0.32918674,-0.5577498,-0.63807213,-0.41643175,6.229686737060547,-0.23321862518787384,3.764029026031494,-89.50102233886719,209.1755828857422, 1.0884630680084229
355,3282332553,0.34219664,-0.5499362,-0.61689156,-0.44712037,7.597835063934326,-0.9106727838516235,2.000342845916748,-127.12223815917969,242.9016876220703, 15.114938735961914
356,3282349220,0.3580211,-0.54136807,-0.5911025,-0.47889397,9.58165454864502,-1.6883409023284912,0.5025495886802673,-133.5198974609375,271.9127502441406, 35.22279357910156
357,3282365887,0.3775873,-0.5311455,-0.5619103,-0.50947946,11.068479537963867,-2.0191187858581543,0.11778762936592102,-121.95835876464844,296.40240478515625, 56.14320755004883
358,3282382554,0.400417,-0.51894736,-0.5299381,-0.538076,12.799504280090332,-0.8154214024543762,-0.4371793866157532,-107.02632904052734,315.8101806640625, 74.98126220703125
359,3282399221,0.42575753,-0.50468314,-0.49520364,-0.5646228,15.003501892089844,-0.04267033189535141,-0.6254374980926514,-95.18324279785156,332.89398193359375, 92.03703308105469
360,3282415888,0.4528297,-0.4880162,-0.4598737,-0.5876239,16.64762306213379,1.0382664203643799,-1.2716386318206787,-72.42113494873047,337.6128234863281, 102.87737274169922
361,3282432555,0.48081732,-0.46875244,-0.4253253,-0.60678196,18.09351921081543,1.9801496267318726,-1.6376116275787354,-51.17421340942383,335.4337463378906, 107.62515258789062
362,3282449222,0.50631285,-0.44876543,-0.39046627,-0.6243343,18.950742721557617,3.614840030670166,-1.3930320739746094,-48.332115173339844,327.7043762207031, 101.48344421386719
363,3282465889,0.52718455,-0.42979428,-0.35388324,-0.6419658,19.646129608154297,3.706692695617676,-2.5545494556427,-73.85131072998047,317.5667419433594, 89.51964569091797
364,3282482556,0.5435797,-0.41243917,-0.31692883,-0.658765,19.009111404418945,3.5374667644500732,-3.562077045440674,-92.6560287475586,298.9892883300781, 77.93262481689453
365,3282499223,0.5553894,-0.3996144,-0.2783756,-0.67406094,17.641389846801758,0.22848522663116455,-7.2805376052856445,-126.67054748535156,270.89288330078125, 77.32679748535156
366,3282515890,0.5677558,-0.38784552,-0.24520485,-0.6834499,16.532367706298828,2.2025718688964844,-8.71484375,-92.91152954101562,231.1910400390625, 89.75267028808594
367,3282532557,0.5765991,-0.37716174,-0.22158086,-0.6900613,11.827611923217773,5.811498641967773,-14.056055068969727,-57.02691650390625,176.44708251953125, 60.611419677734375
368,3282549224,0.5816925,-0.36843503,-0.21578456,-0.69233423,8.718973159790039,10.305252075195312,-16.752363204956055,16.57421112060547,80.57575225830078, 17.12131118774414
369,3282565891,0.5766955,-0.3729602,-0.2151209,-0.6942952,10.425193786621094,9.220637321472168,-15.699216842651367,-37.3377571105957,-17.76066017150879, -22.51766586303711
370,3282582558,0.5658745,-0.38555223,-0.21939671,-0.69498265,12.602898597717285,6.0373921394348145,-13.630794525146484,-59.003517150878906,-86.77518463134766, -45.54497528076172
371,3282599225,0.5524056,-0.39977136,-0.22996101,-0.6943697,13.948858261108398,6.807851314544678,-9.943638801574707,-40.44780349731445,-125.6048583984375, -67.0033950805664
372,3282615892,0.5341916,-0.41723287,-0.24216458,-0.6941993,14.797147750854492,9.350314140319824,-9.29960823059082,-58.823822021484375,-152.94723510742188, -90.34530639648438
373,3282632559,0.5137817,-0.43735334,-0.25185588,-0.69377154,19.129119873046875,-1.8486765623092651,0.5466349124908447,-86.6457290649414,-160.25546264648438, -87.75157165527344
374,3282649226,0.49771452,-0.4521523,-0.26549476,-0.69090617,17.88300132751465,-2.9259748458862305,1.7914185523986816,-31.654525756835938,-148.47216796875, -79.49507904052734
375,3282665893,0.47975236,-0.46811122,-0.2764285,-0.6886923,16.50858497619629,-1.3359065055847168,-4.3021016120910645,-55.471839904785156,-146.1549835205078, -80.28501892089844
376,3282682560,0.46671227,-0.4791453,-0.29146242,-0.68384874,14.184282302856445,-0.0879419818520546,-1.436192274093628,1.0912100076675415,-135.26116943359375, -70.9130859375
377,3282699227,0.454739,-0.48850006,-0.30450812,-0.67959917,11.642330169677734,3.767228364944458,-1.7380263805389404,-0.5213663578033447,-116.88822174072266, -64.69105529785156
378,3282715894,0.44312528,-0.49768615,-0.31382427,-0.6763601,10.51773738861084,3.8346917629241943,0.08227600157260895,-18.363176345825195,-100.34796905517578, -53.923580169677734
379,3282732561,0.43446377,-0.50517046,-0.32235157,-0.6724089,10.548656463623047,2.8504457473754883,0.6987693309783936,-5.222774028778076,-86.26604461669922, -38.94304275512695
380,3282749228,0.4290769,-0.510631,-0.33119357,-0.6674279,11.814493179321289,1.6516648530960083,1.2913955450057983,15.94914436340332,-74.35880279541016, -26.327205657958984
381,3282765895,0.4267022,-0.5142471,-0.3406169,-0.6614043,11.455097198486328,-0.7004740238189697,0.6665207147598267,37.048316955566406,-64.59989929199219, -15.768218040466309
382,3282782562,0.42704245,-0.51617646,-0.35106146,-0.65418077,10.668121337890625,-0.6793667078018188,-0.3841467499732971,59.11627197265625,-57.97075271606445, -7.669551372528076
383,3282799229,0.427197,-0.51774776,-0.36048222,-0.64768255,10.268048286437988,1.0260086059570312,-0.059433192014694214,53.21031188964844,-51.35009765625, -8.065775871276855
384,3282815896,0.42717138,-0.5195627,-0.36900643,-0.64141524,10.807463645935059,-0.12244372069835663,0.38165906071662903,47.32381820678711,-49.564048767089844, -5.870464324951172
385,3282832563,0.42818937,-0.5211613,-0.3783149,-0.63397384,10.82754135131836,-0.20590360462665558,0.6208118796348572,58.16966247558594,-52.61100769042969, -1.3252809047698975
386,3282849230,0.43051872,-0.52242476,-0.38906962,-0.6247808,11.403651237487793,-0.9386665225028992,1.4839478731155396,74.76178741455078,-58.425662994384766, 3.335820436477661
387,3282865897,0.43546376,-0.5215609,-0.40321687,-0.612994,10.390288352966309,0.7177020311355591,2.738962411880493,112.01953125,-61.823787689208984, 4.178549766540527
388,3282882564,0.4388139,-0.5217809,-0.41717303,-0.6009609,10.123265266418457,1.8280346393585205,1.9954642057418823,102.96614837646484,-71.34264373779297, 1.753177523612976
389,3282899231,0.44088724,-0.5226538,-0.43099362,-0.588809,9.607402801513672,1.6334304809570312,3.0004823207855225,87.56983947753906,-78.19928741455078, -1.0761313438415527
390,3282915898,0.44074413,-0.52463955,-0.44346264,-0.57778805,8.682609558105469,1.1452118158340454,3.0815556049346924,67.36598205566406,-81.34994506835938, -5.167757987976074
391,3282932565,0.43858585,-0.52760965,-0.45481595,-0.56781423,8.941916465759277,0.7639716267585754,1.5725460052490234,48.40481185913086,-84.5330581665039, -9.121003150939941
392,3282949232,0.434054,-0.5315225,-0.46601537,-0.55849004,9.514580726623535,1.6418733596801758,1.09977126121521,33.50151443481445,-93.05266571044922, -16.57688331604004
393,3282965899,0.42560807,-0.53766114,-0.47493574,-0.55155635,10.072694778442383,1.2438840866088867,1.6196118593215942,6.683139801025391,-98.30458068847656, -23.89200782775879
394,3282982566,0.4149917,-0.5450023,-0.4825451,-0.5458066,10.840964317321777,0.5588471293449402,0.8530745506286621,-13.684603691101074,-101.90641021728516, -26.820392608642578
395,3282999233,0.403278,-0.5528764,-0.48971596,-0.54025275,11.364591598510742,-0.5652240514755249,0.7667909860610962,-21.601041793823242,-105.70671844482422, -28.112266540527344
396,3283015900,0.39160794,-0.5616156,-0.49574012,-0.5342969,11.789764404296875,-1.0037647485733032,-0.21321162581443787,-26.72887420654297,-107.27156829833984, -19.625566482543945
397,3283032567,0.38172397,-0.5690923,-0.5042014,-0.5255493,11.124698638916016,-0.829498827457428,-0.0961834266781807,2.042715549468994,-114.00809478759766, -19.340625762939453
398,3283049234,0.37228087,-0.57546645,-0.5138482,-0.51595116,10.802302360534668,-0.5757405161857605,0.9487561583518982,13.897616386413574,-115.05960845947266, -24.052213668823242
399,3283065901,0.36203098,-0.5814396,-0.5238175,-0.50643533,11.472566604614258,0.0575498528778553,1.6125530004501343,12.590980529785156,-117.14752960205078, -29.885196685791016
400,3283082568,0.35039136,-0.5875993,-0.53369606,-0.49711332,12.351258277893066,-0.08716163784265518,1.8095266819000244,5.565526008605957,-121.98798370361328, -34.22023391723633
401,3283099235,0.33827734,-0.59301734,-0.5445139,-0.48724076,13.200493812561035,-0.47129547595977783,2.7561285495758057,10.675095558166504,-125.87926483154297, -41.08644104003906
402,3283115902,0.32734022,-0.59720093,-0.5569965,-0.47534662,13.416379928588867,-1.10076105594635,2.251051425933838,31.499217987060547,-129.68527221679688, -43.92087173461914
403,3283132569,0.31713066,-0.6006031,-0.5711031,-0.46102655,13.772736549377441,-0.5056785941123962,2.787659168243408,50.84646224975586,-138.18072509765625, -45.82843017578125
404,3283149236,0.3074155,-0.6032061,-0.58628696,-0.44486636,14.456670761108398,0.2623752951622009,3.8995461463928223,65.28055572509766,-143.89291381835938, -47.8995246887207
405,3283165903,0.2985063,-0.604921,-0.60208523,-0.42715117,15.037747383117676,0.05078424513339996,5.17336893081665,78.6717529296875,-145.95022583007812, -48.3156623840332
406,3283182570,0.29123792,-0.6057706,-0.61755115,-0.4084768,14.76349925994873,0.4732816219329834,6.8623809814453125,90.29552459716797,-140.23619079589844, -43.76701354980469
407,3283199237,0.2875729,-0.6059812,-0.63116264,-0.38951597,13.923401832580566,0.6161794066429138,9.977056503295898,102.6297607421875,-120.9646987915039, -28.075868606567383
408,3283215904,0.28809926,-0.60370916,-0.6460766,-0.36758572,12.775757789611816,4.751538276672363,3.715301036834717,141.43406677246094,-111.47708129882812, -27.165414810180664
409,3283232571,0.28763145,-0.60079694,-0.6622468,-0.34313342,14.974187850952148,9.825238227844238,-7.2252631187438965,162.2093963623047,-126.32202911376953, -40.85242462158203
410,3283249238,0.28340295,-0.6004331,-0.6733253,-0.32526284,17.780155181884766,7.469077110290527,-2.3284807205200195,98.97162628173828,-112.45086669921875, -29.793630599975586
411,3283265905,0.27597663,-0.60328954,-0.67454374,-0.32383534,8.269522666931152,2.6835312843322754,12.879698753356934,-19.71568489074707,-47.661224365234375, -12.542431831359863
412,3283282572,0.27502033,-0.6050759,-0.67225266,-0.3260729,5.982671737670898,-3.878709077835083,5.9572954177856445,-18.68524932861328,5.987944602966309, 7.6363420486450195
413,3283299239,0.28185442,-0.6019111,-0.6713434,-0.32796213,7.831259250640869,1.230120062828064,2.9548258781433105,23.704879760742188,48.504337310791016, 1.324196696281433
414,3283315906,0.29015085,-0.59780824,-0.6667358,-0.3374929,7.246626377105713,2.4544248580932617,4.014697551727295,-12.033869743347168,96.0842056274414, 0.79365473985672
415,3283332573,0.30145726,-0.59237736,-0.6585554,-0.35287023,5.7100749015808105,-0.37324249744415283,4.436739444732666,-32.08765411376953,144.04037475585938, 4.731111526489258
416,3283349240,0.317008,-0.5845904,-0.6475845,-0.37201414,5.809032440185547,0.10118168592453003,4.718130111694336,-33.76863479614258,190.04632568359375, 7.881237506866455
417,3283365907,0.33417284,-0.5749534,-0.6335252,-0.39547828,7.1605634689331055,0.8859726190567017,3.9518535137176514,-50.40408706665039,226.0087432861328, 6.7391767501831055
418,3283382574,0.35150483,-0.5641417,-0.6154475,-0.4235717,8.891587257385254,0.8437778949737549,1.5049355030059814,-78.14972686767578,257.42254638671875, 7.2949700355529785
419,3283399241,0.37089407,-0.5518312,-0.59417063,-0.45263818,10.866135597229004,-1.0828213691711426,-0.07183843851089478,-80.00225067138672,282.0050048828125, 16.96004867553711
420,3283415908,0.39312938,-0.53759044,-0.5709161,-0.4801052,12.040873527526855,-1.1540769338607788,-0.529726505279541,-63.934444427490234,298.6512145996094, 29.429609298706055
421,3283432575,0.41535416,-0.5225553,-0.5440616,-0.5083445,13.086653709411621,0.464404821395874,-0.8168660402297974,-76.78162384033203,313.88409423828125, 37.41260528564453
422,3283449242,0.43726185,-0.507327,-0.51311916,-0.5367778,14.563020706176758,-0.16208615899085999,-1.9452345371246338,-92.4156723022461,325.83880615234375, 49.66444778442383
423,3283465909,0.46019873,-0.49080226,-0.48084202,-0.5622467,15.74136734008789,0.639958918094635,-1.7863184213638306,-79.41968536376953,328.06292724609375, 62.39430618286133
424,3283482576,0.48305437,-0.4736157,-0.44705367,-0.5852263,16.60076332092285,1.0123639106750488,-1.898585319519043,-75.2383804321289,326.8957824707031, 72.83738708496094
425,3283499243,0.5056995,-0.455447,-0.41285726,-0.60529727,17.925617218017578,1.681931734085083,-1.780877947807312,-65.38725280761719,322.27783203125, 79.95014190673828
426,3283515910,0.52594465,-0.43779534,-0.37674353,-0.6243249,18.87045669555664,2.5553975105285645,-1.9608173370361328,-79.75727844238281,316.94720458984375, 81.07656860351562
427,3283532577,0.5417913,-0.4230889,-0.3380297,-0.6428015,18.60265350341797,2.2713608741760254,-3.2933151721954346,-113.43157196044922,300.9344177246094, 79.68199157714844
428,3283549244,0.5539415,-0.4124943,-0.29840484,-0.6587505,17.98409652709961,0.7909896969795227,-4.761273384094238,-137.69395446777344,270.5412292480469, 85.01030731201172
429,3283565911,0.56413007,-0.4040446,-0.26043463,-0.67132646,16.776811599731445,1.593658685684204,-7.083304405212402,-137.01820373535156,241.3081817626953, 88.7134017944336
430,3283582578,0.5754208,-0.3912727,-0.23712496,-0.6779147,12.958477973937988,3.93776798248291,-11.500000953674316,-38.78112030029297,190.12808227539062, 68.63228607177734
431,3283599245,0.5835571,-0.37891135,-0.2296889,-0.68053687,8.978167533874512,8.86997127532959,-14.73150634765625,31.54023551940918,110.04899597167969, 27.716569900512695
432,3283615912,0.5813123,-0.3795601,-0.22747119,-0.6828376,10.280067443847656,9.304737091064453,-13.74920654296875,-22.875455856323242,11.459940910339355, -12.408105850219727
433,3283632579,0.5719233,-0.389204,-0.22954331,-0.6846414,11.534934997558594,6.379954814910889,-11.321968078613281,-56.65913009643555,-59.961978912353516, -40.866668701171875
434,3283649246,0.5593323,-0.40088403,-0.23674932,-0.68584937,12.14358901977539,6.086730480194092,-8.227019309997559,-48.191471099853516,-96.02366638183594, -63.94639587402344
435,3283665913,0.54391974,-0.41460755,-0.24548471,-0.6870147,13.076973915100098,5.389869689941406,-6.868307590484619,-56.61394119262695,-115.9788818359375, -77.80964660644531
436,3283682580,0.5246041,-0.4316955,-0.252848,-0.68883777,12.984859466552734,6.058361053466797,-8.2261323928833,-87.97574615478516,-131.22659301757812, -88.95030212402344
437,3283699247,0.5023788,-0.4513571,-0.25859833,-0.6906661,15.327936172485352,3.622574806213379,-2.0265331268310547,-113.60445404052734,-142.42041015625, -93.2890396118164
438,3283715914,0.48497579,-0.46737987,-0.26463398,-0.690162,16.724239349365234,-9.875323295593262,4.9248809814453125,-80.58429718017578,-124.6933822631836, -69.53697204589844
439,3283732581,0.4687123,-0.4825215,-0.27163392,-0.6882566,16.759750366210938,-4.37947416305542,-3.8600666522979736,-66.74007415771484,-126.2336196899414, -64.33831787109375
440,3283749248,0.45650825,-0.49352026,-0.28435028,-0.6835078,16.393308639526367,-2.3592491149902344,-1.798293113708496,-7.495138168334961,-126.76203155517578, -62.739646911621094
441,3283765915,0.44585887,-0.50194,-0.2982739,-0.67845327,12.967110633850098,3.2011709213256836,-0.9850927591323853,12.174327850341797,-116.34735870361328, -63.67626190185547
442,3283782582,0.43426844,-0.5108,-0.30926454,-0.67442566,11.761275291442871,2.7309484481811523,-0.2981504499912262,-8.237027168273926,-107.77407836914062, -60.13702392578125
443,3283799249,0.4250823,-0.5184628,-0.3198317,-0.6694845,9.942660331726074,1.8446261882781982,1.2691230773925781,3.7463557720184326,-99.07083892822266, -47.285011291503906
444,3283815916,0.41838485,-0.52447075,-0.32993627,-0.6640985,10.287012100219727,3.1800949573516846,1.5760101079940796,16.303943634033203,-86.28567504882812, -36.522438049316406
445,3283832583,0.413752,-0.52912235,-0.33955628,-0.658438,10.893538475036621,1.4438987970352173,1.5852669477462769,26.05846405029297,-75.07940673828125, -27.617773056030273
446,3283849250,0.41147465,-0.53250897,-0.34920782,-0.65205586,10.609140396118164,-0.17244853079319,0.5401761531829834,40.06669998168945,-66.6380615234375, -18.003828048706055
447,3283865917,0.4103656,-0.53512585,-0.35849428,-0.64554036,10.409820556640625,0.8509368300437927,-0.41374772787094116,45.22785186767578,-59.88481903076172, -12.977119445800781
448,3283882584,0.40884486,-0.5378005,-0.36652032,-0.6397494,10.523491859436035,0.7002625465393066,-0.1137629821896553,36.183597564697266,-54.95920944213867, -12.118045806884766
449,3283899251,0.4076294,-0.54035515,-0.3741164,-0.63394934,10.477399826049805,-0.4970327615737915,0.48627689480781555,35.79539108276367,-52.52286148071289, -9.510519027709961
450,3283915918,0.4077654,-0.5423541,-0.3824395,-0.6271519,10.500529289245605,-0.031565919518470764,0.31381693482398987,48.12934875488281,-52.42091751098633, -5.0345354080200195
451,3283932585,0.4093218,-0.5439265,-0.3914881,-0.6191421,11.34284496307373,-0.37309446930885315,0.6670240759849548,60.95768356323242,-53.44925308227539, 0.5896628499031067
452,3283949252,0.414326,-0.5439464,-0.403485,-0.6079935,11.024773597717285,-0.2927630841732025,2.280686140060425,99.24561309814453,-57.64894104003906, 8.803272247314453
453,3283965919,0.41885024,-0.5437125,-0.41668832,-0.59608084,10.23606014251709,1.8863197565078735,2.527494192123413,105.35868072509766,-64.31112670898438, 3.6616408824920654
454,3283982586,0.42142758,-0.5441821,-0.42980558,-0.5844072,9.406800270080566,1.1849148273468018,3.9851605892181396,95.03141021728516,-71.73429107666016, -2.703683376312256
455,3283999253,0.42136487,-0.5458285,-0.44118413,-0.57435143,9.002150535583496,1.2581889629364014,2.9278736114501953,69.98992156982422,-73.32083892822266, -8.055179595947266
456,3284015920,0.41874912,-0.5487976,-0.45159915,-0.5652687,9.366509437561035,0.8002024292945862,1.1777716875076294,49.83149719238281,-79.97063446044922, -13.350020408630371
457,3284032587,0.41449422,-0.55244696,-0.46162668,-0.5566847,10.003194808959961,0.4094730317592621,0.6117052435874939,38.64124298095703,-84.79032897949219, -17.60828971862793
458,3284049254,0.40870422,-0.55685145,-0.4710274,-0.54864454,10.882192611694336,0.06950788199901581,0.4030323624610901,26.540992736816406,-88.77845764160156, -20.287189483642578
459,3284065921,0.401877,-0.56190896,-0.47984022,-0.54083884,11.118232727050781,-0.7383744120597839,0.7771580815315247,17.76375961303711,-92.13002014160156, -20.530399322509766
460,3284082588,0.39406785,-0.5674795,-0.48853734,-0.53292495,10.943594932556152,-1.0819447040557861,0.7547597289085388,12.484275817871094,-97.47210693359375, -21.79799461364746
461,3284099255,0.3849423,-0.57369936,-0.4974251,-0.5246493,10.865583419799805,-0.9542332887649536,0.8151730298995972,7.50486946105957,-106.30277252197266, -24.264623641967773
462,3284115922,0.37431875,-0.580369,-0.5063922,-0.516357,10.755897521972656,-0.8930610418319702,1.1964925527572632,0.7499055862426758,-113.43113708496094, -28.452714920043945
463,3284132589,0.36312553,-0.58730394,-0.5157271,-0.5071881,11.665901184082031,-1.260465145111084,1.7014023065567017,2.1524100303649902,-120.92385864257812, -28.815141677856445
464,3284149256,0.3507724,-0.59481055,-0.5248491,-0.4976871,12.382169723510742,-0.9022027850151062,2.186715602874756,-3.5248031616210938,-127.98422241210938, -29.20686912536621
465,3284165923,0.33751163,-0.6021551,-0.5345028,-0.4876493,12.840328216552734,0.10591070353984833,3.3236169815063477,-3.088216781616211,-134.34715270996094, -33.83375549316406
466,3284182590,0.32424268,-0.6087973,-0.544904,-0.47677296,13.427103996276855,-0.6399256587028503,3.6871390342712402,4.105324745178223,-137.4280242919922, -37.625213623046875
467,3284199257,0.31329525,-0.613767,-0.5579102,-0.46246365,14.02952766418457,-0.2716459333896637,3.2547433376312256,38.96078109741211,-143.64385986328125, -39.58934783935547
468,3284215924,0.30366898,-0.61694753,-0.5736446,-0.44507608,14.788690567016602,0.5010402202606201,3.361736297607422,68.88495635986328,-151.97312927246094, -47.18073654174805
469,3284232591,0.29479662,-0.6185913,-0.5908073,-0.42589512,15.127748489379883,0.2228287309408188,4.676280498504639,86.7560806274414,-155.12042236328125, -53.2773323059082
470,3284249258,0.28733432,-0.61922204,-0.6083192,-0.40490845,14.693626403808594,-0.7683737277984619,6.2730712890625,103.18960571289062,-155.08740234375, -51.11305236816406
471,3284265925,0.28238782,-0.61967933,-0.62403864,-0.3831846,14.092325210571289,-0.8751205801963806,9.33745002746582,112.35318756103516,-143.9844512939453, -35.77759552001953
472,3284282592,0.27888352,-0.61980075,-0.63652146,-0.36457047,12.662678718566895,3.760742425918579,8.650949478149414,97.29991912841797,-117.73896789550781, -25.68548583984375
473,3284299259,0.27418,-0.61871153,-0.6515856,-0.3427211,13.715727806091309,7.734675407409668,-4.671414852142334,115.22887420654297,-139.0135498046875, -38.699180603027344
474,3284315926,0.26685244,-0.61809707,-0.66435575,-0.3246189,16.948749542236328,9.643211364746094,-5.342637062072754,81.04529571533203,-131.6616973876953, -39.864498138427734
475,3284332593,0.25659484,-0.620437,-0.66919726,-0.31842145,13.888444900512695,3.635594606399536,9.139310836791992,-7.94109582901001,-86.49838256835938, -21.880252838134766
476,3284349260,0.25128385,-0.62296236,-0.66701543,-0.32228038,5.990367412567139,-3.821849822998047,10.85323429107666,-48.81155776977539,-9.197548866271973, 2.0705807209014893
477,3284365927,0.25709322,-0.6218594,-0.6656657,-0.32261935,5.954936981201172,-1.9533058404922485,4.932100772857666,22.30695152282715,33.01108932495117, 13.360724449157715
478,3284382594,0.26810378,-0.6177822,-0.66307414,-0.32680044,6.812001705169678,3.1773617267608643,2.995588541030884,29.423748016357422,81.93450164794922, 9.770977973937988
479,3284399261,0.28029984,-0.6131943,-0.65607303,-0.33910632,5.676364898681641,0.8992124795913696,4.0167317390441895,-11.518216133117676,131.05386352539062, 13.916755676269531
480,3284415928,0.2974094,-0.60628426,-0.6465372,-0.35490406,5.712386131286621,-0.13715799152851105,4.335304260253906,-7.9968581199646,178.1742706298828, 18.864501953125
481,3284432595,0.3163866,-0.59715796,-0.6345019,-0.37511286,7.0199127197265625,1.7235190868377686,3.9710211753845215,-21.410619735717773,215.31834411621094, 14.955835342407227
482,3284449262,0.33437738,-0.5866572,-0.61914796,-0.40085033,8.835366249084473,2.2637627124786377,2.7420623302459717,-55.152828216552734,244.41026306152344, 8.0198392868042
483,3284465929,0.35144687,-0.5752956,-0.5995864,-0.43129602,10.29311752319336,0.4348633885383606,1.085159182548523,-88.53497314453125,271.47637939453125, 7.9531168937683105
484,3284482596,0.36897495,-0.56298965,-0.576641,-0.4630178,11.462297439575195,-0.7768985629081726,-0.08931741118431091,-99.75788116455078,289.3754577636719, 15.652141571044922
485,3284499263,0.38749343,-0.5495828,-0.549949,-0.49534222,12.730751037597656,-0.6288572549819946,-0.3132008910179138,-107.48197174072266,308.67205810546875, 27.308570861816406
486,3284515930,0.40822217,-0.534822,-0.519975,-0.52625704,14.242053031921387,-1.6894049644470215,-1.1820566654205322,-101.39836883544922,325.1101379394531, 45.77701950073242
487,3284532597,0.43229297,-0.51766837,-0.4893718,-0.55286294,15.658409118652344,-0.3890538215637207,-1.0481380224227905,-69.28237915039062,331.7276306152344, 63.6148681640625
488,3284549264,0.45678532,-0.49946922,-0.45654804,-0.57744414,16.82861328125,0.9365156292915344,-0.8918591737747192,-66.33052825927734,336.63677978515625, 75.56611633300781
489,3284565931,0.4810503,-0.4806923,-0.42269838,-0.5990424,18.24346351623535,0.9427639842033386,-1.3448436260223389,-60.03487777709961,331.34283447265625, 85.7286605834961
490,3284582598,0.5040299,-0.4617639,-0.3880492,-0.6181795,19.17125701904297,1.6446408033370972,-1.3491642475128174,-59.95268249511719,322.9419860839844, 90.77439880371094
491,3284599265,0.5235698,-0.44454446,-0.35194388,-0.63591707,19.210721969604492,1.9723690748214722,-2.1061487197875977,-79.29759979248047,307.34619140625, 90.20539093017578
492,3284615932,0.539031,-0.43057638,-0.3143573,-0.6520959,18.758607864379883,1.3577711582183838,-3.661196231842041,-106.21658325195312,284.1250915527344, 90.4104232788086
493,3284632599,0.5528832,-0.41806975,-0.27865973,-0.6647456,17.377197265625,0.33006560802459717,-7.7707133293151855,-100.32192993164062,256.99688720703125, 93.87507629394531
494,3284649266,0.5685754,-0.40107843,-0.2575118,-0.670482,13.657883644104004,2.8163251876831055,-12.808073997497559,1.7872980833053589,206.26138305664062, 78.1943588256836
495,3284665933,0.5795166,-0.38608405,-0.2514422,-0.67221755,9.15304946899414,9.362951278686523,-17.730497360229492,57.46332550048828,119.16323852539062, 34.00248336791992
496,3284682600,0.57812434,-0.38530275,-0.25104383,-0.6740113,10.229178428649902,9.836994171142578,-17.35507583618164,-5.892297744750977,10.256150245666504, -13.489544868469238
497,3284699267,0.566858,-0.3965517,-0.25436282,-0.6758095,12.490283012390137,7.94559383392334,-16.221355438232422,-62.757205963134766,-76.77326965332031, -48.112483978271484
498,3284715934,0.5510844,-0.4118204,-0.26331347,-0.6762959,14.073009490966797,7.123329162597656,-13.929089546203613,-62.33180236816406,-128.36053466796875, -72.05303192138672
499,3284732601,0.5314364,-0.42949113,-0.27608556,-0.67593634,15.716381072998047,8.054676055908203,-11.90948486328125,-63.17420196533203,-162.9816436767578, -93.12828063964844
500,3284749268,0.5087524,-0.44989973,-0.28795266,-0.6751626,18.584911346435547,2.238978862762451,-3.047977924346924,-85.64839172363281,-179.00408935546875, -97.61143493652344
501,3284765935,0.49168408,-0.4653593,-0.30038732,-0.6719041,15.536237716674805,-10.54598331451416,10.528611183166504,-43.415061950683594,-154.38858032226562, -74.2867660522461
502,3284782602,0.46992987,-0.48424843,-0.30660188,-0.67131585,15.410483360290527,-1.8638964891433716,-0.9881435632705688,-104.15465545654297,-150.56060791015625, -78.18330383300781
503,3284799269,0.45317852,-0.49883887,-0.31746444,-0.6670873,16.1583251953125,-2.678035020828247,-4.557582855224609,-44.450279235839844,-147.24212646484375, -67.8628921508789
504,3284815936,0.43762863,-0.5106765,-0.3291697,-0.66282606,11.939054489135742,2.7831950187683105,-0.7793629169464111,-27.788028717041016,-134.580078125, -71.1922378540039
505,3284832603,0.42216438,-0.52147293,-0.33633497,-0.6608496,10.090596199035645,4.387763500213623,-0.9782426357269287,-50.242244720458984,-107.9494400024414, -64.0186996459961
506,3284849270,0.40980572,-0.53001416,-0.3427531,-0.6585322,10.471267700195312,2.5744168758392334,-1.6632015705108643,-35.19384765625,-89.58366394042969, -51.34770965576172
507,3284865937,0.40296075,-0.5354305,-0.3516524,-0.65366465,11.893777847290039,2.591775894165039,-0.11654169857501984,10.940876960754395,-78.71540069580078, -35.56752395629883
508,3284882604,0.39950863,-0.5391106,-0.36110333,-0.64757794,11.90092658996582,1.2878550291061401,0.9095907211303711,33.67000198364258,-68.7433090209961, -23.16339111328125
509,3284899271,0.39931503,-0.5416226,-0.37088102,-0.6400312,11.703499794006348,-1.654775857925415,-0.01276852935552597,54.05305099487305,-61.80562973022461, -8.800106048583984
510,3284915938,0.40037262,-0.543298,-0.38042256,-0.6323036,10.892557144165039,0.8199278116226196,0.044767312705516815,60.461387634277344,-54.984169006347656, -4.174365997314453
511,3284932605,0.39942825,-0.5460087,-0.38774592,-0.6260869,11.08082103729248,1.7417558431625366,0.11001983284950256,36.55287170410156,-53.00439453125, -6.096500396728516
512,3284949272,0.397968,-0.5493477,-0.39366025,-0.62037915,10.662692070007324,-0.13324126601219177,1.0579177141189575,25.483184814453125,-51.34421157836914, -2.7680349349975586
513,3284965939,0.39793673,-0.55208457,-0.40004447,-0.61385125,10.698454856872559,-0.2778504490852356,0.5079277753829956,36.772769927978516,-49.36324691772461, 2.1034133434295654
514,3284982606,0.39994845,-0.5535209,-0.40881172,-0.6054161,11.377696990966797,0.026499003171920776,1.0440890789031982,63.41001510620117,-52.0699577331543, 3.2461602687835693
515,3284999273,0.40587804,-0.55297065,-0.42094392,-0.5935427,11.29365348815918,-1.8790408372879028,3.0512185096740723,107.47925567626953,-55.1913948059082, 10.535222053527832
516,3285015940,0.4125345,-0.5513152,-0.4341283,-0.5808608,10.373345375061035,1.1449270248413086,2.508591890335083,119.98821258544922,-54.712162017822266, 8.416909217834473
517,3285032607,0.41702697,-0.55095124,-0.44698447,-0.56810766,9.339536666870117,0.47974157333374023,2.7306721210479736,107.04096221923828,-65.78038787841797, 5.019863128662109
518,3285049274,0.41836396,-0.55230176,-0.4582955,-0.5566865,8.524029731750488,0.9705531001091003,3.1524267196655273,80.05580139160156,-72.8244400024414, -0.05847620591521263
519,3285065941,0.41516542,-0.5558558,-0.46766847,-0.5476753,8.532511711120605,1.7789074182510376,1.9458050727844238,41.493431091308594,-80.96710205078125, -10.071479797363281
520,3285082608,0.40816408,-0.5613409,-0.47568476,-0.5403911,8.934404373168945,0.7311062216758728,0.8380511999130249,10.794625282287598,-90.10672760009766, -17.91563606262207
521,3285099275,0.39954206,-0.56769663,-0.48378146,-0.5329562,9.853463172912598,-0.7149412631988525,0.22401712834835052,2.8961915969848633,-99.53931427001953, -20.986509323120117
522,3285115942,0.38982883,-0.57452035,-0.49222264,-0.52504945,10.78455924987793,-1.2087323665618896,0.7285921573638916,0.18529660999774933,-107.75263214111328, -23.52259635925293
523,3285132609,0.37922603,-0.58166003,-0.5008731,-0.51670665,11.28819751739502,-0.6128520369529724,0.5950087904930115,-1.9422409534454346,-114.29179382324219, -25.381349563598633
524,3285149276,0.36742118,-0.589011,-0.50941837,-0.5084887,11.55265998840332,-0.29105907678604126,0.9501468539237976,-8.103683471679688,-118.51522064208984, -28.872617721557617
525,3285165943,0.3531823,-0.59720296,-0.5165043,-0.5018311,11.63923168182373,0.41672345995903015,1.5311973094940186,-30.651567459106445,-120.10028839111328, -32.504085540771484
526,3285182610,0.33824104,-0.6055702,-0.5227396,-0.49560204,12.156718254089355,-0.9200800657272339,1.5334745645523071,-38.41117477416992,-119.51813507080078, -31.87111473083496
527,3285199277,0.3251887,-0.61261773,-0.52978003,-0.48814446,13.535807609558105,-1.625712275505066,1.8075246810913086,-20.318220138549805,-115.3714828491211, -30.728721618652344
528,3285215944,0.31446812,-0.6184971,-0.537968,-0.47870833,13.462613105773926,-1.888214111328125,1.482818365097046,3.1694881916046143,-114.03273010253906, -27.650108337402344
529,3285232611,0.30631608,-0.62301207,-0.54828185,-0.4662764,13.290186882019043,-1.6578317880630493,2.9206783771514893,35.111541748046875,-117.54875946044922, -26.894512176513672
530,3285249278,0.29885766,-0.62658465,-0.56001294,-0.452174,12.717324256896973,-0.11247380077838898,3.1539268493652344,50.902748107910156,-122.26509857177734, -30.85338592529297
531,3285265945,0.29054755,-0.62990665,-0.57312566,-0.4362645,13.24936580657959,0.4311327040195465,3.078019857406616,59.01148986816406,-135.60556030273438, -36.74106979370117
532,3285282612,0.2823722,-0.632312,-0.58735913,-0.41887605,13.522599220275879,-0.42661288380622864,4.491605281829834,70.63294982910156,-141.1917266845703, -41.86891174316406
533,3285299279,0.27509937,-0.63346314,-0.6027315,-0.39969924,13.699132919311523,-0.07627653330564499,6.282040596008301,87.50889587402344,-144.186279296875, -45.84617233276367
534,3285315946,0.26836047,-0.6342737,-0.61682916,-0.381053,14.05742359161377,0.4520324766635895,9.60448932647705,84.80146026611328,-136.62294006347656, -41.25624084472656
535,3285332613,0.26307842,-0.63440734,-0.63054395,-0.36156833,13.472148895263672,4.459863185882568,6.803527355194092,95.00225067138672,-132.0078125, -37.08843231201172
536,3285349280,0.2565863,-0.6335945,-0.6456848,-0.34031305,15.257451057434082,8.199931144714355,-3.620807647705078,102.75750732421875,-145.5146484375, -47.12002182006836
537,3285365947,0.25147775,-0.63248277,-0.65972024,-0.3185814,16.98981475830078,7.141958713531494,-3.851900577545166,107.40130615234375,-139.0992431640625, -37.458953857421875
538,3285382614,0.24574974,-0.6319714,-0.66921824,-0.30391803,14.58176326751709,5.437900543212891,7.496872425079346,62.170875549316406,-104.70702362060547, -28.820499420166016
539,3285399281,0.24285758,-0.6323353,-0.6706923,-0.3022321,4.860268592834473,-0.8032124638557434,10.324109077453613,-3.2210469245910645,-23.856090545654297, -5.979835033416748
540,3285415948,0.24633919,-0.63017535,-0.671982,-0.30105865,6.858962059020996,1.4313678741455078,4.479785442352295,25.702489852905273,13.090950965881348, -4.082599639892578
541,3285432615,0.2505911,-0.6272697,-0.669774,-0.30844775,7.347054481506348,4.10678243637085,2.8925814628601074,-15.20837116241455,61.2239990234375, -7.085841178894043
542,3285449282,0.25589353,-0.62430155,-0.66361594,-0.32307923,5.83988618850708,0.10076988488435745,4.21423864364624,-52.24605178833008,104.1386489868164, -0.5531582832336426
543,3285465949,0.26654267,-0.6190848,-0.65551424,-0.34057376,5.381311893463135,0.4351617991924286,4.495797634124756,-42.735984802246094,149.1511688232422, 4.326115608215332
544,3285482616,0.27953142,-0.6121095,-0.6442295,-0.36352828,6.241029262542725,0.6820526719093323,4.2572479248046875,-61.631065368652344,192.8121795654297, 5.389146327972412
545,3285499283,0.29456758,-0.6030791,-0.63007975,-0.39054492,7.517575263977051,0.16353701055049896,3.80910062789917,-74.23110961914062,229.5425262451172, 5.614950656890869
546,3285515950,0.3115072,-0.5924518,-0.612197,-0.42092666,8.870830535888672,-0.29338881373405457,1.694706916809082,-87.72734069824219,263.5172424316406, 12.408641815185547
547,3285532617,0.33145443,-0.5799834,-0.5912265,-0.4518946,10.565861701965332,-1.1530442237854004,-0.07038906216621399,-82.96635437011719,290.47344970703125, 24.608623504638672
548,3285549284,0.35483548,-0.5651646,-0.56819314,-0.48149514,12.216195106506348,-0.98061603307724,-0.8454392552375793,-64.80590057373047,310.9885559082031, 36.97560119628906
549,3285565951,0.38038644,-0.54823226,-0.5425003,-0.51033425,13.724681854248047,-0.40046730637550354,-0.7809797525405884,-57.087791442871094,330.0271911621094, 48.01730728149414
550,3285582618,0.40725034,-0.5296345,-0.51443875,-0.5375756,15.347577095031738,-0.08540893346071243,-1.3271888494491577,-50.17042922973633,340.9876708984375, 59.462677001953125
551,3285599285,0.43386075,-0.5100032,-0.4841352,-0.56327164,16.75806427001953,0.8468317985534668,-1.2779321670532227,-51.056358337402344,344.642333984375, 67.31185150146484
552,3285615952,0.45987877,-0.4899052,-0.45184454,-0.5868059,18.259611129760742,0.4967936873435974,-1.3208547830581665,-52.281578063964844,342.9407958984375, 76.85836029052734
553,3285632619,0.48370397,-0.4702478,-0.4169141,-0.6091636,19.77117156982422,1.1503384113311768,-1.2277886867523193,-68.10052490234375,338.9025573730469, 81.95797729492188
554,3285649286,0.5032421,-0.45336208,-0.3780974,-0.6310727,20.362424850463867,-0.20510777831077576,-2.6344094276428223,-106.22369384765625,326.6999816894531, 85.97708892822266
555,3285665953,0.5193364,-0.44037247,-0.33820602,-0.64959884,19.820201873779297,0.7825089693069458,-3.4018688201904297,-126.341796875,294.30804443359375, 96.15727233886719
556,3285682620,0.52886283,-0.4328918,-0.29381612,-0.6682672,18.716293334960938,2.652682065963745,-6.173022270202637,-186.3720703125,271.3005676269531, 92.72162628173828
557,3285699287,0.5425964,-0.4194132,-0.26665896,-0.67718154,14.889769554138184,1.4708378314971924,-12.977604866027832,-53.13196563720703,216.05873107910156, 84.16276550292969
558,3285715954,0.5547814,-0.4034283,-0.26125586,-0.6791234,8.69820499420166,9.80681324005127,-17.463016510009766,65.83480072021484,124.16181945800781, 35.72871017456055
559,3285732621,0.5547203,-0.40206334,-0.2612436,-0.6799871,10.261554718017578,9.417879104614258,-15.652408599853516,3.1018598079681396,10.919373512268066, -5.7699432373046875
560,3285749288,0.54561955,-0.4116197,-0.26479283,-0.68025964,12.4044828414917,6.560737133026123,-12.675682067871094,-45.93532180786133,-71.058837890625, -35.76702880859375
561,3285765955,0.5341988,-0.42181537,-0.27452958,-0.679218,12.909313201904297,6.115029811859131,-8.640936851501465,-23.633708953857422,-104.73539733886719, -57.850650787353516
562,3285782622,0.5199929,-0.43331036,-0.28561258,-0.6784358,13.681475639343262,6.5127363204956055,-6.929591178894043,-30.755266189575195,-119.89898681640625, -73.09181213378906
563,3285799289,0.5007182,-0.44924745,-0.29323018,-0.6793191,13.244366645812988,6.123348236083984,-9.534070014953613,-81.2525634765625,-132.93333435058594, -83.45555114746094
564,3285815956,0.47833577,-0.46751183,-0.29933608,-0.68045974,15.824638366699219,4.458634853363037,-5.319084167480469,-106.50923919677734,-143.75677490234375, -89.29595184326172
565,3285832623,0.46250838,-0.48132396,-0.3081232,-0.67784464,18.761289596557617,-9.6613187789917,4.009543418884277,-50.5457763671875,-130.10012817382812, -63.89488983154297
566,3285849290,0.44696862,-0.49428698,-0.31664655,-0.6750071,15.368176460266113,-3.659837484359741,-1.769737720489502,-47.54682540893555,-125.4454116821289, -62.98506164550781
567,3285865957,0.43454516,-0.5045822,-0.3277537,-0.67018294,15.132019996643066,-2.7760603427886963,-1.668290376663208,-12.401803016662598,-120.87421417236328, -57.08485412597656
568,3285882624,0.4241771,-0.5121192,-0.34000486,-0.66498464,12.084832191467285,2.885878801345825,0.1820245087146759,9.105904579162598,-108.16643524169922, -56.76190948486328
569,3285899291,0.41358373,-0.51953083,-0.34909448,-0.66118795,11.110733032226562,3.590195655822754,-0.133207768201828,-9.079058647155762,-93.96150207519531, -50.989463806152344
570,3285915958,0.4054104,-0.5260685,-0.35764375,-0.6564947,10.470407485961914,2.6028730869293213,0.9461795091629028,1.7264840602874756,-85.84929656982422, -37.541954040527344
571,3285932625,0.4002541,-0.5311958,-0.36660525,-0.6505602,10.667316436767578,2.547175168991089,2.002997398376465,21.478240966796875,-77.74525451660156, -25.398305892944336
572,3285949292,0.39729017,-0.53505415,-0.37554747,-0.6440821,11.238762855529785,1.4597680568695068,1.9293416738510132,34.26803970336914,-68.54446411132812, -17.216564178466797
573,3285965959,0.3967384,-0.53791374,-0.3848603,-0.6364984,10.9100341796875,-0.7547814249992371,0.21276524662971497,50.379905700683594,-63.04018783569336, -7.4856767654418945
574,3285982626,0.39715612,-0.5401248,-0.39455426,-0.62837833,10.542757034301758,0.756289005279541,-0.4326933026313782,58.84474563598633,-60.68473434448242, -4.996292591094971
575,3285999293,0.39646968,-0.5428788,-0.40318212,-0.6209176,10.58521842956543,0.19111368060112,0.13795757293701172,46.88099670410156,-60.67759704589844, -6.18321418762207
576,3286015960,0.39667585,-0.5452572,-0.41231847,-0.6126473,10.812329292297363,-1.16632080078125,0.7787606716156006,55.66926956176758,-61.04166793823242, -3.166010856628418
577,3286032627,0.39890254,-0.54668564,-0.42304733,-0.6025303,11.468873977661133,-1.5309827327728271,1.539139986038208,77.79988861083984,-62.63438415527344, 1.6161093711853027
578,3286049294,0.40371743,-0.54653215,-0.43618268,-0.5899658,10.349396705627441,-0.6219775676727295,2.778247594833374,108.98023986816406,-64.43258666992188, 5.283538818359375
579,3286065961,0.40781978,-0.5466396,-0.44939962,-0.57698196,9.711905479431152,1.6328355073928833,2.2193307876586914,107.18761444091797,-69.54557037353516, 3.9357266426086426
580,3286082628,0.40919143,-0.54828656,-0.46133086,-0.5649055,9.391196250915527,2.1551084518432617,2.5941736698150635,84.71469116210938,-77.17804718017578, 0.12263288348913193
581,3286099295,0.40713808,-0.55174714,-0.4713754,-0.5546343,8.700653076171875,1.9426157474517822,3.484593629837036,53.65876770019531,-83.08888244628906, -5.391646862030029
582,3286115962,0.40195248,-0.5567939,-0.4797383,-0.54613733,8.732114791870117,1.3359395265579224,2.2886765003204346,25.186622619628906,-87.9986801147461, -10.771780014038086
583,3286132629,0.39484468,-0.562488,-0.4882476,-0.5378843,9.25084400177002,0.9152218699455261,1.0545995235443115,15.797247886657715,-96.35956573486328, -17.087039947509766
584,3286149296,0.38602737,-0.5685972,-0.4970438,-0.5297429,10.04385757446289,0.9355533719062805,0.8828166723251343,8.75197696685791,-104.07234191894531, -23.436092376708984
585,3286165963,0.37547994,-0.5755283,-0.50497025,-0.5222902,10.882857322692871,0.12784512341022491,1.0766921043395996,-5.706386566162109,-108.07311248779297, -25.363174438476562
586,3286182630,0.36375484,-0.583032,-0.5122053,-0.5151718,11.25864315032959,0.09359925240278244,0.19653065502643585,-15.480447769165039,-111.22037506103516, -25.760892868041992
587,3286199297,0.35138184,-0.5904758,-0.5196319,-0.50779134,11.169076919555664,0.005823489278554916,0.21158304810523987,-16.3216552734375,-114.91464233398438, -28.411558151245117
588,3286215964,0.33846137,-0.59799933,-0.52669185,-0.50043637,11.388944625854492,0.14855320751667023,-0.09206604957580566,-20.10614013671875,-116.26051330566406, -28.645036697387695
589,3286232631,0.32636172,-0.604963,-0.5340133,-0.49227837,11.404772758483887,-1.3344192504882812,0.43750226497650146,-11.616003036499023,-115.37191009521484, -27.089599609375
590,3286249298,0.3162753,-0.6108795,-0.5425266,-0.48214248,11.741751670837402,-1.4773257970809937,0.43317079544067383,10.399699211120605,-115.45774841308594, -24.715595245361328
591,3286265965,0.3065728,-0.61651236,-0.5513438,-0.47111142,12.181407928466797,-0.4676195979118347,1.9076467752456665,16.966175079345703,-117.63616943359375, -23.90933609008789
592,3286282632,0.29526678,-0.62259185,-0.5593847,-0.46074498,12.941927909851074,0.13748140633106232,2.9006786346435547,4.197423458099365,-120.88309478759766, -25.576181411743164
593,3286299299,0.28330666,-0.6284098,-0.5679168,-0.44978774,13.088512420654297,0.34620511531829834,3.306002378463745,5.767996788024902,-126.31079864501953, -29.601680755615234
594,3286315966,0.27172083,-0.6335247,-0.57809275,-0.4366042,13.777387619018555,0.3636716902256012,2.7990450859069824,22.548561096191406,-135.72459411621094, -33.99542236328125
595,3286332633,0.26131725,-0.63724744,-0.5908404,-0.42016265,14.766142845153809,0.5982920527458191,3.6307027339935303,50.986602783203125,-146.07151794433594, -41.135581970214844
596,3286349300,0.25237128,-0.63940966,-0.6054098,-0.40117705,15.172074317932129,0.11902427673339844,5.269021511077881,75.80181121826172,-150.32925415039062, -46.70638656616211
597,3286365967,0.24554797,-0.6405182,-0.6204923,-0.38004243,14.966712951660156,-0.9459219574928284,7.163611888885498,97.35313415527344,-149.24156188964844, -43.79417037963867
598,3286382634,0.24269773,-0.6411613,-0.6349958,-0.3560764,14.872699737548828,0.24124225974082947,10.503363609313965,126.22689819335938,-142.9256134033203, -28.09762191772461
599,3286399301,0.24189946,-0.6408635,-0.64751315,-0.33392432,13.094341278076172,3.5103402137756348,8.418115615844727,124.1019287109375,-120.77326202392578, -21.430908203125
600,3286415968,0.24223402,-0.63743997,-0.66307527,-0.30874652,14.690872192382812,8.854902267456055,-4.168078899383545,154.8551483154297,-127.29461669921875, -41.01701354980469
601,3286432635,0.24045704,-0.6345294,-0.67594117,-0.28750032,19.320594787597656,7.076969623565674,-4.199051380157471,117.42098999023438,-116.81584930419922, -32.00225830078125
602,3286449302,0.23343237,-0.6337889,-0.681161,-0.28256136,12.210249900817871,7.283921241760254,11.416427612304688,0.021803148090839386,-61.85816192626953, -25.199356079101562
603,3286465969,0.22609074,-0.63490117,-0.67818797,-0.2929926,4.838070392608643,-2.53056001663208,8.87624454498291,-94.13597106933594,12.455500602722168, -2.584864854812622
604,3286482636,0.22711167,-0.6341357,-0.67452115,-0.3021812,6.917855739593506,-0.9343453049659729,2.7000339031219482,-44.40209197998047,51.47512435913086, 0.621585488319397
605,3286499303,0.23299123,-0.63081694,-0.66998446,-0.31449366,8.273446083068848,3.4060215950012207,2.923743724822998,-35.5550537109375,94.21150970458984, -2.2777419090270996
606,3286515970,0.24108922,-0.62695074,-0.6613491,-0.3338056,6.303706169128418,-0.35997581481933594,4.8639020919799805,-66.1204605102539,142.43751525878906, 6.566547870635986
607,3286532637,0.25620976,-0.6202871,-0.6513016,-0.35412812,5.665090084075928,-0.24325156211853027,4.469137191772461,-39.06577682495117,187.39279174804688, 14.322324752807617
608,3286549304,0.2740348,-0.61133426,-0.63915783,-0.37769386,7.193726062774658,1.073784351348877,4.554447174072266,-43.14582824707031,222.53448486328125, 13.849581718444824
609,3286565971,0.292105,-0.6006928,-0.6233126,-0.40660116,8.099501609802246,-0.06910263001918793,3.812136173248291,-72.02405548095703,257.3409729003906, 12.536307334899902
610,3286582638,0.3115935,-0.5886008,-0.60361725,-0.43829802,9.203740119934082,-1.277747392654419,1.4550009965896606,-85.98932647705078,286.66180419921875, 20.514488220214844
611,3286599305,0.3325974,-0.5751015,-0.57967865,-0.4718156,11.92603588104248,-0.8625370860099792,-0.7334297299385071,-97.22537994384766,313.6465759277344, 32.4032096862793
612,3286615972,0.3582947,-0.5595827,-0.55267334,-0.5030353,13.889349937438965,-3.438908100128174,-1.8901442289352417,-74.87342071533203,336.865966796875, 56.865718841552734
613,3286632639,0.3888336,-0.54088926,-0.525153,-0.5295866,15.612085342407227,-0.48035866022109985,-0.9809695482254028,-32.508426666259766,349.6170654296875, 74.89773559570312
614,3286649306,0.4182413,-0.5212226,-0.493961,-0.55624074,17.180517196655273,1.7475043535232544,-1.5489389896392822,-47.900306701660156,359.3435363769531, 80.59443664550781
615,3286665973,0.44723502,-0.5009204,-0.4613733,-0.5798227,18.97378921508789,0.5927672386169434,-2.1291615962982178,-42.49830627441406,353.4759216308594, 90.69522857666016
616,3286682640,0.47426027,-0.4802209,-0.42810404,-0.6009927,20.071781158447266,2.56673526763916,-1.8763911724090576,-43.16377639770508,342.76641845703125, 91.32846069335938
617,3286699307,0.49577117,-0.46191183,-0.3917746,-0.6223835,20.331418991088867,2.6857171058654785,-2.796538829803467,-82.52362060546875,327.5835876464844, 84.98076629638672
618,3286715974,0.51178795,-0.44708702,-0.3529988,-0.6431005,20.18488311767578,2.8631842136383057,-3.9838576316833496,-120.56610107421875,304.37322998046875, 80.92697143554688
619,3286732641,0.5219239,-0.4375689,-0.31010532,-0.6632977,18.851036071777344,0.8585948348045349,-7.040292739868164,-174.33091735839844,279.9172668457031, 82.29736328125
620,3286749308,0.53637207,-0.42481908,-0.27967742,-0.6735091,16.109638214111328,-0.09445586055517197,-11.499728202819824,-71.58833312988281,229.50730895996094, 93.40249633789062
621,3286765975,0.5495741,-0.40936938,-0.26726887,-0.6774605,9.970901489257812,7.895802974700928,-16.35541343688965,30.239307403564453,155.4040985107422, 52.93860626220703
622,3286782642,0.55321324,-0.40277985,-0.26618704,-0.67887276,9.295136451721191,10.942290306091309,-15.185419082641602,27.18381690979004,47.20120620727539, 2.6253867149353027
623,3286799309,0.54528207,-0.40984023,-0.26672333,-0.68085045,11.294838905334473,8.09659194946289,-12.555375099182129,-50.391326904296875,-41.73453140258789, -32.74859619140625
624,3286815976,0.53265864,-0.42134494,-0.2714869,-0.6819373,12.2836275100708,5.489236354827881,-9.823344230651855,-58.94754409790039,-89.02378845214844, -54.91557312011719
625,3286832643,0.5187445,-0.43281442,-0.28037548,-0.6818839,13.146474838256836,4.060791015625,-7.383492946624756,-41.14497756958008,-109.27639770507812, -68.64051055908203
626,3286849310,0.5030262,-0.44570014,-0.29030088,-0.681206,13.476953506469727,4.133480548858643,-6.699559688568115,-45.54160690307617,-124.62211608886719, -75.0943832397461
627,3286865977,0.48426583,-0.46090502,-0.29831123,-0.68122226,13.334683418273926,5.231169700622559,-7.791208744049072,-73.28461456298828,-132.5173797607422, -81.10688018798828
628,3286882644,0.46433643,-0.47685632,-0.30505028,-0.6811346,16.07526969909668,1.2235902547836304,1.4050178527832031,-85.26797485351562,-134.21983337402344, -80.49842834472656
629,3286899311,0.45033574,-0.48848188,-0.31377253,-0.6783288,16.384239196777344,-7.4813947677612305,5.973149299621582,-37.02974319458008,-116.70835876464844, -59.56768035888672
630,3286915978,0.4348899,-0.50137603,-0.32048175,-0.67585814,15.621435165405273,-3.245603084564209,-3.833652973175049,-55.84251403808594,-118.46946716308594, -58.02897262573242
631,3286932645,0.4235691,-0.5104076,-0.3323045,-0.6705574,15.899075508117676,-0.5865041017532349,-0.7702003717422485,-0.03934342786669731,-116.30609130859375, -56.61220932006836
632,3286949312,0.413311,-0.5176074,-0.3446697,-0.66517645,12.22742748260498,3.3163397312164307,-0.4835836589336395,11.71182632446289,-107.21492004394531, -57.602210998535156
633,3286965979,0.40228516,-0.5254303,-0.3541564,-0.660805,11.278831481933594,2.224175214767456,0.22932620346546173,-8.374387741088867,-100.08009338378906, -52.19734191894531
634,3286982646,0.39343265,-0.5322423,-0.36312118,-0.65579873,9.939806938171387,1.6132736206054688,2.092921733856201,1.4365452527999878,-91.05248260498047, -41.11301803588867
635,3286999313,0.3866047,-0.5377561,-0.37171566,-0.65052503,10.474388122558594,2.726914644241333,1.7584412097930908,11.356587409973145,-80.19591522216797, -33.142433166503906
636,3287015980,0.38200343,-0.5423158,-0.38016146,-0.6445498,11.046385765075684,0.8568748235702515,1.4071437120437622,23.255176544189453,-72.49777221679688, -23.183094024658203
637,3287032647,0.3796862,-0.5459756,-0.38888204,-0.63758916,10.571867942810059,-0.09927194565534592,0.44249197840690613,37.9422492980957,-66.98905181884766, -13.886801719665527
638,3287049314,0.37787625,-0.54914385,-0.3971724,-0.6307969,10.169493675231934,1.4711977243423462,-0.1441342532634735,38.81130599975586,-61.75504684448242, -11.868167877197266
639,3287065981,0.37542468,-0.5526256,-0.40403247,-0.62483525,10.154298782348633,0.2757037878036499,0.7956995368003845,27.111644744873047,-58.03562545776367, -10.570198059082031
640,3287082648,0.37344676,-0.5559903,-0.4104308,-0.6188369,10.042845726013184,-0.6616296172142029,0.9386880397796631,27.34686279296875,-55.21835708618164, -7.061952590942383
641,3287099315,0.37257656,-0.5590662,-0.41782975,-0.6115964,10.203849792480469,-0.11989639699459076,0.5526114702224731,40.10257339477539,-58.2443962097168, -3.8749499320983887
642,3287115982,0.37346375,-0.5616942,-0.42673942,-0.6024269,10.704830169677734,-1.0689685344696045,1.303191065788269,59.91697311401367,-62.64778137207031, 1.2963379621505737
643,3287132649,0.37700456,-0.5628341,-0.43892738,-0.5902782,9.992682456970215,0.6801697611808777,1.8774446249008179,96.3276138305664,-68.6975326538086, 2.8088207244873047
644,3287149316,0.37962958,-0.5643353,-0.4521739,-0.5770148,9.839147567749023,1.5178191661834717,1.821612000465393,99.52445983886719,-80.08302307128906, -1.079688549041748
645,3287165983,0.38029787,-0.56666774,-0.46496424,-0.56397665,9.586507797241211,1.2564746141433716,2.819467306137085,87.26586151123047,-87.49681854248047, -5.1015825271606445
646,3287182650,0.37863448,-0.56996405,-0.47639644,-0.55210817,9.355581283569336,1.4879690408706665,2.000624656677246,66.67121124267578,-90.71148681640625, -8.852262496948242
647,3287199317,0.37461188,-0.57419,-0.48676926,-0.54132026,9.69233512878418,1.161803126335144,1.1186072826385498,47.45849609375,-95.09149932861328, -13.431188583374023
648,3287215984,0.36943164,-0.5787639,-0.49669853,-0.53088933,10.038206100463867,0.40622907876968384,0.7821645736694336,39.15733337402344,-97.8055419921875, -15.756165504455566
649,3287232651,0.36266667,-0.5838513,-0.50572646,-0.52137464,10.716503143310547,0.5528380274772644,1.0237696170806885,25.13648796081543,-99.25224304199219, -18.558696746826172
650,3287249318,0.3545138,-0.5896185,-0.51371443,-0.5126085,11.309563636779785,0.23266373574733734,0.3991333246231079,11.547850608825684,-101.02977752685547, -18.888490676879883
651,3287265985,0.34575492,-0.5954708,-0.52202195,-0.5033502,11.461938858032227,0.05117189139127731,0.2775768041610718,11.753820419311523,-106.35015869140625, -20.854066848754883
652,3287282652,0.33521748,-0.6018958,-0.5300131,-0.49440557,11.430729866027832,0.07531022280454636,0.8254392743110657,0.8935088515281677,-112.7908706665039, -24.44484519958496
653,3287299319,0.32305992,-0.60886085,-0.53748214,-0.4858331,11.301445007324219,-0.6855739951133728,0.8578981161117554,-10.180729866027832,-117.9195556640625, -26.721511840820312
654,3287315986,0.3108109,-0.61557627,-0.5455408,-0.47628528,11.771843910217285,-1.8576359748840332,1.429038643836975,-4.436585903167725,-122.95520782470703, -28.310832977294922
655,3287332653,0.2984741,-0.62210953,-0.55426574,-0.4654916,12.959132194519043,-1.4482190608978271,2.0689258575439453,2.4247446060180664,-129.55081176757812, -29.531675338745117
656,3287349320,0.28504714,-0.6283849,-0.5633064,-0.4544961,13.542287826538086,-0.4018711447715759,3.3770995140075684,0.06278739869594574,-134.59384155273438, -35.02668762207031
657,3287365987,0.27118582,-0.6342719,-0.57242334,-0.44327083,14.149514198303223,-0.836426854133606,3.7481188774108887,0.08430375158786774,-136.45289611816406, -37.830814361572266
658,3287382654,0.25915852,-0.6387535,-0.5837232,-0.4290666,14.435070037841797,-0.393256813287735,3.536386489868164,29.087081909179688,-142.28541564941406, -41.8120231628418
659,3287399321,0.24870312,-0.64176834,-0.59748846,-0.41144618,14.954355239868164,0.7338474988937378,3.0150182247161865,59.60231399536133,-151.32406616210938, -47.860382080078125
660,3287415988,0.239337,-0.6435285,-0.61255264,-0.39162263,15.414941787719727,0.40465661883354187,4.8719258308410645,79.30828094482422,-155.52291870117188, -51.91639709472656
661,3287432655,0.23253193,-0.64436746,-0.62771434,-0.3697219,15.511899948120117,-1.1938512325286865,6.580287456512451,101.20516967773438,-151.94619750976562, -45.930091857910156
662,3287449322,0.22950685,-0.64525604,-0.6416729,-0.34529287,15.243896484375,-0.7549160718917847,8.79047966003418,125.74312591552734,-145.42495727539062, -26.759498596191406
663,3287465989,0.22750333,-0.6457324,-0.65075034,-0.3283232,14.121912002563477,4.943309307098389,10.236335754394531,86.44261932373047,-99.5617904663086, -16.26722526550293
664,3287482656,0.22405556,-0.642306,-0.6656499,-0.30684304,13.098946571350098,10.769203186035156,-5.909792900085449,108.9191665649414,-128.96923828125, -39.79254150390625
665,3287499323,0.21661891,-0.64014685,-0.67706215,-0.2913331,16.360105514526367,9.00039291381836,-5.173983573913574,57.73169708251953,-117.49178314208984, -39.1644401550293
666,3287515990,0.2082548,-0.6400549,-0.6824075,-0.28509626,12.671808242797852,2.2251029014587402,8.704063415527344,-2.428149461746216,-75.8487777709961, -21.195995330810547
667,3287532657,0.20865984,-0.64076126,-0.6809327,-0.2867348,5.348653316497803,-3.674419641494751,13.536707878112793,-9.65257740020752,8.898545265197754, 8.625665664672852
668,3287549324,0.2181175,-0.63792425,-0.68118095,-0.2854296,4.893362045288086,0.7780942320823669,3.5597147941589355,52.43478012084961,42.558589935302734, 6.451360702514648
669,3287565991,0.2278893,-0.6333035,-0.6791127,-0.2929154,7.822222709655762,5.4171342849731445,3.5667452812194824,10.774336814880371,89.50923156738281, -4.266788482666016
670,3287582658,0.23833276,-0.628633,-0.6724065,-0.3096576,6.554763317108154,0.03317771106958389,5.7264323234558105,-38.69196701049805,140.20591735839844, 2.629499673843384
671,3287599325,0.2540694,-0.6217839,-0.6633705,-0.3298081,6.432012557983398,-0.5533580780029297,5.4891228675842285,-32.97671127319336,187.74485778808594, 8.278875350952148
672,3287615992,0.2722991,-0.6128615,-0.65185195,-0.3540386,7.679798603057861,0.9356162548065186,4.517178058624268,-42.96369552612305,225.4918670654297, 7.920105457305908
673,3287632659,0.290044,-0.602624,-0.6366223,-0.38396737,9.117610931396484,1.4958702325820923,3.303588628768921,-77.1268310546875,257.3847351074219, 5.779293060302734
674,3287649326,0.3072711,-0.59177643,-0.6167629,-0.4183166,10.366458892822266,-0.37489405274391174,0.8761674761772156,-109.63671875,284.20294189453125, 12.047928810119629
675,3287665993,0.32708916,-0.57957023,-0.59345627,-0.4526818,11.698451042175293,-1.721980094909668,-0.6132138967514038,-106.24190521240234,306.42755126953125, 27.606464385986328
676,3287682660,0.3504921,-0.5653095,-0.5676179,-0.48517057,12.778609275817871,-1.5092334747314453,-0.9808686971664429,-87.6097640991211,325.69305419921875, 44.54118728637695
677,3287699327,0.37617275,-0.5491137,-0.5395629,-0.51559705,14.315214157104492,-0.03678613156080246,-1.301579475402832,-73.48542022705078,338.4159851074219, 58.046390533447266
678,3287715994,0.402266,-0.5316134,-0.5086573,-0.54482776,16.09999656677246,0.8962538242340088,-1.5299608707427979,-74.268310546875,347.5148620605469, 68.44683074951172
679,3287732661,0.42933574,-0.51292545,-0.476408,-0.5706257,17.716472625732422,0.023523841053247452,-1.603775143623352,-60.47922134399414,346.6593017578125, 82.31266784667969
680,3287749328,0.4560812,-0.49321628,-0.4433928,-0.593406,19.33488655090332,1.7221540212631226,-1.3342474699020386,-51.77195358276367,341.3733825683594, 89.2497329711914
681,3287765995,0.47899604,-0.4746845,-0.4077952,-0.6155816,20.188066482543945,2.588695764541626,-1.9545226097106934,-77.20489501953125,331.1445007324219, 87.85225677490234
682,3287782662,0.49625775,-0.45961666,-0.36864167,-0.6376397,20.386259078979492,2.499083995819092,-2.933675765991211,-121.85694122314453,312.2483825683594, 85.62406921386719
683,3287799329,0.5092461,-0.4487978,-0.3277734,-0.6571254,19.922822952270508,1.5035320520401,-3.7605221271514893,-150.91757202148438,280.87738037109375, 91.83988952636719
684,3287815996,0.5187415,-0.44074205,-0.2868248,-0.6740812,18.590330123901367,2.558750867843628,-8.022056579589844,-166.071044921875,253.42898559570312, 91.3658676147461
685,3287832663,0.53150016,-0.4269396,-0.26491967,-0.68194425,14.062649726867676,4.880818843841553,-14.7789888381958,-29.478635787963867,191.5326690673828, 69.94503784179688
686,3287849330,0.5399368,-0.41499332,-0.26133505,-0.6840708,8.904548645019531,11.043280601501465,-17.07003402709961,47.36445617675781,91.82205200195312, 20.441085815429688
687,3287865997,0.53536373,-0.41805866,-0.26133397,-0.6857969,11.07961654663086,9.969661712646484,-14.584070205688477,-28.04148292541504,-15.96056079864502, -22.191165924072266
