PacketCounter,SampleTimeFine,Quat_W,Quat_X,Quat_Y,Quat_Z,Acc_X,Acc_Y,Acc_Z,Gyr_X,Gyr_Y,Gyr_Z 
1,2178449541,0.90094024,-0.10307993,-0.40327662,0.122675695,0.030941180884838104,0.013375849463045597,0.012803522869944572,-0.2913709878921509,-0.26973026990890503, -0.5418951511383057
2,2178466208,0.90005016,-0.107727006,-0.40308678,0.12580155,9.844271659851074,-5.209766864776611,7.667769432067871,24.804847717285156,-11.864758491516113, -8.886645317077637
3,2178482875,0.89579904,-0.11293695,-0.40940598,0.13105737,11.092588424682617,-5.799247741699219,6.582830905914307,43.84623336791992,-2.838444709777832, -8.012899398803711
4,2178499542,0.8894078,-0.11579776,-0.42069274,0.1362435,10.849422454833984,-5.131253242492676,6.995691776275635,67.3249282836914,13.492223739624023, -8.225748062133789
5,2178516209,0.8854827,-0.11451385,-0.42792425,0.14031428,10.21903133392334,-4.069807529449463,7.775294303894043,74.74459075927734,26.33243179321289, -4.158109188079834
6,2178532876,0.8847052,-0.111893885,-0.42912045,0.14363946,9.322434425354004,-3.5527398586273193,8.426292419433594,58.283870697021484,37.99168395996094, 8.105989456176758
7,2178549543,0.88650525,-0.11051787,-0.42473018,0.14662495,9.72681999206543,-3.6750030517578125,8.265661239624023,37.773040771484375,49.71226119995117, 21.36529541015625
8,2178566210,0.88961756,-0.11024568,-0.41701004,0.1500971,9.757231712341309,-3.4313197135925293,8.117359161376953,28.757661819458008,64.45574951171875, 32.759029388427734
9,2178582877,0.8932816,-0.11166904,-0.40745285,0.15349422,9.802803039550781,-2.852658271789551,7.214998722076416,16.176841735839844,76.03105163574219, 41.42963409423828
10,2178599544,0.8973413,-0.11285687,-0.39629272,0.15809453,9.292189598083496,-1.8090176582336426,7.100211143493652,15.344954490661621,92.01775360107422, 48.468650817871094
11,2178616211,0.90196913,-0.114464164,-0.3835027,0.16209733,9.240289688110352,-1.1425987482070923,7.214089870452881,8.87913990020752,106.3446044921875, 51.460365295410156
12,2178632878,0.9071235,-0.11573685,-0.3692278,0.16553797,8.94625473022461,-0.16423489153385162,7.462894916534424,7.039958477020264,118.51139068603516, 51.836299896240234
13,2178649545,0.91251135,-0.116931304,-0.35402763,0.16826981,8.483946800231934,-0.19872534275054932,6.953954219818115,1.6626478433609009,125.8546371459961, 51.44124221801758
14,2178666212,0.91800344,-0.117656305,-0.3378563,0.17111364,8.014066696166992,-0.2438848316669464,6.8977861404418945,3.5818793773651123,132.66517639160156, 52.749271392822266
15,2178682879,0.9232098,-0.11968412,-0.32124758,0.17366481,7.376837730407715,0.7516090869903564,6.677971839904785,-6.224618911743164,137.07559204101562, 54.189964294433594
16,2178699546,0.9284463,-0.12167043,-0.30362386,0.17605886,6.499425888061523,0.36470359563827515,7.022180557250977,-7.169821262359619,143.76718139648438, 53.829158782958984
17,2178716213,0.93361366,-0.1233424,-0.28524864,0.17828552,5.688064098358154,0.24818840622901917,6.9287567138671875,-5.501372814178467,146.98764038085938, 51.172183990478516
18,2178732880,0.938864,-0.122742996,-0.2659811,0.18089436,5.075311183929443,-0.19309742748737335,6.595662593841553,10.884405136108398,148.35427856445312, 47.57114028930664
19,2178749547,0.94424963,-0.119772755,-0.24578854,0.18339974,4.798686981201172,-0.5340707898139954,7.232946395874023,28.227296829223633,150.6016082763672, 40.458457946777344
20,2178766214,0.9497733,-0.11460134,-0.22456273,0.18538848,4.560050964355469,-0.7498429417610168,7.666099548339844,44.197322845458984,154.0148162841797, 31.33880615234375
21,2178782881,0.95490295,-0.10970323,-0.20300841,0.18685162,4.369707107543945,-0.36910131573677063,7.558811187744141,42.97038650512695,155.27310180664062, 26.559465408325195
22,2178799548,0.95942974,-0.106162354,-0.18178305,0.1875616,4.0297627449035645,-0.3642607629299164,7.366464614868164,33.08689498901367,153.92689514160156, 22.020069122314453
23,2178816215,0.96342385,-0.10311183,-0.16136812,0.18746468,3.5970280170440674,-0.4127441346645355,7.398784160614014,28.49768829345703,148.61183166503906, 15.62346363067627
24,2178832882,0.9668559,-0.10055662,-0.14211749,0.18676467,2.656491994857788,-0.752898097038269,7.598966121673584,23.79170799255371,140.73890686035156, 10.491751670837402
25,2178849549,0.96979946,-0.09793651,-0.12398802,0.18580729,2.0341391563415527,-1.3827804327011108,8.172501564025879,23.56511688232422,131.7886199951172, 7.008917331695557
26,2178866216,0.97229487,-0.09519826,-0.106884845,0.18481283,1.7380950450897217,-1.502636194229126,7.450247287750244,24.382919311523438,123.13299560546875, 5.083564281463623
27,2178882883,0.974387,-0.09220731,-0.09065138,0.18398443,1.4972426891326904,-1.0830461978912354,6.533300399780273,26.57008934020996,115.5946044921875, 4.7556233406066895
28,2178899550,0.9760114,-0.089848995,-0.07598094,0.1831826,1.1297273635864258,-0.82480388879776,5.951838970184326,21.506370544433594,104.86849212646484, 4.0228095054626465
29,2178916217,0.9772477,-0.087585166,-0.06292847,0.18263598,0.5772912502288818,-0.4355470538139343,5.856841087341309,19.940311431884766,93.06875610351562, 4.555959701538086
30,2178932884,0.9781238,-0.08551112,-0.05188519,0.18240018,-0.29678842425346375,-0.9376194477081299,5.90671968460083,16.946191787719727,78.6393051147461, 5.389081001281738
31,2178949551,0.9788075,-0.08262123,-0.04284624,0.18241145,-0.9116904139518738,-1.1295677423477173,5.904685974121094,20.978988647460938,62.81584167480469, 5.282373905181885
32,2178966218,0.9793662,-0.078754775,-0.035694394,0.18266188,-1.2902328968048096,-1.313326358795166,5.803668975830078,26.25596046447754,47.523250579833984, 5.224193096160889
33,2178982885,0.9797982,-0.0741485,-0.030285273,0.18324935,-1.430664300918579,-0.8684536218643188,4.903503894805908,30.120595932006836,33.49240493774414, 6.156896114349365
34,2178999552,0.9802584,-0.06764212,-0.026681045,0.1838645,-1.553808569908142,-0.3926970660686493,3.862447500228882,41.47915267944336,17.927656173706055, 4.724636077880859
35,2179016219,0.98076534,-0.05890683,-0.024783453,0.18443213,-1.4286794662475586,-0.5659138560295105,3.8915152549743652,54.95694351196289,2.75160813331604, 2.9564733505249023
36,2179032886,0.98119557,-0.048614245,-0.024812235,0.18513879,-1.2667726278305054,-0.6069566011428833,3.954543113708496,63.62834930419922,-12.992157936096191, 2.836885452270508
37,2179049553,0.9814559,-0.03765367,-0.026680449,0.1860507,-1.3660120964050293,-0.928342878818512,4.908939361572266,66.35722351074219,-26.902143478393555, 3.663431406021118
38,2179066220,0.9814915,-0.028107423,-0.030403078,0.18697646,-1.5793603658676147,-0.24153009057044983,6.441460132598877,55.01253128051758,-38.18505859375, 3.8084442615509033
39,2179082887,0.981329,-0.020725934,-0.034841288,0.18801618,-1.640284776687622,0.17157398164272308,7.877478122711182,39.77884292602539,-40.868045806884766, 5.158322334289551
40,2179099554,0.98100775,-0.015559245,-0.039396066,0.1892875,-1.736058235168457,-0.10180960595607758,8.73543643951416,24.861080169677734,-39.42707443237305, 7.464540481567383
41,2179116221,0.9805767,-0.012136141,-0.04359096,0.1908455,-1.6222069263458252,-0.20681315660476685,8.746240615844727,13.860611915588379,-35.35419464111328, 10.06307315826416
42,2179132888,0.98004156,-0.0078000757,-0.04731073,0.19292325,-1.8018548488616943,-1.3084288835525513,6.6783223152160645,21.033145904541016,-33.90464782714844, 13.480951309204102
43,2179149555,0.9788751,0.00069777574,-0.05355623,0.19731927,-1.494338870048523,-5.155176639556885,-5.030416011810303,47.003936767578125,-57.20999526977539, 28.45932960510254
44,2179166222,0.9765979,0.003716914,-0.07850566,0.20019935,17.123573303222656,1.0381661653518677,-22.055585861206055,-14.172489166259766,-176.10986328125, 21.771465301513672
45,2179182889,0.97319764,0.01605907,-0.105055206,0.20394085,4.424101829528809,2.3399789333343506,13.004972457885742,46.734344482421875,-194.8964385986328, 24.325233459472656
46,2179199556,0.9691025,0.025668904,-0.12889606,0.20872733,5.492857933044434,1.1625887155532837,5.582087516784668,32.60259246826172,-172.95143127441406, 34.14628219604492
47,2179216223,0.96487373,0.038099263,-0.15080203,0.21172178,2.529299259185791,0.5622326731681824,1.8369542360305786,52.51954650878906,-163.7205047607422, 19.66217041015625
48,2179232890,0.9609632,0.047687303,-0.16897385,0.21383116,1.7556049823760986,0.12039626389741898,3.9588422775268555,38.154510498046875,-134.4605712890625, 15.337254524230957
49,2179249557,0.9573539,0.054499626,-0.18504743,0.21508321,3.0474894046783447,-1.0168428421020508,9.053608894348145,21.951875686645508,-116.5700912475586, 11.764967918395996
50,2179266224,0.95344126,0.058960706,-0.20058969,0.21734165,6.052435398101807,-1.3656283617019653,9.176726341247559,9.045226097106934,-109.8907470703125, 21.54111671447754
51,2179282891,0.9491004,0.060914364,-0.21702345,0.21999848,6.335843563079834,-0.721791684627533,10.513275146484375,-7.577043056488037,-112.19108581542969, 28.470285415649414
52,2179299558,0.94458723,0.060560808,-0.23424655,0.22184701,8.014153480529785,1.1927504539489746,7.320854187011719,-24.683441162109375,-114.37852478027344, 27.170734405517578
53,2179316225,0.9398659,0.059368964,-0.2516728,0.22313324,8.666772842407227,3.725738048553467,8.046470642089844,-31.357990264892578,-114.44841766357422, 25.38222885131836
54,2179332892,0.93495846,0.058391288,-0.2688275,0.22399813,8.902073860168457,2.2523250579833984,8.377593994140625,-30.697223663330078,-113.05077362060547, 22.85395622253418
55,2179349559,0.9304224,0.057637274,-0.28397688,0.22438662,9.421135902404785,2.192535877227783,8.617648124694824,-27.426090240478516,-99.64775848388672, 18.257549285888672
56,2179366226,0.92645466,0.055001453,-0.29788557,0.22342995,9.72667407989502,2.813744306564331,9.90896224975586,-40.61083984375,-87.91999053955078, 12.225672721862793
57,2179382893,0.9228783,0.049025834,-0.31154272,0.22098285,10.251845359802246,1.7436108589172363,9.898513793945312,-64.9901123046875,-80.81977081298828, 9.241612434387207
58,2179399560,0.91982543,0.039885875,-0.3245635,0.21676998,9.904489517211914,1.2883673906326294,11.825870513916016,-88.2092514038086,-71.3375015258789, 4.110084056854248
59,2179416227,0.91708595,0.027688714,-0.33710006,0.21106954,9.383110046386719,-0.5543134212493896,11.50342845916748,-110.35330963134766,-63.63188171386719, 1.223991870880127
60,2179432894,0.9144122,0.013076213,-0.3494124,0.20393766,8.474050521850586,-2.1212775707244873,11.927545547485352,-128.5286102294922,-59.126285552978516, -2.199671506881714
61,2179449561,0.9113766,0.00009538154,-0.36128303,0.1971482,8.600117683410645,-2.4328556060791016,10.618329048156738,-116.60234069824219,-59.942745208740234, -3.4946422576904297
62,2179466228,0.90764326,-0.012334278,-0.37399852,0.19014995,8.402997970581055,-2.5868382453918457,9.327841758728027,-114.62881469726562,-68.0545425415039, -5.246206760406494
63,2179482895,0.9035376,-0.024516415,-0.38667047,0.18304323,8.75096607208252,-1.434707522392273,10.723151206970215,-113.1597671508789,-69.30962371826172, -6.091066360473633
64,2179499562,0.8995652,-0.035877638,-0.39831907,0.17560615,8.875604629516602,-1.8443825244903564,11.714883804321289,-107.64348602294922,-63.958595275878906, -10.220663070678711
65,2179516229,0.8962645,-0.042303324,-0.40755177,0.16977167,7.701331615447998,-3.1903598308563232,11.276213645935059,-69.68740844726562,-54.00368881225586, -13.996105194091797
66,2179532896,0.89120066,-0.05034304,-0.4199041,0.16403544,7.271344184875488,-3.093050003051758,9.413230895996094,-83.44183349609375,-76.85041046142578, -7.837177753448486
67,2179549563,0.88504475,-0.058000214,-0.43358675,0.1591684,8.392641067504883,-3.3366799354553223,7.804070472717285,-80.3672103881836,-89.29100036621094, -2.951848030090332
68,2179566230,0.87908137,-0.05900821,-0.4463683,0.1564911,8.810948371887207,-2.330094814300537,8.967896461486816,-32.17228317260742,-91.54438781738281, -9.397270202636719
69,2179582897,0.8735586,-0.059945557,-0.4582113,0.1527895,6.693796634674072,-0.538610577583313,11.97269344329834,-33.69671630859375,-84.44066619873047, -15.897010803222656
70,2179599564,0.8685434,-0.061603133,-0.46869373,0.14887558,6.636168003082275,-3.2271814346313477,11.417009353637695,-37.286346435546875,-74.54633331298828, -14.788941383361816
71,2179616231,0.8645954,-0.062404316,-0.47684574,0.14559768,6.850903511047363,-2.9930644035339355,10.930950164794922,-27.30748176574707,-59.0064697265625, -14.022902488708496
72,2179632898,0.8612613,-0.06638224,-0.48378906,0.14060853,6.8061723709106445,-2.8148865699768066,11.779240608215332,-50.37071228027344,-46.50135040283203, -14.024922370910645
73,2179649565,0.8590177,-0.07084322,-0.4885038,0.13577214,7.0276665687561035,-4.468968868255615,12.544621467590332,-50.1586799621582,-29.964235305786133, -11.69453239440918
74,2179666232,0.8582222,-0.071312696,-0.4908512,0.13203973,6.188499450683594,-2.262796640396118,11.78995132446289,-19.983444213867188,-16.100379943847656, -19.06310272216797
75,2179682899,0.8579389,-0.07266702,-0.49256888,0.12663479,6.262685775756836,-2.223795175552368,10.466035842895508,-30.151893615722656,-9.706297874450684, -26.204509735107422
76,2179699566,0.8589828,-0.07225259,-0.491914,0.122265674,6.219027042388916,-3.426605224609375,8.58806324005127,-13.573567390441895,6.20102596282959, -26.15917205810547
77,2179716233,0.860162,-0.07096565,-0.4910551,0.11811131,6.654043674468994,-2.6556873321533203,7.471958160400391,-7.409969806671143,6.68208646774292, -28.044034957885742
78,2179732900,0.8615841,-0.06919146,-0.48978657,0.11399358,7.075978755950928,-2.787731170654297,7.237178325653076,-3.9238789081573486,9.308858871459961, -29.579235076904297
79,2179749567,0.8635432,-0.06592874,-0.48760483,0.11040022,7.72030782699585,-3.2955222129821777,8.140706062316895,7.678830146789551,14.960976600646973, -31.574052810668945
80,2179766234,0.86530244,-0.061910298,-0.48563957,0.10757857,7.9771552085876465,-3.419861078262329,6.124886989593506,14.565613746643066,11.89848804473877, -29.58677864074707
81,2179782901,0.86696196,-0.05726072,-0.4837809,0.10513955,8.407585144042969,-3.3086698055267334,7.013618469238281,19.588153839111328,10.313213348388672, -29.50676155090332
82,2179799568,0.8685489,-0.053006127,-0.4819624,0.10259393,9.367142677307129,-3.248849868774414,7.009304523468018,16.932363510131836,10.119319915771484, -28.879350662231445
83,2179816235,0.87024796,-0.047781914,-0.47972414,0.101243444,9.813859939575195,-4.555288314819336,6.1818060874938965,27.115610122680664,11.895489692687988, -24.95379066467285
84,2179832902,0.8720213,-0.04045199,-0.4771661,0.10126794,9.762800216674805,-3.7776923179626465,6.785863399505615,44.674739837646484,12.24692440032959, -23.771987915039062
85,2179849569,0.8736,-0.034136694,-0.47468072,0.101666465,10.054508209228516,-3.836801528930664,7.452857494354248,39.85158920288086,11.834400177001953, -18.170469284057617
86,2179866236,0.8750341,-0.02930237,-0.47220516,0.10236798,10.774385452270508,-4.3838372230529785,7.993279933929443,32.02021408081055,12.296566009521484, -11.525074005126953
87,2179882903,0.8767468,-0.023366481,-0.46879226,0.104896285,11.483445167541504,-5.596180438995361,7.314772129058838,45.43800354003906,17.723617553710938, -4.247786998748779
88,2179899570,0.8790862,-0.016428728,-0.46371916,0.10909759,11.473471641540527,-4.327960014343262,7.558098793029785,58.388004302978516,28.874269485473633, 2.23337721824646
89,2179916237,0.88223714,-0.0111073265,-0.45664608,0.11405597,10.843441009521484,-3.697826623916626,7.880552291870117,52.75406265258789,44.78242111206055, 11.467266082763672
90,2179932904,0.88616276,-0.008060666,-0.4476543,0.11939983,10.194599151611328,-2.753037691116333,8.018426895141602,41.83476257324219,60.66654586791992, 20.40907096862793
91,2179949571,0.8907355,-0.0066670664,-0.4368332,0.12539002,10.003742218017578,-3.0493416786193848,8.170331001281738,35.33686065673828,75.16153717041016, 28.97276496887207
92,2179966238,0.8957237,-0.007273909,-0.42463472,0.13157436,10.087942123413086,-2.514064311981201,8.044975280761719,24.933040618896484,86.599609375, 35.815608978271484
93,2179982905,0.9011532,-0.008708716,-0.41073778,0.1383536,9.84970474243164,-2.1830315589904785,7.471996784210205,23.15977668762207,99.14669036865234, 41.5589714050293
94,2179999572,0.9070025,-0.01120449,-0.39510942,0.14529154,9.035911560058594,-1.4574000835418701,7.324199199676514,18.724123001098633,112.19235229492188, 45.240394592285156
95,2180016239,0.9131995,-0.015357367,-0.37770402,0.15221949,8.358931541442871,-0.5991693735122681,7.2160444259643555,10.141641616821289,126.00186920166016, 49.499691009521484
96,2180032906,0.91945916,-0.021421663,-0.35914773,0.15858516,7.532783508300781,-0.03964982554316521,7.092030048370361,-2.186999797821045,135.57894897460938, 51.049293518066406
97,2180049573,0.92566514,-0.02699972,-0.33941826,0.16495699,6.431789398193359,-0.4365902543067932,7.278065204620361,2.0650556087493896,142.44976806640625, 50.198726654052734
98,2180066240,0.93174416,-0.031821586,-0.3187632,0.17096843,5.539016246795654,0.020672254264354706,8.048858642578125,6.97363805770874,147.32679748535156, 46.50275421142578
99,2180082907,0.9375104,-0.038053766,-0.29764336,0.17616709,4.965394020080566,-0.009525693953037262,7.34263801574707,-3.4966721534729004,151.4659423828125, 44.90586853027344
100,2180099574,0.9432262,-0.042940006,-0.27515075,0.18103285,4.529635906219482,-0.12469731271266937,7.122459888458252,6.033828258514404,158.7106170654297, 40.468379974365234
101,2180116241,0.94871944,-0.046547808,-0.25158066,0.18566667,3.964169502258301,-0.429969847202301,7.9033894538879395,15.057697296142578,163.8085174560547, 37.17142105102539
102,2180132908,0.9538906,-0.049398545,-0.2271277,0.18990983,3.5023064613342285,-0.4457876682281494,8.051223754882812,20.254112243652344,168.1846466064453, 34.021915435791016
103,2180149575,0.9585853,-0.05204244,-0.20241074,0.1934831,3.506042003631592,-0.9018906950950623,6.9773850440979,20.660703659057617,169.14112854003906, 30.021697998046875
104,2180166242,0.96286774,-0.05294504,-0.17707391,0.19679324,3.6485249996185303,-1.278306484222412,6.959146976470947,32.416236877441406,170.5090789794922, 26.628379821777344
105,2180182909,0.9665256,-0.05333921,-0.15223482,0.19951904,3.5040273666381836,-1.0738074779510498,7.74612283706665,34.17398452758789,166.09230041503906, 22.80337142944336
106,2180199576,0.9695897,-0.05273518,-0.12829863,0.20162922,3.035477638244629,-1.2595546245574951,7.856822490692139,38.692012786865234,158.43946838378906, 18.147132873535156
107,2180216243,0.9721293,-0.050863724,-0.10548137,0.20310472,2.3460497856140137,-0.8024559617042542,7.5621514320373535,44.84968185424805,149.0913848876953, 13.124737739562988
108,2180232910,0.9741418,-0.048761796,-0.083942905,0.20401902,1.862971305847168,-0.9021022915840149,7.155222415924072,44.000858306884766,140.1169891357422, 9.499124526977539
109,2180249577,0.9756913,-0.045675788,-0.06341222,0.2047419,1.4495787620544434,-0.7819215059280396,7.640263080596924,48.91989517211914,131.8577423095703, 7.957583904266357
110,2180266244,0.976771,-0.042496506,-0.04436684,0.20529033,0.8656308650970459,-0.2243204116821289,6.24469518661499,47.23366928100586,121.67015075683594, 6.94541072845459
111,2180282911,0.9774173,-0.039590195,-0.027278947,0.205777,0.1719164103269577,-0.4664479196071625,5.516129970550537,42.47247314453125,108.8394546508789, 6.64989709854126
112,2180299578,0.97775465,-0.03600966,-0.012275711,0.20627332,-0.6169403791427612,-0.5426640510559082,5.654527187347412,43.98076629638672,93.82566833496094, 6.4617204666137695
113,2180316245,0.9779311,-0.031633314,0.0006047438,0.20651875,-1.0418952703475952,-0.24489907920360565,5.045167922973633,46.276634216308594,78.438720703125, 4.41147518157959
114,2180332912,0.97803503,-0.025778344,0.011396013,0.20652656,-1.0828884840011597,-0.18542852997779846,3.6004204750061035,53.241947174072266,62.287132263183594, 2.474097728729248
115,2180349579,0.97808176,-0.020494275,0.019954128,0.20624794,-1.5351556539535522,0.6655042171478271,4.54561185836792,46.255340576171875,48.082069396972656, 0.19907782971858978
116,2180366246,0.97810555,-0.015062672,0.02600191,0.20592916,-1.4155659675598145,0.4921889007091522,2.6014628410339355,43.64274215698242,30.920310974121094, -0.35908085107803345
117,2180382913,0.978175,-0.0090513695,0.029642707,0.20545915,-1.8931864500045776,0.6607685685157776,2.582091808319092,44.138362884521484,13.847180366516113, -1.5690070390701294
118,2180399580,0.97830456,-0.0029320284,0.03025194,0.20493017,-2.0270040035247803,0.33009982109069824,1.7560597658157349,40.56241989135742,-6.808024883270264, -2.1940996646881104
119,2180416247,0.9784598,0.003228108,0.028030463,0.20450127,-2.035123586654663,0.012610843405127525,2.96627140045166,36.8174934387207,-26.029348373413086, -1.5769596099853516
120,2180432914,0.9785643,0.010094259,0.023429448,0.2043561,-1.9282560348510742,-0.19747596979141235,4.157108783721924,38.18096923828125,-43.12385559082031, 0.6226456761360168
121,2180449581,0.9785728,0.017394267,0.017918758,0.20438239,-2.0734190940856934,0.5121139287948608,6.244631767272949,39.83096694946289,-49.92378234863281, 2.0917935371398926
122,2180466248,0.9784579,0.024654007,0.012066765,0.20461403,-2.112168312072754,0.439907044172287,7.041106700897217,39.05973815917969,-52.22895812988281, 3.7178478240966797
123,2180482915,0.97788644,0.03093159,0.0027013745,0.20681909,-1.7460540533065796,-5.5698113441467285,-2.723057985305786,27.421064376831055,-74.2197036743164, 18.197805404663086
124,2180499582,0.97729456,0.02892935,-0.02078378,0.20887007,12.99100112915039,-2.600865364074707,-15.55687427520752,-47.96150588989258,-157.51156616210938, 20.044296264648438
125,2180516249,0.9754185,0.03645419,-0.047491234,0.21207157,7.627676010131836,-1.7086734771728516,11.491338729858398,11.981904029846191,-191.83700561523438, 28.847742080688477
126,2180532916,0.9724447,0.046477016,-0.07160389,0.21694247,5.619106769561768,0.5964834094047546,8.829730033874512,33.495208740234375,-177.52694702148438, 40.151859283447266
127,2180549583,0.9689726,0.058222193,-0.09618442,0.22011645,2.8626718521118164,-1.0875746011734009,3.321098804473877,43.637489318847656,-183.69618225097656, 28.85640525817871
128,2180566250,0.9651815,0.07224778,-0.117190726,0.22242159,1.5059802532196045,-1.561278223991394,4.699952602386475,63.87964630126953,-163.72779846191406, 20.585065841674805
129,2180582917,0.96151173,0.08547114,-0.13400924,0.22412372,1.9965291023254395,-1.6253362894058228,7.743904113769531,64.53736114501953,-134.87188720703125, 14.942313194274902
130,2180599584,0.9580837,0.09615891,-0.14781782,0.22578569,4.719682216644287,-0.695452094078064,8.165706634521484,52.37516403198242,-110.87250518798828, 14.81704330444336
131,2180616251,0.9550252,0.10359296,-0.1599424,0.22718742,5.1096882820129395,0.15307381749153137,9.162568092346191,33.14482879638672,-94.38605499267578, 14.669261932373047
132,2180632918,0.95181525,0.11031653,-0.17156628,0.22900479,6.829346656799316,0.9645689725875854,7.982887268066406,29.88387107849121,-89.74264526367188, 18.014724731445312
133,2180649585,0.94893235,0.110715136,-0.18528196,0.23008786,8.521234512329102,2.8480148315429688,8.071784973144531,-15.912317276000977,-93.41466522216797, 21.697887420654297
134,2180666252,0.9458917,0.107431255,-0.20021017,0.23165424,8.056984901428223,5.343724250793457,8.553317070007324,-41.223018646240234,-95.03575134277344, 30.731462478637695
135,2180682919,0.94282925,0.10041738,-0.21659948,0.23253894,8.466838836669922,3.9470179080963135,8.602992057800293,-68.9651870727539,-98.94761657714844, 32.64900588989258
136,2180699586,0.93991256,0.09198478,-0.23335837,0.23161846,8.365798950195312,3.6452748775482178,9.544846534729004,-81.66565704345703,-99.97685241699219, 23.1652774810791
137,2180716253,0.9374197,0.083619185,-0.24888512,0.22871016,8.735971450805664,3.129122734069824,9.726326942443848,-82.81048583984375,-92.675537109375, 8.825338363647461
138,2180732920,0.9355572,0.07406599,-0.2624054,0.22447829,8.653182029724121,2.183241367340088,9.997781753540039,-89.9726333618164,-77.5763168334961, 0.23629531264305115
139,2180749587,0.9340158,0.063151106,-0.27469552,0.21947394,8.453620910644531,1.141825795173645,11.015107154846191,-98.38561248779297,-67.43544006347656, -3.3780879974365234
140,2180766254,0.93255985,0.051982798,-0.2859549,0.21414873,8.150993347167969,-0.41291695833206177,10.640459060668945,-99.0707778930664,-60.507240295410156, -5.547308921813965
141,2180782921,0.93096375,0.04118462,-0.2968111,0.20859842,8.689504623413086,-1.3588297367095947,9.87043571472168,-96.43280029296875,-58.910606384277344, -7.682055473327637
142,2180799588,0.92918235,0.031496577,-0.3071721,0.20315918,7.981045722961426,-2.1189279556274414,10.46450424194336,-88.27983856201172,-57.73011779785156, -9.149538040161133
143,2180816255,0.9278653,0.021244168,-0.31521878,0.19812107,8.36738395690918,-2.4054055213928223,14.088501930236816,-87.84723663330078,-41.159584045410156, -6.570811748504639
144,2180832922,0.92733514,0.014731713,-0.3186666,0.19566411,6.769957542419434,-2.864603042602539,10.975640296936035,-52.215965270996094,-14.929644584655762, 0.012076514773070812
145,2180849589,0.924638,0.0059466455,-0.3296571,0.190619,5.517746925354004,-1.3977047204971313,8.436026573181152,-82.28093719482422,-65.03543090820312, -7.865196704864502
146,2180866256,0.920794,-0.0025745363,-0.34334785,0.1850522,7.248845100402832,-2.8997058868408203,7.476153373718262,-85.26775360107422,-85.20978546142578, -10.162259101867676
147,2180882923,0.9164337,-0.011006017,-0.35742822,0.17964742,7.727071285247803,-1.3296117782592773,9.613375663757324,-84.81108093261719,-89.01055908203125, -8.72271728515625
148,2180899590,0.91231346,-0.01873676,-0.37042823,0.17353968,6.9356536865234375,-0.8495902419090271,12.030613899230957,-80.77204132080078,-82.44781494140625, -15.07455062866211
149,2180916257,0.90800273,-0.027044779,-0.38332778,0.1669115,6.982498645782471,-2.007040500640869,11.845762252807617,-85.64912414550781,-81.59788513183594, -16.62684440612793
150,2180932924,0.90365744,-0.03144307,-0.3952246,0.1619021,6.899691581726074,-3.1853127479553223,10.820622444152832,-55.83378219604492,-80.25761413574219, -16.602176666259766
151,2180949591,0.8993638,-0.033352457,-0.40632644,0.15789598,6.68038272857666,-2.8718957901000977,10.896011352539062,-36.74422836303711,-78.19224548339844, -17.03264045715332
152,2180966258,0.8952699,-0.034998666,-0.4165514,0.15411659,6.610682487487793,-2.935826539993286,12.05196762084961,-33.48539733886719,-72.57752990722656, -16.389299392700195
153,2180982925,0.89170563,-0.036618978,-0.42525393,0.15059675,6.292226314544678,-2.973358631134033,13.261238098144531,-30.841535568237305,-61.815521240234375, -15.065000534057617
154,2180999592,0.8889641,-0.03811277,-0.43201584,0.14714849,6.231803894042969,-2.8957459926605225,13.501529693603516,-27.64715576171875,-47.70564270019531, -15.368361473083496
155,2181016259,0.8872036,-0.03845573,-0.43664256,0.14399421,6.162072658538818,-2.6611809730529785,12.271220207214355,-17.325658798217773,-33.02571105957031, -17.426292419433594
156,2181032926,0.8861707,-0.03821943,-0.43965605,0.1412215,6.33709716796875,-3.1088716983795166,10.468951225280762,-10.860995292663574,-21.70388412475586, -17.134334564208984
157,2181049593,0.88577133,-0.037871923,-0.44143027,0.13825464,6.5941572189331055,-2.435502529144287,9.040870666503906,-9.397909164428711,-12.305699348449707, -18.9490966796875
158,2181066260,0.88560337,-0.039503664,-0.4427831,0.13449672,6.7212700843811035,-3.0361342430114746,8.159817695617676,-23.392948150634766,-6.947890281677246, -17.87216567993164
159,2181082927,0.8862747,-0.039530735,-0.44217092,0.13205844,7.200872898101807,-3.9733738899230957,8.041461944580078,-7.549505710601807,5.73655366897583, -14.966283798217773
160,2181099594,0.8865893,-0.03759866,-0.44222015,0.13033552,7.204364776611328,-2.9971795082092285,6.069947242736816,5.8742594718933105,-1.3419915437698364, -16.43001365661621
161,2181116261,0.88626945,-0.03688228,-0.443564,0.1281303,7.694829940795898,-3.424440860748291,5.845732688903809,-4.3180623054504395,-9.926827430725098, -15.440876007080078
162,2181132928,0.8856526,-0.03679737,-0.44557858,0.12539981,7.733574867248535,-3.1315157413482666,6.909198760986328,-10.42409610748291,-14.206241607666016, -16.628925323486328
163,2181149595,0.8849316,-0.036669344,-0.44758853,0.12335316,7.588117599487305,-3.3412106037139893,8.61283016204834,-8.086594581604004,-14.695770263671875, -12.510708808898926
164,2181166262,0.88398314,-0.03573002,-0.44989845,0.12201958,7.488449573516846,-2.7036831378936768,8.390968322753906,-1.2602366209030151,-18.094802856445312, -10.552231788635254
165,2181182929,0.88271445,-0.035853453,-0.4527262,0.120702446,7.749977111816406,-3.355354070663452,7.809709072113037,-8.184233665466309,-21.34918785095215, -7.025180339813232
166,2181199596,0.8813496,-0.03502137,-0.45550045,0.12048072,7.785610675811768,-3.631021499633789,7.50106954574585,1.0496422052383423,-22.386999130249023, -3.263038158416748
167,2181216263,0.87998456,-0.032983843,-0.45806715,0.12130231,8.714319229125977,-3.9269800186157227,7.210627555847168,11.796500205993652,-22.378211975097656, -0.6732697486877441
168,2181232930,0.8793304,-0.029428829,-0.45902178,0.12333432,9.500810623168945,-5.01688814163208,7.675516605377197,26.303234100341797,-11.918289184570312, 1.636700987815857
169,2181249597,0.8794936,-0.022996001,-0.4581512,0.12672727,10.284024238586426,-4.652843475341797,7.031241416931152,49.71369934082031,-1.0124531984329224, 0.4394344687461853
170,2181266264,0.8806707,-0.014395706,-0.45495954,0.13123988,9.965226173400879,-4.098026752471924,7.2963128089904785,68.55025482177734,14.163586616516113, -0.13610823452472687
171,2181282931,0.8827165,-0.005561445,-0.44964546,0.13638094,9.728873252868652,-3.237905740737915,8.137785911560059,73.9406967163086,29.468250274658203, 2.3575029373168945
172,2181299598,0.8853139,0.00090343284,-0.44299158,0.14134003,9.827601432800293,-2.5225353240966797,8.005766868591309,60.28239822387695,41.532814025878906, 8.115405082702637
173,2181316265,0.8885064,0.005011838,-0.43483305,0.1464643,10.258384704589844,-3.0286128520965576,7.364903926849365,47.89623260498047,54.79948806762695, 15.711694717407227
174,2181332932,0.8925229,0.006922234,-0.42456192,0.15199399,9.999797821044922,-2.404266119003296,7.131299018859863,37.79035949707031,72.409912109375, 23.860111236572266
175,2181349599,0.89739007,0.0066587576,-0.4121158,0.15750282,9.467809677124023,-1.663535475730896,7.368046760559082,26.62311553955078,90.52778625488281, 29.088062286376953
176,2181366266,0.9027831,0.0039175954,-0.3981859,0.16252957,9.549154281616211,-0.9376245141029358,7.038867950439453,11.551472663879395,103.84688568115234, 32.506309509277344
177,2181382933,0.9085273,0.0005063318,-0.38251907,0.1680987,9.800148963928223,-1.3137587308883667,6.9120354652404785,10.800826072692871,116.37409210205078, 37.280704498291016
178,2181399600,0.91428506,-0.0031286029,-0.36580506,0.17395313,9.369338989257812,-0.21628747880458832,6.864706039428711,11.365473747253418,123.23624420166016, 39.64506530761719
179,2181416267,0.9198777,-0.0075216703,-0.34838727,0.17998596,9.111138343811035,-0.6739904284477234,5.896979808807373,7.87514066696167,128.1744384765625, 42.90326690673828
180,2181432934,0.92536664,-0.011049305,-0.3297148,0.18671516,8.256793975830078,-0.20710121095180511,6.151726722717285,16.555356979370117,134.7915496826172, 45.43714904785156
181,2181449601,0.93056464,-0.015201207,-0.31042704,0.19352943,7.36672306060791,0.0904499962925911,6.843153476715088,13.535935401916504,138.87001037597656, 47.83066177368164
182,2181466268,0.93545383,-0.020072404,-0.29078868,0.19991378,6.09649658203125,0.35357865691185,6.998104095458984,8.436941146850586,141.47506713867188, 47.07685089111328
183,2181482935,0.9401575,-0.02385399,-0.27013764,0.20630203,5.234609127044678,-0.247751384973526,7.394729137420654,16.80440330505371,146.12887573242188, 45.33361053466797
184,2181499602,0.9447261,-0.027951768,-0.24854927,0.21197787,4.324755668640137,0.15801841020584106,8.044389724731445,14.732535362243652,152.505615234375, 41.66686248779297
185,2181516269,0.9490692,-0.03296976,-0.22624294,0.2167835,3.9897425174713135,0.05872136726975441,8.240583419799805,8.253523826599121,158.287109375, 38.05989074707031
186,2181532936,0.95315593,-0.038388196,-0.20347026,0.22050014,3.946237802505493,0.5180518627166748,7.576995372772217,4.568296909332275,161.7698211669922, 32.07248306274414
187,2181549603,0.95683265,-0.04414451,-0.18091185,0.22314456,3.970869302749634,0.023624351248145103,6.807040691375732,0.4002293348312378,160.591064453125, 26.08803939819336
188,2181566270,0.96010387,-0.048941493,-0.15881202,0.22490884,3.9876630306243896,-0.3993280827999115,7.1046295166015625,4.778561592102051,155.8767547607422, 19.593032836914062
189,2181582937,0.96294004,-0.05205715,-0.13766213,0.22602136,3.1488566398620605,-0.6076587438583374,7.498383045196533,13.542638778686523,146.76571655273438, 13.807366371154785
190,2181599604,0.9654291,-0.053128395,-0.11746866,0.22655083,2.273555278778076,-0.9701161980628967,8.354369163513184,24.910350799560547,137.14395141601562, 8.207776069641113
191,2181616271,0.967678,-0.051729843,-0.09787473,0.22659208,1.9969252347946167,-0.7857300043106079,7.250489234924316,39.88673400878906,129.29994201660156, 3.1240735054016113
192,2181632938,0.9696494,-0.04818254,-0.07866468,0.22643037,2.0383946895599365,-1.1959627866744995,7.697345733642578,53.34868621826172,123.28681182861328, 0.6192712187767029
193,2181649605,0.9712399,-0.043656453,-0.060230315,0.22618468,1.5019054412841797,-0.31427183747291565,7.184187889099121,58.499977111816406,116.42002868652344, -0.13649824261665344
194,2181666272,0.9724544,-0.038663596,-0.04294791,0.22581634,0.9914534091949463,-0.11185812950134277,6.528652667999268,59.65665054321289,107.88607788085938, -0.9135386943817139
195,2181682939,0.9732818,-0.03391188,-0.027568156,0.2254168,0.2916777729988098,0.16279058158397675,6.687480449676514,54.97282409667969,95.43263244628906, -0.9561246633529663
196,2181699606,0.9738411,-0.029769816,-0.0142660625,0.22481997,-0.464568167924881,0.38765206933021545,6.613601207733154,47.56496047973633,82.46173858642578, -2.2357654571533203
197,2181716273,0.9742013,-0.027234664,-0.0029002011,0.22401275,-0.5452246069908142,0.1209382712841034,6.789209842681885,33.74180221557617,71.98851013183594, -3.5771493911743164
198,2181732940,0.9744381,-0.025700236,0.0067087733,0.22308086,-0.8530277013778687,-0.5558870434761047,6.782722473144531,24.30307388305664,61.768924713134766, -4.53659200668335
199,2181749607,0.9745973,-0.024249045,0.014332496,0.22218654,-1.0938318967819214,-0.8175350427627563,5.391595363616943,20.69173812866211,48.5766487121582, -4.516523838043213
200,2181766274,0.9746924,-0.022210168,0.020071885,0.22153705,-1.3848963975906372,-1.1472792625427246,4.467865467071533,21.728683471679688,35.00022506713867, -3.040745258331299
201,2181782941,0.97474676,-0.018570457,0.024419503,0.22119622,-1.8112163543701172,-1.1599692106246948,4.591373920440674,30.3057861328125,23.172128677368164, -0.9030444025993347
202,2181799608,0.97477025,-0.013631045,0.026982727,0.22115438,-1.9032831192016602,-1.288264513015747,4.202129364013672,36.2661247253418,9.176568031311035, 1.1386373043060303
203,2181816275,0.9747853,-0.0070419176,0.027718248,0.22130506,-1.8439605236053467,-1.5083738565444946,4.040181636810303,44.52735900878906,-5.625613212585449, 2.5756759643554688
204,2181832942,0.9747617,-0.000497047,0.026063718,0.22172071,-1.8005329370498657,-1.5752185583114624,4.254471778869629,40.566097259521484,-21.608558654785156, 4.2877960205078125
205,2181849609,0.97464216,0.0052385386,0.022712525,0.22255233,-1.800141453742981,-1.9643654823303223,5.051999092102051,32.506614685058594,-31.755342483520508, 7.074285507202148
206,2181866276,0.97434294,0.011768063,0.018337553,0.22401232,-1.9314907789230347,-2.371978282928467,5.520709037780762,36.20138931274414,-39.80491256713867, 11.719695091247559
207,2181882943,0.9735103,0.019504765,0.009998855,0.22758968,-1.7425220012664795,-5.934086322784424,-2.476226568222046,37.999786376953125,-68.0074234008789, 27.199369430541992
208,2181899610,0.9729147,0.021950565,-0.014354091,0.22967188,11.086198806762695,1.0455888509750366,-19.08348846435547,-22.307729721069336,-167.17501831054688, 18.60118865966797
209,2181916277,0.9712719,0.034747064,-0.043679584,0.23133521,9.25035572052002,4.047521114349365,8.701823234558105,39.16965866088867,-216.75045776367188, 17.162647247314453
210,2181932944,0.96826196,0.044312935,-0.07130901,0.23541556,4.26840353012085,1.5384376049041748,9.653778076171875,21.27554702758789,-199.9501953125, 36.033119201660156
211,2181949611,0.9645726,0.05860161,-0.097470194,0.23804495,2.7007524967193604,0.09421588480472565,1.7452402114868164,54.57329177856445,-198.54547119140625, 24.70408821105957
212,2181966278,0.96059144,0.07284409,-0.12003139,0.23989668,-0.1806255429983139,-0.47267603874206543,5.106208324432373,59.753780364990234,-175.0578155517578, 18.595491409301758
213,2181982945,0.95667994,0.08329156,-0.13847083,0.24218181,2.065403699874878,-2.9271957874298096,7.632615089416504,41.81915283203125,-141.3289794921875, 22.400243759155273
214,2181999612,0.95274574,0.09208028,-0.15441604,0.24485216,4.547022342681885,-3.615609645843506,8.209115028381348,35.50267028808594,-121.96852111816406, 25.095680236816406
215,2182016279,0.94930214,0.09846923,-0.16705754,0.24742907,5.653591156005859,-0.9728730320930481,8.221755981445312,25.00899314880371,-95.7940444946289, 24.07016372680664
216,2182032946,0.9458399,0.103299536,-0.17991906,0.24969062,7.003353118896484,1.8833881616592407,8.3013277053833,14.140290260314941,-94.77068328857422, 23.95941162109375
217,2182049613,0.94228894,0.103851356,-0.19547586,0.2511887,8.191404342651367,3.4614062309265137,5.8116865158081055,-19.21443748474121,-105.54457092285156, 26.35065460205078
218,2182066280,0.93823624,0.104193024,-0.21175264,0.2530173,7.985804080963135,5.434898853302002,7.351400852203369,-21.071596145629883,-110.18462371826172, 30.170166015625
219,2182082947,0.9340429,0.10381451,-0.22825971,0.25433058,9.3231782913208,3.6382269859313965,7.9736104011535645,-26.85764503479004,-110.9180908203125, 28.337997436523438
220,2182099614,0.9304015,0.10144038,-0.2437188,0.2542916,10.30774974822998,3.325763463973999,9.63535213470459,-40.4057731628418,-100.7070541381836, 21.10416603088379
221,2182116281,0.92762357,0.09615546,-0.25799802,0.25239995,10.141600608825684,2.6390457153320312,10.112367630004883,-60.715328216552734,-87.83247375488281, 11.828048706054688
222,2182132948,0.9256588,0.087502465,-0.27133882,0.24874616,10.577024459838867,1.5727460384368896,11.154632568359375,-84.26557159423828,-75.65935516357422, 4.569685459136963
223,2182149615,0.9243952,0.075680256,-0.28343722,0.24378185,10.518839836120605,0.4463134706020355,12.035404205322266,-105.20012664794922,-61.75872039794922, 0.22406524419784546
224,2182166282,0.9234452,0.061822712,-0.2944378,0.23818764,9.328693389892578,-1.1629425287246704,11.313636779785156,-117.68949127197266,-51.05122756958008, -0.8758259415626526
225,2182182949,0.9222911,0.047212023,-0.30524743,0.23232386,8.001416206359863,-1.7878305912017822,10.717644691467285,-122.59806060791016,-49.117637634277344, -0.7931459546089172
226,2182199616,0.92015624,0.03313794,-0.3174884,0.22674993,8.018011093139648,-2.867168664932251,8.989845275878906,-120.53378295898438,-61.022640228271484, 1.9593117237091064
227,2182216283,0.91766673,0.021166893,-0.32927972,0.22139278,8.320795059204102,-2.155052661895752,11.32651138305664,-105.93019104003906,-62.16554260253906, -0.8086230754852295
228,2182232950,0.9152878,0.010271699,-0.33966497,0.21626467,8.50655746459961,-2.2812962532043457,12.760162353515625,-96.48027038574219,-54.66947937011719, -2.1573104858398438
229,2182249617,0.91394234,-0.0011282283,-0.34614953,0.21186951,9.065857887268066,-3.248448610305786,12.64494514465332,-92.21418762207031,-26.952850341796875, 1.8267507553100586
230,2182266284,0.9115733,-0.012590855,-0.35527372,0.20653392,6.67566442489624,-1.9916130304336548,9.20944881439209,-98.68640899658203,-45.91559982299805, -2.4671692848205566
231,2182282951,0.90772617,-0.024205621,-0.3684551,0.19921951,7.1013970375061035,-2.949700355529785,7.175072193145752,-110.36003112792969,-74.6053237915039, -12.728675842285156
232,2182299618,0.90312517,-0.035079468,-0.38275182,0.19140407,8.637249946594238,-3.0201539993286133,7.542192459106445,-108.63838958740234,-84.402587890625, -16.884801864624023
233,2182316285,0.8991173,-0.040660452,-0.3949991,0.18414862,6.217486381530762,-1.6371629238128662,10.805428504943848,-71.43917846679688,-77.19215393066406, -27.612409591674805
234,2182332952,0.8949649,-0.049364857,-0.40724275,0.17537044,6.420736312866211,-1.3013654947280884,12.128927230834961,-94.96106719970703,-73.2802505493164, -28.347492218017578
235,2182349619,0.89125407,-0.056913678,-0.41754827,0.1675723,6.849592208862305,-3.7584164142608643,11.080256462097168,-82.66976165771484,-61.97526550292969, -25.402000427246094
236,2182366286,0.8883209,-0.06147917,-0.42529717,0.16195352,6.627495288848877,-4.5770134925842285,10.617415428161621,-54.88410186767578,-48.47480773925781, -20.529109954833984
237,2182382953,0.88590336,-0.06358873,-0.4314275,0.15812096,6.4410247802734375,-5.032374858856201,11.9059419631958,-32.63100051879883,-40.68007278442383, -16.736053466796875
238,2182399620,0.8848493,-0.061526407,-0.43439656,0.15670417,6.420568466186523,-4.884389400482178,13.241909980773926,3.9825100898742676,-23.118854522705078, -14.556199073791504
239,2182416287,0.8849004,-0.058414973,-0.43512928,0.1555684,5.780040264129639,-2.8013195991516113,11.403790473937988,14.0733642578125,-7.645750522613525, -16.282752990722656
240,2182432954,0.88527435,-0.055177376,-0.43520856,0.15439695,5.830508232116699,-2.8002521991729736,8.3955078125,15.534073829650879,-2.9816441535949707, -16.97938346862793
241,2182449621,0.8859129,-0.05213302,-0.4346595,0.15333596,6.083745956420898,-3.2785656452178955,7.41718053817749,15.451380729675293,1.7103869915008545, -15.788871765136719
242,2182466288,0.8866153,-0.04993384,-0.43397033,0.15195353,6.318287372589111,-3.01324725151062,8.02692699432373,9.518835067749023,3.704618215560913, -15.271871566772461
243,2182482955,0.8877341,-0.0474386,-0.4324174,0.15064245,6.666184902191162,-3.1748852729797363,8.62880802154541,12.593716621398926,9.808382034301758, -15.876510620117188
244,2182499622,0.8890674,-0.043752287,-0.43042958,0.14958422,6.632574558258057,-2.91239333152771,7.4859771728515625,21.142011642456055,11.706300735473633, -17.97801971435547
245,2182516289,0.8899086,-0.041295614,-0.42957267,0.14773254,6.888689041137695,-3.1230571269989014,5.835727691650391,9.976617813110352,4.791958332061768, -19.044879913330078
246,2182532956,0.8906927,-0.039282575,-0.42904598,0.14506184,6.811281204223633,-2.5730035305023193,6.104112148284912,4.521578788757324,3.2853922843933105, -22.807039260864258
247,2182549623,0.8913921,-0.03911284,-0.42858458,0.14214632,6.424005508422852,-3.0496742725372314,8.316032409667969,-7.562172889709473,4.532154560089111, -18.820777893066406
248,2182566290,0.8921587,-0.038293976,-0.4277601,0.1400283,6.8493428230285645,-2.560692310333252,9.052976608276367,-0.8395083546638489,6.028908729553223, -15.840292930603027
249,2182582957,0.8926125,-0.037670642,-0.4276281,0.13768917,7.327195644378662,-2.4998629093170166,8.12215518951416,-3.4492149353027344,1.0246562957763672, -16.529827117919922
250,2182599624,0.8929075,-0.036012527,-0.4278458,0.13552634,7.9933671951293945,-3.5924084186553955,6.601285934448242,3.0578978061676025,-2.666349411010742, -18.44203758239746
251,2182616291,0.8928956,-0.032438915,-0.42840847,0.13472839,8.825353622436523,-4.083778381347656,5.832172870635986,18.476768493652344,-7.80649995803833, -15.532203674316406
252,2182632958,0.8928628,-0.027634358,-0.4287384,0.13496639,10.138765335083008,-4.5278801918029785,7.315045356750488,29.354248046875,-7.766838073730469, -12.76984977722168
253,2182649625,0.89280367,-0.021475002,-0.4288952,0.13597651,10.994973182678223,-4.960235595703125,6.840799808502197,40.15549850463867,-8.154265403747559, -12.02109146118164
254,2182666292,0.89303946,-0.013292379,-0.42804492,0.13813624,10.935656547546387,-4.883265018463135,5.989501953125,57.02931213378906,-3.1024904251098633, -11.114034652709961
255,2182682959,0.8935979,-0.0039023114,-0.4259489,0.14154573,10.310235977172852,-4.246967315673828,6.818310260772705,69.41841888427734,4.318087100982666, -7.245100021362305
256,2182699626,0.89415777,0.003154613,-0.42343315,0.14552127,9.789786338806152,-3.9968464374542236,7.623678684234619,57.21318435668945,9.200925827026367, 3.018306255340576
257,2182716293,0.89504117,0.0063974387,-0.4199269,0.15007335,9.691969871520996,-4.133227348327637,8.122145652770996,36.48843765258789,20.070310592651367, 17.266202926635742
258,2182732960,0.8964462,0.00642058,-0.41517308,0.15483624,9.74278450012207,-3.177520990371704,7.987590789794922,18.622737884521484,32.580501556396484, 27.20902442932129
259,2182749627,0.89848965,0.004930357,-0.4087179,0.16013049,9.611055374145508,-3.2369773387908936,7.50246524810791,12.63765811920166,46.53096008300781, 34.00941467285156
260,2182766294,0.9013203,0.0036891075,-0.39985394,0.16650899,9.180909156799316,-2.5088138580322266,7.9228692054748535,19.904205322265625,63.40944290161133, 39.027992248535156
261,2182782961,0.9047157,0.0014149348,-0.38925293,0.17311761,8.97657585144043,-1.8559226989746094,7.976194381713867,16.14800262451172,76.92110443115234, 42.596435546875
262,2182799628,0.90854573,-0.0010312066,-0.37695426,0.180137,9.138752937316895,-2.117546796798706,7.4673309326171875,18.215227127075195,88.86222839355469, 45.09237289428711
263,2182816295,0.9128584,-0.0030567236,-0.36252186,0.18777175,8.96121597290039,-1.6889060735702515,7.490540504455566,25.11923599243164,102.95820617675781, 47.27857208251953
264,2182832962,0.9174579,-0.006353091,-0.34650734,0.19535555,7.855070114135742,-0.7831599116325378,7.469064235687256,19.08953285217285,115.29408264160156, 49.821475982666016
265,2182849629,0.9224009,-0.010350817,-0.32850152,0.20286977,6.99119234085083,-0.5119455456733704,7.441769123077393,17.1857967376709,129.65298461914062, 50.73122787475586
266,2182866296,0.92759013,-0.015203512,-0.3086615,0.20993702,7.079603672027588,-0.3943629264831543,7.835441589355469,13.316915512084961,143.09078979492188, 49.67057418823242
267,2182882963,0.932716,-0.02049795,-0.28765762,0.2165042,6.822007179260254,-0.11518190056085587,7.55896520614624,11.092853546142578,151.10475158691406, 47.70039749145508
268,2182899630,0.93758464,-0.026221575,-0.26591444,0.2225694,6.053032875061035,-0.2678067684173584,7.350523471832275,8.381815910339355,156.10240173339844, 45.88949966430664
269,2182916297,0.9422633,-0.03067935,-0.24293268,0.22843532,5.250203609466553,0.14423561096191406,7.6020660400390625,18.010250091552734,161.89266967773438, 42.86503982543945
270,2182932964,0.94654673,-0.035357546,-0.21975213,0.23347025,5.083518028259277,0.05412660166621208,7.037972450256348,15.376397132873535,163.07870483398438, 38.57994079589844
271,2182949631,0.95053464,-0.038485654,-0.19588062,0.2379781,4.653402328491211,-0.05570109188556671,7.05720853805542,25.66385841369629,164.83229064941406, 33.51353073120117
272,2182966298,0.9541312,-0.041381665,-0.17218056,0.24140246,4.462913513183594,-0.39071908593177795,7.32817268371582,25.29456901550293,163.15777587890625, 26.762205123901367
273,2182982965,0.9573437,-0.04267809,-0.14858042,0.24412194,4.073465347290039,-0.2318577766418457,7.655717849731445,34.6484260559082,159.66714477539062, 20.898035049438477
274,2182999632,0.96009535,-0.04356649,-0.12600629,0.24584824,3.5038938522338867,0.15168605744838715,8.247427940368652,34.42313003540039,152.1201934814453, 14.457279205322266
275,2183016299,0.96240884,-0.044072047,-0.10436167,0.24685164,2.8759243488311768,-0.09501530975103378,8.224540710449219,34.562870025634766,145.23255920410156, 9.854936599731445
276,2183032966,0.9642852,-0.043958265,-0.083843775,0.24737042,2.285432815551758,-0.508431077003479,7.555013656616211,36.221248626708984,136.6090850830078, 6.62672233581543
277,2183049633,0.965846,-0.042471882,-0.064057074,0.2474557,1.7639325857162476,-0.7444810271263123,6.752344608306885,43.7099494934082,129.42227172851562, 3.2900073528289795
278,2183066300,0.9670304,-0.040346283,-0.04576957,0.24724422,1.41240656375885,-1.005590796470642,6.326747894287109,45.15923309326172,118.34095001220703, 1.2527174949645996
279,2183082967,0.9678967,-0.03713733,-0.02913612,0.24687666,0.9535461068153381,-0.99297696352005,5.953198432922363,49.42598342895508,105.48458099365234, -0.04069412499666214
280,2183099634,0.9684571,-0.033951312,-0.014174082,0.2464496,0.12486252933740616,-0.21242523193359375,6.30942440032959,46.363861083984375,94.38323974609375, -0.33625665307044983
281,2183116301,0.96875405,-0.031374894,-0.0010001243,0.24602887,-0.45514193177223206,-0.40942633152008057,6.4686279296875,39.19759750366211,83.47850036621094, -0.20366549491882324
282,2183132968,0.96890426,-0.029073525,0.0100818975,0.24551521,-0.7905597686767578,-0.5397796034812927,5.903995037078857,33.790279388427734,70.004638671875, -1.0227240324020386
283,2183149635,0.9690537,-0.026142584,0.01920439,0.2447098,-1.1613099575042725,-0.8053110837936401,5.243159294128418,34.702919006347656,55.91250228881836, -3.3118879795074463
284,2183166302,0.969171,-0.023276005,0.0263911,0.24386376,-1.3329912424087524,-0.4958347976207733,5.008186340332031,31.03975486755371,43.0870475769043, -3.8864707946777344
285,2183182969,0.96924645,-0.020494817,0.03164924,0.24318665,-1.286025881767273,-0.4387796223163605,4.360113143920898,27.21103286743164,30.306243896484375, -3.0172064304351807
286,2183199636,0.9693529,-0.01572377,0.0353494,0.24260795,-1.5716955661773682,-0.399255633354187,3.473524332046509,37.861141204833984,16.525598526000977, -2.2021162509918213
287,2183216303,0.9695624,-0.008883765,0.036925733,0.24188098,-1.782432198524475,-0.7961269021034241,3.5105769634246826,48.167049407958984,-1.1561921834945679, -3.0866496562957764
288,2183232970,0.9696792,-0.00080425723,0.035928916,0.24172488,-1.5472164154052734,-1.8799738883972168,3.419039487838745,52.03382873535156,-20.458574295043945, 1.028880000114441
289,2183249637,0.96971995,0.007983472,0.03293864,0.24185684,-2.007617235183716,-1.1056323051452637,4.864547252655029,53.4604606628418,-34.97323989868164, 3.238797903060913
290,2183266304,0.9695974,0.0164818,0.02896686,0.24242623,-1.8041194677352905,-1.0629202127456665,6.612569808959961,49.86381530761719,-41.06083679199219, 6.414750099182129
291,2183282971,0.96931857,0.02389989,0.024597539,0.24340412,-2.050203323364258,-0.0679750144481659,8.232986450195312,41.996212005615234,-41.90685272216797, 9.223294258117676
292,2183299638,0.9689161,0.030039176,0.019945312,0.24474798,-1.862735629081726,0.14929360151290894,8.372671127319336,32.97736358642578,-41.659332275390625, 11.70031452178955
293,2183316305,0.9684876,0.035227712,0.01584959,0.24604765,-2.0660042762756348,1.296931505203247,8.407496452331543,27.604345321655273,-36.44169616699219, 11.2018461227417
294,2183332972,0.9678056,0.041767444,0.01189575,0.24792399,-2.0293595790863037,-0.7736169695854187,5.496590614318848,36.79905700683594,-37.71631622314453, 15.585830688476562
295,2183349639,0.9667326,0.044335134,-0.0014258273,0.25191405,0.8597165942192078,-6.370121955871582,-13.047788619995117,-5.607515335083008,-92.74612426757812, 32.68304443359375
296,2183366306,0.9656297,0.046410464,-0.029531028,0.25403416,19.589054107666016,-2.157627582550049,-7.627671718597412,-34.24460220336914,-190.69021606445312, 24.755592346191406
297,2183382973,0.9627429,0.060040798,-0.05290156,0.25830734,3.036511182785034,-0.7780015468597412,13.082350730895996,51.840885162353516,-178.054931640625, 38.159423828125
298,2183399640,0.9594349,0.0730704,-0.075346954,0.2616645,4.616452217102051,1.9452340602874756,3.8226804733276367,49.427154541015625,-171.3232879638672, 32.58846664428711
299,2183416307,0.95624197,0.08793082,-0.09538032,0.26224434,1.7606271505355835,0.6652610898017883,2.1072356700897217,64.25695037841797,-159.84552001953125, 11.844396591186523
300,2183432974,0.95335764,0.10113713,-0.111775175,0.2615092,2.0654354095458984,1.75724196434021,5.2758355140686035,58.849674224853516,-133.47381591796875, 1.4723219871520996
301,2183449641,0.9506512,0.111766845,-0.12662613,0.26026222,5.113411903381348,1.2111191749572754,8.97839069366455,44.14258575439453,-118.91586303710938, -1.3338825702667236
302,2183466308,0.9480129,0.11838272,-0.14108667,0.25952226,6.770290851593018,1.5438628196716309,10.312381744384766,18.981422424316406,-108.61605072021484, 5.0079779624938965
303,2183482975,0.9452841,0.123108305,-0.1551939,0.2592239,7.63531494140625,1.0370428562164307,10.056340217590332,7.777160167694092,-102.5123519897461, 9.535882949829102
304,2183499642,0.94263244,0.124578655,-0.1700164,0.25887975,9.024752616882324,1.401033878326416,8.320761680603027,-14.756065368652344,-101.12933349609375, 13.124622344970703
305,2183516309,0.9402766,0.12300151,-0.18418829,0.25850603,8.292668342590332,3.0175201892852783,8.380434036254883,-33.65502166748047,-90.89651489257812, 15.360218048095703
306,2183532976,0.9378413,0.11819656,-0.19931453,0.25837445,8.187363624572754,2.8182761669158936,8.950124740600586,-55.934810638427734,-91.01033020019531, 21.98283576965332
307,2183549643,0.9348819,0.10942037,-0.21718399,0.25856203,8.153841018676758,3.056273937225342,10.061723709106445,-85.63211059570312,-101.92364501953125, 32.68368148803711
308,2183566310,0.9317044,0.098994695,-0.23604515,0.25770077,8.961312294006348,3.0908467769622803,10.517616271972656,-99.48890686035156,-106.34699249267578, 29.616851806640625
309,2183582977,0.9290017,0.0870255,-0.25364754,0.25504002,9.752750396728516,2.0445332527160645,10.773069381713867,-110.48957061767578,-95.86221313476562, 19.000911712646484
310,2183599644,0.9268234,0.07407417,-0.26961315,0.25063977,9.206499099731445,1.2599883079528809,11.925629615783691,-117.305908203125,-83.66278076171875, 7.812875747680664
311,2183616311,0.9248874,0.06058262,-0.2839451,0.24553715,8.453967094421387,-0.9177049398422241,10.800174713134766,-119.40992736816406,-72.16376495361328, 3.1983044147491455
312,2183632978,0.9228556,0.047613274,-0.29703048,0.24050705,8.113431930541992,-2.689798593521118,10.327866554260254,-113.77464294433594,-65.22830963134766, 2.343313217163086
313,2183649645,0.92034984,0.03705358,-0.30943125,0.23629606,8.014312744140625,-3.0308570861816406,9.791441917419434,-95.43551635742188,-65.53792572021484, 3.1869144439697266
314,2183666312,0.91758716,0.027018186,-0.32187644,0.23173174,7.980374813079834,-2.502110004425049,10.972412109375,-92.78895568847656,-67.28012084960938, 0.26143452525138855
315,2183682979,0.9145774,0.018019157,-0.3339723,0.22734542,6.871809959411621,-2.9274327754974365,10.60151195526123,-85.21121215820312,-67.27117919921875, -0.5679339170455933
316,2183699646,0.91155976,0.008576975,-0.34560823,0.22257674,7.536542892456055,-3.0384018421173096,11.434494018554688,-88.10658264160156,-63.834232330322266, -2.0018186569213867
317,2183716313,0.90886945,0.00008285135,-0.35551962,0.21808785,7.217286109924316,-3.406177282333374,9.826040267944336,-78.84722137451172,-53.777828216552734, -3.1101088523864746
318,2183732980,0.90522325,-0.008683138,-0.36804542,0.21222185,6.588173866271973,-3.066523790359497,8.154346466064453,-87.79037475585938,-72.11114501953125, -9.633363723754883
319,2183749647,0.9005464,-0.020736,-0.3835376,0.2036795,8.527495384216309,-1.5056241750717163,7.211339473724365,-119.38247680664062,-88.27274322509766, -16.6428279876709
320,2183766314,0.89566433,-0.028067172,-0.3984257,0.19558837,6.810861587524414,-2.7765824794769287,8.891279220581055,-88.17325592041016,-91.69851684570312, -25.847373962402344
321,2183782981,0.89116704,-0.031830925,-0.41173443,0.1878374,6.755031585693359,-0.9015188217163086,10.714459419250488,-63.093013763427734,-85.87945556640625, -33.73775100708008
322,2183799648,0.88741654,-0.036419757,-0.42306665,0.17938797,6.313941955566406,-1.2232009172439575,10.39072322845459,-67.52096557617188,-70.62958526611328, -36.149940490722656
323,2183816315,0.8847149,-0.03941908,-0.4313734,0.1721708,6.533233642578125,-3.509653091430664,10.515325546264648,-50.343318939208984,-51.600616455078125, -33.749698638916016
324,2183832982,0.8828064,-0.03852838,-0.4370412,0.16781883,6.913243770599365,-4.865976333618164,11.00496768951416,-14.86790657043457,-38.79648971557617, -28.139951705932617
325,2183849649,0.8817277,-0.03290754,-0.44029096,0.16618517,7.045154571533203,-4.578020095825195,12.368027687072754,25.043087005615234,-28.04168128967285, -26.2900447845459
326,2183866316,0.8813419,-0.025904376,-0.44180265,0.1654572,6.557551383972168,-3.625392436981201,12.305318832397461,38.306312561035156,-17.4873104095459, -25.499670028686523
327,2183882983,0.88153964,-0.018356837,-0.4417779,0.16547875,6.05493688583374,-2.900254249572754,10.683051109313965,45.71332931518555,-7.4710259437561035, -23.086301803588867
328,2183899650,0.88197315,-0.0128345955,-0.44113675,0.16540015,6.447219371795654,-2.328019142150879,9.347268104553223,33.8502311706543,-0.9635162353515625, -17.790246963500977
329,2183916317,0.88296247,-0.008694846,-0.43930504,0.1652662,6.582547664642334,-2.315030097961426,7.878848075866699,26.68453598022461,9.33130931854248, -14.494175910949707
330,2183932984,0.88418424,-0.0073780827,-0.43749452,0.16359219,7.220493793487549,-1.9397823810577393,8.302362442016602,4.891783237457275,13.08773136138916, -15.611438751220703
331,2183949651,0.8854683,-0.0082728695,-0.43587887,0.16089484,7.261824131011963,-2.4490151405334473,7.028749942779541,-11.854362487792969,14.522143363952637, -15.271705627441406
332,2183966318,0.8868367,-0.01018776,-0.43416977,0.15784009,7.2481465339660645,-2.560072183609009,7.873374938964844,-19.008045196533203,16.446929931640625, -14.511712074279785
333,2183982985,0.88778317,-0.010843037,-0.43311986,0.15534097,7.669391632080078,-3.344353437423706,5.93651008605957,-10.389217376708984,9.681838035583496, -14.50314712524414
334,2183999652,0.88821095,-0.009844841,-0.43286306,0.15366922,7.543508529663086,-3.5879781246185303,6.014296531677246,1.3404096364974976,1.4870421886444092, -13.945137977600098
335,2184016319,0.8885348,-0.009322365,-0.43266714,0.15237662,7.70216178894043,-2.7585954666137695,8.495501518249512,-0.44188329577445984,1.2932690382003784, -10.182140350341797
336,2184032986,0.888591,-0.009827966,-0.4328956,0.15136385,8.131462097167969,-2.9726176261901855,8.518599510192871,-6.3344197273254395,-1.1242314577102661, -5.203452110290527
337,2184049653,0.88892734,-0.009150589,-0.4322971,0.15114158,9.307055473327637,-4.152687072753906,7.554931163787842,4.1541056632995605,3.4024109840393066, -4.173065662384033
338,2184066320,0.8896444,-0.0042364122,-0.43037906,0.15260607,10.320938110351562,-4.651864051818848,6.255290985107422,36.532562255859375,8.092329025268555, -6.846347808837891
339,2184082987,0.8906243,0.0037606661,-0.4272025,0.15579642,10.222088813781738,-4.67103910446167,5.516734600067139,61.92837142944336,13.367953300476074, -5.73919677734375
340,2184099654,0.8917666,0.012135518,-0.42303598,0.16014268,9.48687744140625,-3.097360849380493,6.920750141143799,68.80760955810547,19.638715744018555, -0.0607416070997715
341,2184116321,0.8928506,0.01722439,-0.41889453,0.16446431,9.442017555236816,-2.8163812160491943,8.256688117980957,48.621238708496094,22.957334518432617, 9.370219230651855
342,2184132988,0.8941873,0.019249441,-0.41415235,0.16892754,10.117956161499023,-3.603020668029785,7.742136001586914,30.915372848510742,30.831077575683594, 18.67616844177246
343,2184149655,0.8960752,0.020082368,-0.4077685,0.17427331,10.33110237121582,-3.4503750801086426,7.6678314208984375,28.013681411743164,44.0229606628418, 26.584373474121094
344,2184166322,0.89867246,0.019416554,-0.39941293,0.18022275,9.892946243286133,-2.5925631523132324,7.818988800048828,22.819198608398438,60.08356475830078, 33.34381866455078
345,2184182989,0.9018246,0.0172297,-0.38938892,0.18652649,9.745491981506348,-2.1749911308288574,7.791991710662842,16.440614700317383,73.88070678710938, 38.79425048828125
346,2184199656,0.90543926,0.015098514,-0.3774218,0.19366193,9.699357986450195,-1.9689271450042725,7.43161678314209,21.497663497924805,87.2337417602539, 43.00205612182617
347,2184216323,0.9094827,0.012830007,-0.36351717,0.2013256,9.679946899414062,-1.461937427520752,7.5560503005981445,24.59083366394043,100.7104721069336, 45.911231994628906
348,2184232990,0.9138249,0.010183897,-0.34792078,0.20921728,9.564273834228516,-1.1014142036437988,7.619490623474121,25.13953399658203,112.65396118164062, 47.77695846557617
349,2184249657,0.9184211,0.0065374575,-0.33050498,0.2173169,8.755502700805664,-0.36587604880332947,8.309381484985352,21.965991973876953,126.23393249511719, 51.06462860107422
350,2184266324,0.923122,0.00020514954,-0.31199527,0.22473268,7.893372535705566,0.5570709109306335,8.528777122497559,5.055929660797119,137.41891479492188, 52.74053192138672
351,2184282991,0.92789716,-0.007494371,-0.29232353,0.23129614,7.004523277282715,0.9184126853942871,8.228663444519043,-3.7187047004699707,147.10528564453125, 50.27579116821289
352,2184299658,0.9325816,-0.016022151,-0.2716292,0.237176,6.4655680656433105,0.5983893275260925,8.151307106018066,-8.842042922973633,154.83941650390625, 47.8997917175293
353,2184316325,0.93699574,-0.02533237,-0.25022697,0.24245414,5.8450798988342285,1.242432951927185,7.9047722816467285,-13.934606552124023,160.25978088378906, 46.13807678222656
354,2184332992,0.9411276,-0.03393811,-0.22827347,0.24701895,5.1090288162231445,0.4959767162799835,7.419611930847168,-9.86369800567627,162.3221435546875, 41.02085494995117
355,2184349659,0.94518393,-0.03838772,-0.20510688,0.25116736,4.9667768478393555,-0.0462382435798645,6.979520320892334,18.339025497436523,163.1400146484375, 32.3040885925293
356,2184366326,0.9490526,-0.03978814,-0.18088023,0.2549483,4.45058536529541,-0.11963368952274323,7.850642681121826,39.360233306884766,164.6698760986328, 26.28905487060547
357,2184382993,0.9525124,-0.040219683,-0.15689567,0.2578495,3.95574951171875,-0.036583445966243744,8.027558326721191,43.9886474609375,161.17832946777344, 20.050064086914062
358,2184399660,0.9555989,-0.039498735,-0.13340358,0.2597582,3.724205255508423,0.01704481616616249,8.37791919708252,49.42276382446289,155.8316192626953, 12.878122329711914
359,2184416327,0.9581454,-0.038745318,-0.11118225,0.2609498,3.24992036819458,-0.43303415179252625,7.825571060180664,46.49222946166992,147.17860412597656, 8.793216705322266
360,2184432994,0.9602169,-0.03788481,-0.09010379,0.2615907,2.6370737552642822,-0.7467564940452576,8.198532104492188,44.55887222290039,139.30047607421875, 5.651401042938232
361,2184449661,0.96194595,-0.03604462,-0.07030624,0.26156837,1.7693425416946411,-0.7139062881469727,7.411182403564453,48.20107650756836,129.08441162109375, 0.9707288146018982
362,2184466328,0.9633123,-0.033638656,-0.05195789,0.26114836,1.6025828123092651,-1.6527209281921387,7.022870063781738,49.03790283203125,118.42868041992188, -1.6417155265808105
363,2184482995,0.9643021,-0.031558577,-0.035002854,0.26057714,1.0008816719055176,-0.4280119836330414,6.653603553771973,44.27254104614258,109.71607208251953, -2.169349193572998
364,2184499662,0.9649388,-0.031592418,-0.020422855,0.25976548,0.3876625895500183,-0.3725884258747101,6.514560699462891,25.85034942626953,97.73542022705078, -3.127243995666504
365,2184516329,0.96530914,-0.033030074,-0.008139297,0.25888404,-0.14413130283355713,-0.24835920333862305,5.71049165725708,12.351694107055664,84.97763061523438, -3.419294834136963
366,2184532996,0.9655311,-0.03547181,0.002313747,0.25784916,-0.6857460737228394,-0.4058200716972351,5.902048587799072,2.3702781200408936,74.61705780029297, -4.515390872955322
367,2184549663,0.96567065,-0.037487123,0.011036966,0.25681373,-0.8474972248077393,-1.0029411315917969,5.247956275939941,2.1051433086395264,62.33617401123047, -4.790896415710449
368,2184566330,0.96576625,-0.03710283,0.018739874,0.25606287,-1.027715802192688,-1.4123300313949585,4.932929992675781,16.224109649658203,51.2097282409668, -2.9007699489593506
369,2184582997,0.9658708,-0.033760224,0.025280796,0.25556788,-1.273438572883606,-1.241437554359436,4.098176002502441,33.83335876464844,38.17081832885742, -1.1334619522094727
370,2184599664,0.96603996,-0.026635263,0.030516606,0.25519904,-1.3195239305496216,-0.8725001215934753,3.0086257457733154,56.68918228149414,22.758634567260742, -0.06165056303143501
371,2184616331,0.9661515,-0.017027374,0.03416492,0.25513595,-1.6172629594802856,-0.5397972464561462,3.5199356079101562,70.34635925292969,7.752147197723389, 2.290539264678955
372,2184632998,0.96615094,-0.006767281,0.035759628,0.25539744,-1.8371052742004395,-0.4889198839664459,3.6346747875213623,70.9993667602539,-7.118434906005859, 4.542500019073486
373,2184649665,0.96614337,0.0034937775,0.03477655,0.25562724,-1.7863496541976929,-0.9134463667869568,3.907177448272705,66.49972534179688,-24.32251739501953, 4.212421894073486
374,2184666332,0.96612835,0.013506999,0.031391807,0.25578952,-1.7171517610549927,-0.8844844698905945,5.268901348114014,60.68426513671875,-39.91783142089844, 3.7670392990112305
375,2184682999,0.96601033,0.02145559,0.026234902,0.25627285,-1.4127345085144043,-0.43747687339782715,6.908807754516602,43.831932067871094,-48.077110290527344, 5.792750835418701
376,2184699666,0.96565974,0.027869975,0.019739797,0.25755587,-1.5731759071350098,-1.691838264465332,6.67467737197876,31.19932746887207,-54.15763854980469, 11.429758071899414
377,2184716333,0.96493244,0.034293715,0.0063008456,0.26017308,-0.24000290036201477,-4.369974136352539,-9.662789344787598,18.940658569335938,-100.0406723022461, 22.272165298461914
378,2184733000,0.9641309,0.037272807,-0.022563595,0.2618274,14.584428787231445,0.04422739893198013,-13.416577339172363,-31.296838760375977,-196.4825897216797, 19.46552276611328
379,2184749667,0.961765,0.05013651,-0.049829468,0.26459697,2.695059299468994,1.60580313205719,14.6225004196167,37.630550384521484,-202.9629364013672, 27.63916778564453
380,2184766334,0.9581141,0.06255137,-0.075105764,0.26919127,5.208230972290039,-0.7667444348335266,4.091031551361084,39.30598068237305,-188.760009765625, 41.45832824707031
381,2184783001,0.9543228,0.07785574,-0.09872425,0.2710349,2.0462634563446045,0.25862905383110046,2.59458065032959,60.07783889770508,-184.2616424560547, 21.298898696899414
382,2184799668,0.9505985,0.09009384,-0.11840508,0.27244422,0.5109097361564636,-1.9225032329559326,5.434340476989746,46.94002914428711,-152.8472900390625, 18.247533798217773
383,2184816335,0.94696295,0.1003764,-0.1345412,0.27401558,3.858245611190796,-1.4322658777236938,8.382489204406738,40.95594787597656,-125.90172576904297, 18.47296142578125
384,2184833002,0.9435289,0.10723437,-0.14893432,0.2758129,5.5802459716796875,-1.0798265933990479,8.491690635681152,22.085336685180664,-107.725830078125, 21.451704025268555
385,2184849669,0.9400987,0.11268181,-0.16208154,0.27793357,7.132019519805908,0.5975928902626038,10.037285804748535,15.690035820007324,-96.63851928710938, 24.001501083374023
386,2184866336,0.9363526,0.116051584,-0.17744139,0.27980444,8.82975959777832,3.284691333770752,7.090200901031494,-1.9982352256774902,-107.4069595336914, 26.970535278320312
387,2184883003,0.93234915,0.11731732,-0.19481747,0.28108406,8.600064277648926,5.0830254554748535,6.603451251983643,-20.062475204467773,-116.91938781738281, 27.81929588317871
388,2184899670,0.92813766,0.115658246,-0.21411109,0.281674,9.55118179321289,4.058386325836182,9.09538745880127,-43.45487976074219,-124.20308685302734, 29.327627182006836
389,2184916337,0.9239908,0.11291245,-0.2334414,0.2810641,10.61213207244873,2.576753616333008,10.143651008605957,-52.4108772277832,-123.0270767211914, 23.224546432495117
390,2184933004,0.920707,0.10795936,-0.25091946,0.27871698,11.008920669555664,2.5262320041656494,10.454500198364258,-66.38957214355469,-106.7912368774414, 12.665143966674805
391,2184949671,0.9181459,0.09903112,-0.2679619,0.27458546,11.58045768737793,2.042149543762207,11.386998176574707,-94.41342163085938,-96.3421859741211, 6.585058212280273
392,2184966338,0.9162694,0.0871578,-0.28381163,0.26889524,10.21741771697998,1.3833346366882324,12.516162872314453,-114.15514373779297,-82.9220962524414, 0.16183876991271973
393,2184983005,0.91460925,0.07262272,-0.29877442,0.2625829,9.314962387084961,-1.3212220668792725,10.931868553161621,-130.67918395996094,-72.32990264892578, 0.6076257824897766
394,2184999672,0.9127002,0.059101433,-0.3123245,0.2567861,8.272595405578613,-2.299832820892334,9.871942520141602,-120.5388412475586,-65.50249481201172, 1.5613449811935425
395,2185016339,0.9103342,0.047551278,-0.32542637,0.25125337,7.706101894378662,-3.184035062789917,8.99991226196289,-106.5745849609375,-67.04022979736328, -0.3643482029438019
396,2185033006,0.90790176,0.038351852,-0.3374714,0.2456763,8.11429500579834,-1.6562485694885254,11.201045989990234,-90.0447006225586,-64.65289306640625, -6.132984161376953
397,2185049673,0.90544176,0.029024722,-0.34913594,0.2396601,8.054289817810059,-2.0537073612213135,11.701103210449219,-91.2110595703125,-62.30338668823242, -8.591651916503906
398,2185066340,0.90301114,0.01770235,-0.36020544,0.23347297,7.784623146057129,-1.8102294206619263,12.637812614440918,-103.07048797607422,-55.362552642822266, -5.001838684082031
399,2185083007,0.9005183,0.0040626395,-0.37106988,0.22662234,7.626534938812256,-2.849461555480957,11.221761703491211,-118.7821273803711,-50.73949432373047, -3.254143476486206
400,2185099674,0.89733344,-0.008247726,-0.38289443,0.2193547,7.073453903198242,-2.9278316497802734,7.485878944396973,-113.0861587524414,-60.63911819458008, -8.101360321044922
401,2185116341,0.8929199,-0.019495994,-0.39677542,0.2118565,8.173770904541016,-2.7911412715911865,6.046709060668945,-110.29153442382812,-78.18054962158203, -10.56509017944336
402,2185133008,0.88817453,-0.024373947,-0.40997902,0.2060805,7.8422698974609375,-4.298929214477539,6.223817825317383,-65.52188873291016,-84.40338897705078, -16.775012969970703
403,2185149675,0.88386554,-0.024991455,-0.421342,0.20156449,6.657256603240967,-1.2710436582565308,9.390918731689453,-33.22679901123047,-78.17008972167969, -21.444276809692383
404,2185166342,0.88001823,-0.026780969,-0.43133852,0.1969727,6.59621000289917,-2.4229085445404053,10.708582878112793,-38.658687591552734,-67.02007293701172, -18.888084411621094
405,2185183009,0.87702763,-0.027311912,-0.43878028,0.19377483,6.645177841186523,-3.6104137897491455,11.710577964782715,-23.331064224243164,-51.15868377685547, -14.884550094604492
406,2185199676,0.87486804,-0.027720517,-0.44426984,0.19095008,6.474822521209717,-3.0959508419036865,12.358036041259766,-18.733266830444336,-37.322208404541016, -13.794017791748047
407,2185216343,0.8734024,-0.029180001,-0.4482597,0.18809591,6.298381328582764,-3.853581666946411,12.597200393676758,-23.07841682434082,-25.034225463867188, -11.418054580688477
408,2185233010,0.87316084,-0.02792706,-0.4495036,0.18643256,6.080395221710205,-3.461052656173706,11.835846900939941,0.653783917427063,-8.765875816345215, -13.719926834106445
409,2185249677,0.8733386,-0.026333407,-0.44991532,0.1848316,5.677462577819824,-2.0849852561950684,9.2017240524292,4.016670227050781,-3.151491641998291, -14.826629638671875
410,2185266344,0.87376106,-0.026090402,-0.44996828,0.18272857,6.559037685394287,-2.7479918003082275,8.27569580078125,-5.179493427276611,1.4131497144699097, -13.924137115478516
411,2185283011,0.8748558,-0.023355156,-0.44834107,0.18185759,6.637335300445557,-2.7076363563537598,7.148223876953125,15.830119132995605,10.129822731018066, -14.800366401672363
412,2185299678,0.8764255,-0.018391509,-0.44564113,0.18150486,7.493997097015381,-2.6494123935699463,7.334227085113525,32.24755859375,15.110881805419922, -19.00163459777832
413,2185316345,0.8777404,-0.01458315,-0.44367397,0.1803124,8.000856399536133,-2.5151679515838623,7.170680999755859,21.77307891845703,11.411323547363281, -20.310583114624023
414,2185333012,0.8790967,-0.010789242,-0.44154176,0.17920288,8.12067699432373,-2.6325676441192627,6.6059184074401855,22.153688430786133,12.511969566345215, -19.81032943725586
415,2185349679,0.87985754,-0.006718547,-0.4406681,0.1778126,8.345890045166016,-2.590102195739746,6.296520233154297,21.388307571411133,2.76853084564209, -21.72576332092285
416,2185366346,0.8800305,-0.0032994077,-0.44111,0.1759476,8.335636138916016,-2.725534439086914,6.198342800140381,14.386758804321289,-6.145756721496582, -21.981565475463867
417,2185383013,0.87983614,-0.0009856196,-0.4422482,0.17408137,8.167337417602539,-3.0885491371154785,7.383245468139648,6.865848064422607,-10.126983642578125, -18.228639602661133
418,2185399680,0.8795336,0.001510158,-0.44315955,0.17328586,8.71452522277832,-3.508164167404175,8.607088088989258,11.510212898254395,-9.337709426879883, -12.212738990783691
419,2185416347,0.8794305,0.0039093844,-0.44356295,0.17273888,9.720691680908203,-3.645671844482422,8.670389175415039,12.320995330810547,-5.596086025238037, -10.697091102600098
420,2185433014,0.8796685,0.0074180285,-0.44291314,0.17307906,10.151983261108398,-4.7737836837768555,7.430605411529541,22.985340118408203,0.48808303475379944, -9.208066940307617
421,2185449681,0.88029027,0.0136693055,-0.44079402,0.17493682,10.314675331115723,-4.852676868438721,6.086772441864014,46.01948547363281,7.360194206237793, -8.958816528320312
422,2185466348,0.8811194,0.022269394,-0.43711266,0.17906855,9.840547561645508,-4.249035358428955,7.225165367126465,69.04071807861328,14.882833480834961, -2.8009257316589355
423,2185483015,0.8819997,0.029165102,-0.43280885,0.18412644,9.957789421081543,-3.3438808917999268,8.815563201904297,62.32048416137695,21.048309326171875, 7.715951442718506
424,2185499682,0.8830825,0.032555774,-0.42797765,0.18958016,10.15056037902832,-3.5107743740081787,9.001302719116211,42.907161712646484,29.327619552612305, 20.148149490356445
425,2185516349,0.8846961,0.033370122,-0.42176455,0.19573946,10.680153846740723,-3.642056941986084,7.749835968017578,31.065391540527344,42.76390838623047, 30.971458435058594
426,2185533016,0.8872674,0.033824984,-0.4128542,0.2028896,9.916187286376953,-2.33186936378479,7.8140130043029785,35.22075653076172,62.67637634277344, 36.10179901123047
427,2185549683,0.89062715,0.03249725,-0.40197733,0.210099,9.5223970413208,-1.868208408355713,8.124415397644043,27.106788635253906,79.41656494140625, 39.97105407714844
428,2185566350,0.89469117,0.029751148,-0.38902512,0.21749093,9.79340648651123,-1.4994229078292847,7.961385726928711,21.78546142578125,96.15877532958984, 43.545902252197266
429,2185583017,0.8991691,0.025983628,-0.3745687,0.22476251,9.778599739074707,-1.092536211013794,7.8481974601745605,17.358510971069336,108.04332733154297, 44.64563751220703
430,2185599684,0.90386045,0.021478621,-0.35873276,0.23213358,9.34146785736084,-0.8676455020904541,7.67110013961792,15.150843620300293,118.31578826904297, 46.627685546875
431,2185616351,0.9087957,0.016197598,-0.3412568,0.23952435,8.281471252441406,-0.1544068455696106,7.506834983825684,12.960728645324707,130.39511108398438, 48.091087341308594
432,2185633018,0.9139423,0.009795927,-0.3221049,0.2467029,7.947962760925293,0.42518898844718933,7.869518756866455,8.174077033996582,143.22113037109375, 48.9239616394043
433,2185649685,0.9189143,0.002643409,-0.30228233,0.2534068,7.699380397796631,0.35510995984077454,7.31439208984375,3.514049768447876,148.3252716064453, 47.93233871459961
434,2185666352,0.92375076,-0.0037750236,-0.28136906,0.25981122,7.017695426940918,0.3797459900379181,7.148660182952881,9.39555835723877,153.7051239013672, 44.80668640136719
435,2185683019,0.92834055,-0.010369791,-0.2599513,0.26552156,5.899101257324219,0.24840478599071503,6.924124240875244,7.785608291625977,156.81906127929688, 41.26113510131836
436,2185699686,0.9328162,-0.015722314,-0.23729981,0.27073222,5.105040550231934,0.6176767349243164,7.249170780181885,17.027074813842773,162.29843139648438, 36.20701217651367
437,2185716353,0.93697923,-0.02151407,-0.21432866,0.27508232,4.72295618057251,0.49760934710502625,7.560405254364014,13.313164710998535,164.77638244628906, 32.07725143432617
438,2185733020,0.9409558,-0.026743252,-0.19076848,0.2783786,4.289033889770508,0.6584256291389465,7.287397384643555,16.41677474975586,167.41497802734375, 24.94623565673828
439,2185749687,0.9446657,-0.030966032,-0.16669174,0.28082386,4.006655216217041,0.3609071671962738,7.11484956741333,22.693626403808594,168.6680450439453, 18.77166175842285
440,2185766354,0.9480202,-0.034797955,-0.14272295,0.28227147,3.5037460327148438,0.2267388552427292,7.912549018859863,23.754756927490234,167.0551300048828, 12.538851737976074
441,2185783021,0.9508649,-0.03812864,-0.11953323,0.28304473,3.067662477493286,-0.23357713222503662,7.795159339904785,24.67633056640625,160.69207763671875, 8.4776029586792
442,2185799688,0.95320684,-0.04028779,-0.097353116,0.28336576,2.804763078689575,-0.806315541267395,7.272265911102295,29.834321975708008,151.54347229003906, 5.291574001312256
443,2185816355,0.9550858,-0.041363213,-0.07642314,0.28330177,2.3833768367767334,-0.8334547281265259,7.33720588684082,34.1033935546875,141.06967163085938, 2.6078996658325195
444,2185833022,0.9566207,-0.039901264,-0.056395542,0.28302762,1.6698963642120361,-1.421950340270996,6.517581462860107,48.791534423828125,130.11080932617188, 0.32007163763046265
445,2185849689,0.95776707,-0.036359444,-0.037436597,0.28276992,1.2643986940383911,-1.5917890071868896,6.160001754760742,60.305870056152344,118.9014663696289, 0.0730712041258812
446,2185866356,0.95850194,-0.031907786,-0.019659316,0.28261214,0.8211202025413513,-0.8758839964866638,6.604065895080566,63.94746398925781,109.23600769042969, 1.0051311254501343
447,2185883023,0.9588015,-0.029039184,-0.0039697606,0.2825611,0.27546191215515137,-0.19221678376197815,5.759588241577148,49.380863189697266,98.47854614257812, 2.305734634399414
448,2185899690,0.9588869,-0.027808316,0.009227101,0.28227222,-0.3104521930217743,0.0053374990820884705,5.691783905029297,33.6811408996582,85.2655258178711, 0.7010723948478699
449,2185916357,0.95881957,-0.028084379,0.019676996,0.28193834,-0.921748697757721,-0.10384316742420197,5.346494674682617,18.374231338500977,70.08153533935547, 0.07752467691898346
450,2185933024,0.9587264,-0.028452339,0.028468866,0.28146708,-1.210675597190857,-0.5684741139411926,5.428524971008301,14.559186935424805,59.32837677001953, -1.1098383665084839
451,2185949691,0.95859855,-0.028098656,0.035850532,0.28109488,-1.6490614414215088,-0.133707657456398,4.711874485015869,16.56654167175293,48.58802795410156, -0.5181624293327332
452,2185966358,0.9585104,-0.026347956,0.041157316,0.28083763,-1.6438769102096558,-0.37593939900398254,3.2680068016052246,21.73847198486328,32.1341438293457, 0.10014618933200836
453,2185983025,0.9586482,-0.021667005,0.04448673,0.28025913,-1.620603084564209,-0.15332913398742676,2.664398431777954,37.367340087890625,13.391552925109863, -1.9843294620513916
454,2185999692,0.95885414,-0.014491692,0.045490354,0.27985618,-1.6653720140457153,-0.8318378925323486,2.120342493057251,49.28196334838867,-6.838497638702393, -0.5478860139846802
455,2186016359,0.95909244,-0.00572131,0.04416273,0.2795693,-2.2238881587982178,-0.5160764455795288,3.406681776046753,55.29930114746094,-25.346771240234375, 0.417915016412735
456,2186033026,0.9592475,0.0032667818,0.04029719,0.27966034,-1.7838023900985718,-1.0227208137512207,4.433091640472412,51.75102996826172,-42.55162811279297, 3.0312018394470215
457,2186049693,0.95927155,0.011310343,0.03524056,0.28005072,-1.628644585609436,-0.3280493915081024,6.968066215515137,43.180213928222656,-48.59358215332031, 5.016540050506592
458,2186066360,0.9590183,0.019215409,0.028744033,0.28122663,-1.3010032176971436,-1.9520792961120605,6.08643913269043,39.33781051635742,-57.7326545715332, 10.812918663024902
459,2186083027,0.95832056,0.025653994,0.014184487,0.28418732,0.3213852345943451,-5.632992267608643,-9.517508506774902,13.844842910766602,-107.7735824584961, 24.203222274780273
460,2186099694,0.957701,0.029064074,-0.015626678,0.2858674,14.50351619720459,-0.8011534810066223,-12.316555976867676,-35.664527893066406,-202.60601806640625, 17.991981506347656
461,2186116361,0.9555979,0.042641956,-0.04291436,0.288397,2.4008278846740723,2.0247435569763184,15.260367393493652,36.6351203918457,-205.55093383789062, 24.847084045410156
462,2186133028,0.95229876,0.05289944,-0.06930033,0.29244906,4.016066074371338,-0.19822320342063904,6.946289539337158,17.360733032226562,-192.92367553710938, 37.905067443847656
463,2186149695,0.9487196,0.066250086,-0.09412565,0.29441893,1.963484764099121,-0.9185200929641724,1.5962085723876953,39.87107849121094,-189.7423095703125, 22.756986618041992
464,2186166362,0.9448851,0.078495644,-0.11466242,0.2964511,0.3602214753627777,-1.9834351539611816,6.250563144683838,41.51200866699219,-159.63075256347656, 22.39753532409668
465,2186183029,0.94105905,0.08934248,-0.13174333,0.2984455,3.9507622718811035,-0.9074874520301819,7.564554214477539,39.484256744384766,-134.3887939453125, 21.337329864501953
466,2186199696,0.93754333,0.09630002,-0.14778315,0.29983205,5.817982196807861,-0.5212000012397766,8.053085327148438,15.732617378234863,-119.73883056640625, 19.614736557006836
467,2186216363,0.93432647,0.1010875,-0.16162182,0.30115435,6.205620288848877,0.946045458316803,8.60909366607666,6.028128623962402,-100.75894165039062, 19.306413650512695
468,2186233030,0.9309643,0.10393476,-0.17553957,0.30280235,7.633358001708984,1.6984351873397827,7.930721282958984,-6.16826868057251,-97.14198303222656, 23.892518997192383
469,2186249697,0.9272925,0.10329937,-0.19233358,0.304082,8.817322731018066,2.4700489044189453,6.560855388641357,-34.72004318237305,-108.86897277832031, 28.442401885986328
470,2186266364,0.92305964,0.10258009,-0.21068184,0.30504328,9.262688636779785,4.400982856750488,8.410475730895996,-38.59693145751953,-119.47534942626953, 28.816667556762695
471,2186283031,0.9183449,0.101832196,-0.23007871,0.30551073,10.087708473205566,2.932621479034424,9.977883338928223,-41.45752716064453,-127.04915618896484, 27.5245418548584
472,2186299698,0.9139146,0.09944849,-0.24896318,0.3047747,10.401886940002441,3.0037689208984375,10.224523544311523,-52.882110595703125,-120.7190170288086, 21.59004783630371
473,2186316365,0.91036016,0.09496486,-0.2664416,0.30205172,10.06252384185791,2.579681634902954,9.872138023376465,-67.19723510742188,-107.30642700195312, 9.953608512878418
474,2186333032,0.90775466,0.08777491,-0.2818625,0.29804495,9.754364013671875,1.2017213106155396,11.016169548034668,-82.8935775756836,-87.88933563232422, 3.615501880645752
475,2186349699,0.90578437,0.07789999,-0.29611135,0.2929244,9.302118301391602,-0.6367254257202148,10.440495491027832,-99.81963348388672,-74.5308837890625, -0.09195461869239807
476,2186366366,0.9039586,0.06759955,-0.30905253,0.28770772,8.290670394897461,-2.434373617172241,9.927360534667969,-100.11421203613281,-65.31327819824219, -0.793265163898468
477,2186383033,0.90197855,0.058026887,-0.32136652,0.2824741,8.386836051940918,-2.9031219482421875,9.326810836791992,-94.28663635253906,-63.2348747253418, -2.42282772064209
478,2186399700,0.89989793,0.049408726,-0.33310154,0.277103,8.510762214660645,-2.017573833465576,10.050054550170898,-87.48099517822266,-61.81397247314453, -5.421403884887695
479,2186416367,0.8975887,0.04066825,-0.34496623,0.2714392,8.236146926879883,-1.9611623287200928,11.125345230102539,-89.06859588623047,-63.05830001831055, -6.454006671905518
480,2186433034,0.8953448,0.03195061,-0.35594046,0.26578823,8.203652381896973,-2.4349334239959717,12.032872200012207,-87.25901794433594,-57.51778793334961, -6.790854454040527
481,2186449701,0.89338773,0.021644855,-0.3659525,0.25974777,9.133800506591797,-2.5976691246032715,13.204728126525879,-96.29827880859375,-48.159236907958984, -6.033087730407715
482,2186466368,0.8916297,0.010962096,-0.37432337,0.25447717,7.179547309875488,-2.823976993560791,10.044819831848145,-93.77699279785156,-36.87506103515625, -0.9414283633232117
483,2186483035,0.8888152,-0.00036720425,-0.38585982,0.2472239,6.7162017822265625,-2.470612049102783,6.466063976287842,-108.30902862548828,-58.0880012512207, -9.349135398864746
484,2186499702,0.885,-0.009330418,-0.39929023,0.23928137,8.100725173950195,-2.2849295139312744,4.969052314758301,-98.89974975585938,-76.36964416503906, -18.137243270874023
485,2186516369,0.8805659,-0.014775843,-0.41345412,0.23117314,7.936628818511963,-4.112608432769775,5.873913288116455,-79.1932373046875,-88.31019592285156, -27.81892204284668
486,2186533036,0.8762594,-0.017179646,-0.42635936,0.22381233,6.939442157745361,-1.2905503511428833,10.190168380737305,-56.63192367553711,-85.25128936767578, -32.03428268432617
487,2186549703,0.87247294,-0.021906016,-0.43800193,0.21555912,7.6753249168396,-2.373948335647583,12.12756633758545,-71.26490020751953,-72.52275085449219, -31.237401962280273
488,2186566370,0.8694985,-0.025791075,-0.44690648,0.20876323,7.678040981292725,-4.329192638397217,13.093618392944336,-57.67258071899414,-55.212833404541016, -25.817420959472656
489,2186583037,0.86769056,-0.026370225,-0.45246553,0.20418788,7.238974571228027,-4.424577236175537,14.00964641571045,-26.086149215698242,-36.86674880981445, -23.805072784423828
490,2186599704,0.86714554,-0.023278745,-0.4546999,0.20190267,6.587997913360596,-4.243705749511719,12.966558456420898,7.819275856018066,-18.779869079589844, -22.759891510009766
491,2186616371,0.8674167,-0.020680718,-0.4553282,0.19959188,5.675597190856934,-2.7153000831604004,11.983784675598145,7.163419723510742,-6.063140869140625, -22.26072120666504
492,2186633038,0.86886466,-0.018780991,-0.45341852,0.19782184,5.07176399230957,-2.901965856552124,9.265768051147461,8.319847106933594,13.555797576904297, -18.119203567504883
493,2186649705,0.870738,-0.015738592,-0.44999766,0.19766085,5.531426429748535,-3.3009843826293945,7.384105682373047,22.27320671081543,22.091894149780273, -12.462383270263672
494,2186666372,0.8733301,-0.009489146,-0.4444793,0.19910492,6.342226505279541,-2.5969491004943848,7.508252143859863,49.3749885559082,32.3138542175293, -13.537153244018555
495,2186683039,0.876057,-0.0031473807,-0.43852645,0.20052151,7.019504070281982,-1.9903391599655151,8.066865921020508,50.449554443359375,35.191131591796875, -14.143340110778809
496,2186699706,0.87860125,0.00032446557,-0.43362817,0.20006664,8.113818168640137,-1.7811853885650635,6.311830520629883,26.06027603149414,32.269378662109375, -16.52910614013672
497,2186716373,0.8810087,0.0027375377,-0.42939782,0.19857961,7.393227577209473,-1.934025526046753,6.697544097900391,15.665776252746582,29.292390823364258, -19.413619995117188
498,2186733040,0.883043,0.0030116148,-0.42643246,0.19591154,7.571878433227539,-2.604903221130371,7.789223670959473,-2.496311664581299,23.42938995361328, -19.717144012451172
499,2186749707,0.884705,0.001183459,-0.42428726,0.19307019,7.3748860359191895,-3.568298578262329,7.959872722625732,-16.859521865844727,20.18194007873535, -14.091739654541016
500,2186766374,0.8858597,-0.000041840638,-0.42286828,0.19088006,9.245835304260254,-3.6845169067382812,5.738679885864258,-12.24171257019043,13.484025955200195, -11.222492218017578
501,2186783041,0.8873257,0.0006403787,-0.42034402,0.18964177,9.29206371307373,-4.057828903198242,7.500957489013672,3.6158342361450195,18.6419734954834, -11.381061553955078
502,2186799708,0.88887995,0.003637704,-0.41728273,0.18908873,9.590816497802734,-3.5997421741485596,7.831729412078857,20.416250228881836,19.172096252441406, -14.033782005310059
503,2186816375,0.8904408,0.00941599,-0.41369227,0.1894343,10.116509437561035,-4.472732067108154,6.54013729095459,40.69526290893555,18.839797973632812, -16.54004669189453
504,2186833042,0.89182884,0.01773159,-0.40928316,0.19187136,10.23372745513916,-4.528541564941406,6.712503910064697,63.279266357421875,20.21171760559082, -10.785857200622559
505,2186849709,0.8928335,0.026011003,-0.40464392,0.19604906,9.953693389892578,-4.053798198699951,7.931915283203125,68.31879425048828,20.825490951538086, 0.45058026909828186
506,2186866376,0.89378005,0.031949166,-0.39947006,0.20139591,10.151518821716309,-4.2228240966796875,8.241384506225586,57.93901824951172,27.31965446472168, 14.112062454223633
507,2186883043,0.8951428,0.036268193,-0.39268962,0.20784386,10.019704818725586,-3.5670206546783447,8.591788291931152,53.17020797729492,40.82606506347656, 24.39506721496582
508,2186899710,0.89712274,0.038098663,-0.38429785,0.2145567,9.805733680725098,-2.7018673419952393,8.904541969299316,40.72161865234375,56.03751754760742, 31.449377059936523
509,2186916377,0.8996485,0.03800549,-0.37443548,0.22132882,10.00985336303711,-2.353024959564209,8.04565715789795,31.045177459716797,69.40724182128906, 35.70948028564453
510,2186933044,0.9026113,0.036768712,-0.363087,0.22827327,9.834821701049805,-2.1426215171813965,7.870566368103027,26.567312240600586,81.52342224121094, 38.67169952392578
511,2186949711,0.90590817,0.034404464,-0.35028502,0.23547283,9.611626625061035,-1.877593755722046,7.966050624847412,22.406221389770508,93.22612762451172, 42.18390655517578
512,2186966378,0.90950924,0.029885987,-0.33629262,0.24250184,9.00626277923584,-1.1646082401275635,8.314872741699219,10.432273864746094,104.83689880371094, 45.5418701171875
513,2186983045,0.91333234,0.023333235,-0.3209722,0.24951231,8.461758613586426,-0.7987431883811951,8.315668106079102,-0.1687716841697693,117.0554428100586, 49.496482849121094
514,2186999712,0.9173584,0.014407731,-0.30439156,0.25610885,7.493702411651611,0.1499326527118683,8.595147132873535,-13.856145858764648,129.4329071044922, 51.601837158203125
515,2187016379,0.9213465,0.0035859903,-0.286895,0.26229602,6.835805416107178,0.3065284490585327,8.266731262207031,-25.0727596282959,138.4368438720703, 52.978981018066406
516,2187033046,0.92527694,-0.0070049297,-0.2681118,0.2681971,6.109882354736328,0.938094437122345,8.42769718170166,-21.86485481262207,146.05712890625, 50.80489730834961
517,2187049713,0.9289116,-0.017026734,-0.24900775,0.2735484,5.764797687530518,0.11602410674095154,7.492880821228027,-18.70461654663086,146.5353546142578, 46.828147888183594
518,2187066380,0.93248063,-0.022981012,-0.22819744,0.27906585,5.252548694610596,0.02203059196472168,7.389392375946045,10.748614311218262,149.6601104736328, 41.26232147216797
519,2187083047,0.935981,-0.027986484,-0.20644425,0.28379065,4.18571662902832,0.8451722860336304,7.9593610763549805,17.37579917907715,153.91160583496094, 34.985172271728516
520,2187099714,0.9393647,-0.03289131,-0.18388714,0.2875719,3.385455369949341,1.168564796447754,7.77644681930542,18.210309982299805,158.9082794189453, 29.15951156616211
521,2187116381,0.9426269,-0.036274116,-0.16001065,0.2907497,2.9055335521698,0.4753590524196625,8.009594917297363,29.842782974243164,164.40283203125, 23.896236419677734
522,2187133048,0.9455758,-0.038662333,-0.13594896,0.2931037,3.0500645637512207,-0.3592703938484192,8.143790245056152,35.6567268371582,163.47715759277344, 18.12871742248535
523,2187149715,0.9480296,-0.039354496,-0.1120521,0.29518762,3.1898136138916016,-1.192785620689392,7.769900321960449,45.96040725708008,158.599609375, 15.747056007385254
524,2187166382,0.9500212,-0.039112493,-0.08922889,0.29659465,2.6883723735809326,-1.2501674890518188,7.535490036010742,49.22329330444336,149.53897094726562, 11.263616561889648
525,2187183049,0.9516911,-0.03666917,-0.06755981,0.29727992,2.1505510807037354,-1.413741946220398,7.3745808601379395,60.720333099365234,137.5146484375, 5.539795398712158
526,2187199716,0.95299006,-0.033399083,-0.047308885,0.29741642,1.847949504852295,-1.4224121570587158,6.8848490715026855,62.886474609375,126.51533508300781, 1.9702483415603638
527,2187216383,0.9538183,-0.030735627,-0.028114978,0.29748243,1.2949026823043823,-0.9178630113601685,6.900599002838135,56.622928619384766,120.69893646240234, 2.4203786849975586
528,2187233050,0.9541169,-0.030397803,-0.011247033,0.2976754,0.9081827998161316,-0.6194081902503967,5.890247821807861,36.52726364135742,110.07479858398438, 4.292001724243164
529,2187249717,0.95409924,-0.03183034,0.0033325562,0.29777604,-0.11196133494377136,-0.38644421100616455,6.039726257324219,20.157102584838867,98.6826171875, 3.994014263153076
530,2187266384,0.9538845,-0.034268536,0.015234647,0.2978219,-0.6461966037750244,-0.37748217582702637,5.292499542236328,8.035459518432617,83.18927764892578, 3.431847095489502
531,2187283051,0.95357734,-0.03610555,0.025077099,0.2979225,-1.0651880502700806,-0.878663182258606,5.0684494972229,7.733391284942627,68.44032287597656, 3.554417133331299
532,2187299718,0.9532621,-0.036505226,0.03305908,0.29810423,-1.1553385257720947,-0.36485549807548523,4.306028366088867,13.334031105041504,53.270896911621094, 3.888542890548706
533,2187316385,0.95295966,-0.03504513,0.039365686,0.29848,-1.4498127698898315,-0.37999147176742554,3.4149932861328125,22.048572540283203,38.418113708496094, 5.139384746551514
534,2187333052,0.95282453,-0.031031061,0.043682642,0.29875487,-1.6576261520385742,-0.2131461501121521,2.3533167839050293,34.76776885986328,20.109203338623047, 4.346455097198486
535,2187349719,0.9528639,-0.02397554,0.045601856,0.29899228,-1.8405338525772095,-0.9432215690612793,1.9537845849990845,49.8162727355957,-1.902540922164917, 4.142679214477539
536,2187366386,0.95300174,-0.015341313,0.04424099,0.29932445,-1.7076009511947632,-1.112606406211853,2.2080776691436768,53.408599853515625,-26.696977615356445, 4.517349720001221
537,2187383053,0.95311594,-0.0059742164,0.04022038,0.29986146,-2.0082192420959473,-0.4351418912410736,4.058370113372803,52.67995071411133,-45.659278869628906, 5.847371578216553
538,2187399720,0.95308924,0.0028173903,0.034375634,0.3007182,-1.2533504962921143,-0.3710854649543762,5.648203372955322,45.05598068237305,-56.41384506225586, 8.001768112182617
539,2187416387,0.9528363,0.011142089,0.027758602,0.30200744,-1.2204015254974365,0.3787974715232849,6.734899520874023,40.30466842651367,-60.45419692993164, 11.204595565795898
540,2187433054,0.95209694,0.016956612,0.015956586,0.30490878,-1.337088704109192,-3.761296033859253,-2.6196000576019287,12.821022033691406,-89.00114440917969, 22.698524475097656
541,2187449721,0.951731,0.017474005,-0.010630031,0.30625144,11.042774200439453,0.4898851811885834,-15.71090316772461,-52.70081329345703,-174.92788696289062, 12.850534439086914
542,2187466388,0.9499114,0.028075138,-0.03937998,0.30875504,6.64333438873291,-0.882585883140564,8.35047721862793,8.984593391418457,-210.2123260498047, 23.031713485717773
543,2187483055,0.9464576,0.041857593,-0.06439487,0.3135594,4.324672222137451,-0.9431198239326477,8.025261878967285,38.63877487182617,-192.5211944580078, 39.929290771484375
544,2187499722,0.9431572,0.055830337,-0.08865511,0.3154011,2.154296875,1.3856992721557617,2.406254529953003,40.15510177612305,-188.78147888183594, 20.00888442993164
545,2187516389,0.9398477,0.06829683,-0.108849935,0.31650215,0.1390666961669922,-2.020753860473633,5.163186550140381,38.74453353881836,-159.42303466796875, 14.587706565856934
546,2187533056,0.9364665,0.07972441,-0.12463258,0.31802726,3.1479082107543945,-0.532863199710846,7.105300426483154,41.996341705322266,-128.51058959960938, 16.17647933959961
547,2187549723,0.93314385,0.08699063,-0.1416336,0.31877205,4.6398820877075195,-1.2082457542419434,9.1124906539917,11.839365005493164,-127.62771606445312, 15.247054100036621
548,2187566390,0.92988515,0.092635326,-0.15694642,0.31953162,6.150054454803467,-0.08156824856996536,8.473825454711914,5.123103141784668,-113.15921020507812, 15.763545989990234
549,2187583057,0.926107,0.09706228,-0.17522077,0.31969142,7.149652481079102,1.3726813793182373,7.617157459259033,-9.48159408569336,-130.3437042236328, 16.270584106445312
550,2187599724,0.922252,0.100431696,-0.19414155,0.3188636,8.248055458068848,1.5757551193237305,8.082551002502441,-18.786169052124023,-132.86209106445312, 11.849282264709473
551,2187616391,0.918412,0.10419203,-0.21119055,0.31790283,9.216907501220703,2.902168035507202,8.73624324798584,-12.399882316589355,-121.8909683227539, 9.160938262939453
552,2187633058,0.9147249,0.108272225,-0.2258564,0.31708768,9.409046173095703,2.7330589294433594,8.86309814453125,-5.0903730392456055,-107.18397521972656, 7.575219631195068
553,2187649725,0.9114995,0.10937541,-0.23953013,0.31596035,10.035943984985352,2.7126052379608154,8.71833610534668,-22.497608184814453,-93.94058227539062, 8.495201110839844
554,2187666392,0.9087904,0.10643112,-0.25347528,0.31388366,10.507035255432129,2.688197612762451,9.747990608215332,-50.41584396362305,-86.68287658691406, 8.309793472290039
555,2187683059,0.9065203,0.10065276,-0.2671764,0.31097767,10.091140747070312,2.0894060134887695,10.45072078704834,-69.3889389038086,-78.8601303100586, 6.940805912017822
556,2187699726,0.9049414,0.09091312,-0.28042287,0.30688578,10.111491203308105,1.0851556062698364,11.663491249084473,-95.7739486694336,-67.0933609008789, 5.054045677185059
557,2187716393,0.9035526,0.07886247,-0.2930949,0.3024384,10.051953315734863,-0.46778714656829834,10.838035583496094,-109.75093841552734,-58.49268341064453, 6.555614948272705
558,2187733060,0.9022111,0.06549989,-0.30520895,0.29761133,9.018829345703125,-1.0580120086669922,9.731685638427734,-117.5408935546875,-52.40105438232422, 6.436316967010498
559,2187749727,0.9007131,0.051830795,-0.3174281,0.29200882,8.946171760559082,-1.834864854812622,9.396007537841797,-121.20244598388672,-53.10392379760742, 2.660318374633789
560,2187766394,0.89903206,0.040498897,-0.32878166,0.2863631,8.394381523132324,-2.28464674949646,11.451628684997559,-105.01918029785156,-52.84819030761719, -2.6509671211242676
561,2187783061,0.8974801,0.030284349,-0.339121,0.28037426,8.263726234436035,-2.3436012268066406,11.883793830871582,-96.91415405273438,-48.598716735839844, -7.8191399574279785
562,2187799728,0.8961791,0.020710556,-0.3476812,0.27486768,8.429636001586914,-3.7773258686065674,13.182501792907715,-88.46219635009766,-38.18750762939453, -7.195636749267578
563,2187816395,0.8950554,0.013982442,-0.3546728,0.26997715,6.74149751663208,-3.6844403743743896,11.204132080078125,-66.50517272949219,-33.41404724121094, -10.760161399841309
564,2187833062,0.8929238,0.007605958,-0.3651095,0.26329523,6.630546569824219,-3.0712637901306152,7.757930755615234,-74.99810028076172,-57.92637634277344, -20.43917465209961
565,2187849729,0.889963,0.0006076139,-0.3778175,0.25538126,7.568074703216553,-2.290565013885498,7.023451328277588,-85.97393035888672,-72.90290832519531, -24.824623107910156
566,2187866396,0.88611525,-0.009560891,-0.3933317,0.24494605,8.226658821105957,-2.960906982421875,5.515549659729004,-116.8508071899414,-86.82925415039062, -30.44585609436035
567,2187883063,0.8823195,-0.01403886,-0.40689248,0.23612227,6.860164165496826,-1.9657224416732788,8.479363441467285,-74.5240249633789,-84.46958923339844, -35.97553634643555
568,2187899730,0.8789674,-0.017735802,-0.41850355,0.22794,7.0477495193481445,-2.3867123126983643,10.383415222167969,-64.78468322753906,-72.75047302246094, -34.792327880859375
569,2187916397,0.8764796,-0.020194778,-0.42712232,0.22122866,6.8820319175720215,-3.96160626411438,12.14846134185791,-48.281883239746094,-54.32744216918945, -30.455970764160156
570,2187933064,0.8751432,-0.01982754,-0.4321073,0.21682893,6.472963809967041,-4.694278240203857,13.712569236755371,-18.776031494140625,-33.70726013183594, -26.08099365234375
571,2187949731,0.8750551,-0.015910337,-0.43347687,0.21476403,5.8959760665893555,-4.989017009735107,14.233227729797363,15.080305099487305,-13.904248237609863, -23.960494995117188
572,2187966398,0.8760607,-0.009721742,-0.43191105,0.21418692,5.846420764923096,-3.754235029220581,12.026992797851562,37.63779830932617,3.4453229904174805, -23.087871551513672
573,2187983065,0.87728834,-0.0034306848,-0.42905778,0.21508819,5.348348140716553,-3.6914799213409424,9.884190559387207,44.55229187011719,11.571521759033203, -14.742484092712402
574,2187999732,0.8788481,0.004195273,-0.42440313,0.21792346,5.976526737213135,-2.269146203994751,7.519286155700684,60.98891830444336,21.3674259185791, -7.470196723937988
575,2188016399,0.88028395,0.007970471,-0.42100587,0.21861139,6.691509246826172,-1.0432385206222534,7.98439884185791,29.573577880859375,19.10365867614746, -8.990560531616211
576,2188033066,0.88193506,0.010485711,-0.4175225,0.21853139,6.883279323577881,-1.7140026092529297,6.951539993286133,19.839494705200195,22.088451385498047, -10.314385414123535
577,2188049733,0.8834292,0.011428285,-0.41485706,0.21752207,7.020800590515137,-1.9934145212173462,6.213133811950684,6.418586254119873,18.971073150634766, -11.139188766479492
578,2188066400,0.8849806,0.011077366,-0.41284215,0.2150531,6.851208209991455,-1.7328097820281982,7.203699111938477,-6.578085422515869,17.003341674804688, -16.35211753845215
579,2188083067,0.886534,0.009531094,-0.41116208,0.21192662,6.512176513671875,-2.9142792224884033,8.968669891357422,-16.210363388061523,16.68443489074707, -16.93492317199707
580,2188099734,0.88808095,0.008274954,-0.40933007,0.2090282,6.540066242218018,-3.2806639671325684,9.652132034301758,-13.57479476928711,17.171985626220703, -16.374858856201172
581,2188116401,0.88930154,0.0070570037,-0.40796813,0.20653085,7.095855712890625,-3.5532724857330322,8.773358345031738,-12.860862731933594,13.335077285766602, -13.540497779846191
582,2188133068,0.8902185,0.006817275,-0.40686622,0.20475464,7.523831367492676,-3.427185297012329,7.800807476043701,-5.205926895141602,9.531205177307129, -11.439719200134277
583,2188149735,0.89060956,0.00737271,-0.40629685,0.2041649,8.127237319946289,-3.3814890384674072,7.127169132232666,2.2624146938323975,3.735029697418213, -5.642388820648193
584,2188166402,0.89065254,0.010128406,-0.40568057,0.20508282,8.502171516418457,-3.2028164863586426,7.070921421051025,20.045339584350586,0.040858712047338486, -2.067805767059326
585,2188183069,0.8904791,0.01411799,-0.4049376,0.20705874,9.238988876342773,-3.213237762451172,7.788722991943359,30.73625373840332,-1.4451627731323242, 1.248091697692871
586,2188199736,0.89047754,0.018917266,-0.40352952,0.20941792,10.172407150268555,-4.1405439376831055,8.201600074768066,37.7054328918457,1.9934524297714233, 1.036787986755371
587,2188216403,0.89083695,0.024876643,-0.40077364,0.21253534,10.270376205444336,-4.3606696128845215,7.608113765716553,48.807369232177734,9.68246078491211, 1.7525452375411987
588,2188233070,0.8916239,0.031133419,-0.39657682,0.21625113,10.173677444458008,-4.072723388671875,7.450143337249756,54.31560134887695,19.364242553710938, 3.714646577835083
589,2188249737,0.89267707,0.036493436,-0.3912884,0.22065693,9.693330764770508,-3.260079860687256,7.861445426940918,52.28959655761719,28.27019691467285, 9.767573356628418
590,2188266404,0.89386076,0.038455572,-0.38583085,0.22509713,9.324915885925293,-2.550328493118286,7.970188140869141,31.750022888183594,34.829566955566406, 18.86849594116211
591,2188283071,0.8952015,0.037661314,-0.37978363,0.23013116,9.545248985290527,-3.00272536277771,7.838815689086914,17.261831283569336,43.29756164550781, 29.431415557861328
592,2188299738,0.8967879,0.03469325,-0.37288013,0.23564531,9.465996742248535,-2.306209087371826,7.932529449462891,6.432341575622559,52.78044509887695, 37.44938278198242
593,2188316405,0.8987515,0.030810367,-0.3645653,0.24163811,9.183389663696289,-1.9056675434112549,7.318906784057617,4.219254493713379,64.05307006835938, 41.80065155029297
594,2188333072,0.9011342,0.026779436,-0.35444307,0.24821463,9.074954986572266,-1.572548508644104,7.379136562347412,7.681046485900879,76.65118408203125, 44.70137405395508
595,2188349739,0.90386415,0.022502264,-0.34269315,0.25511765,8.863908767700195,-0.9964019060134888,7.521313190460205,9.665120124816895,88.07306671142578, 46.43705368041992
596,2188366406,0.9068679,0.018562952,-0.32932004,0.26228663,8.564743995666504,-1.276016354560852,7.3776068687438965,15.19257926940918,98.26473999023438, 46.56891632080078
597,2188383073,0.91007483,0.014853255,-0.31430718,0.2697302,8.219346046447754,-0.3030668795108795,7.4816718101501465,20.17805290222168,108.58052825927734, 47.194881439208984
598,2188399740,0.91348594,0.0097776195,-0.29794645,0.27690464,7.524811744689941,0.031806401908397675,7.635402202606201,13.517361640930176,119.97379302978516, 47.949405670166016
599,2188416407,0.9170919,0.0042484,-0.27972576,0.28403923,7.285017013549805,0.31149619817733765,8.391850471496582,14.109041213989258,132.9257049560547, 48.145023345947266
600,2188433074,0.92068964,-0.0029852013,-0.26070765,0.29043645,7.053870677947998,1.0232083797454834,8.567620277404785,3.4907774925231934,141.254150390625, 46.77609634399414
601,2188449741,0.92419,-0.010716272,-0.24087967,0.29620135,6.528842449188232,0.6091874837875366,7.3963141441345215,0.8067262768745422,147.22276306152344, 43.882469177246094
602,2188466408,0.9276199,-0.017244875,-0.21973386,0.30156463,5.575121879577637,0.6698506474494934,7.620021820068359,10.452756881713867,153.07290649414062, 39.591896057128906
603,2188483075,0.9309696,-0.023054868,-0.19776465,0.30602878,4.484636306762695,0.9824066758155823,7.552088260650635,15.366585731506348,156.82785034179688, 33.04944610595703
604,2188499742,0.93411344,-0.028321762,-0.17521772,0.30972368,3.9444587230682373,0.20913165807724,7.6952009201049805,18.96393394470215,159.2323455810547, 27.910003662109375
605,2188516409,0.93713874,-0.03178421,-0.15192197,0.3125393,3.377209186553955,0.6135652661323547,7.224188804626465,31.05890655517578,160.23126220703125, 20.496152877807617
606,2188533076,0.93981516,-0.03458415,-0.1288135,0.31457725,3.4044039249420166,-0.41743433475494385,7.130564212799072,34.02579879760742,157.41046142578125, 15.503971099853516
607,2188549743,0.9423839,-0.034987178,-0.10570842,0.31545883,3.1319022178649902,-0.1993195116519928,8.00185489654541,48.452335357666016,152.39100646972656, 6.136479377746582
608,2188566410,0.9445213,-0.034655277,-0.08396883,0.31563893,2.7920949459075928,-0.9381227493286133,6.947187423706055,49.63265609741211,141.80886840820312, 1.66340172290802
609,2188583077,0.9462144,-0.03425675,-0.06362517,0.31536776,2.37675142288208,-1.122133731842041,7.173315048217773,46.66933059692383,132.45567321777344, -0.6729307770729065
610,2188599744,0.947495,-0.034134626,-0.044812035,0.31476995,1.5109115839004517,-0.6012768745422363,6.695330619812012,41.3135871887207,122.99923706054688, -2.1433980464935303
611,2188616411,0.9483179,-0.03524997,-0.02753577,0.3141541,0.8373831510543823,-0.8398358821868896,6.411924839019775,29.811279296875,115.53120422363281, -1.259670376777649
612,2188633078,0.94873524,-0.037312195,-0.012208497,0.31362444,0.5699857473373413,-0.7318803071975708,5.472853183746338,19.347204208374023,104.76966857910156, -0.10881991684436798
613,2188649745,0.9487657,-0.04054876,0.00088137266,0.31336656,-0.16158469021320343,-0.7581745982170105,5.845854759216309,6.787526607513428,92.60443878173828, 2.0213966369628906
614,2188666412,0.94860893,-0.04421567,0.011502847,0.31313568,-0.5371732115745544,-0.4984414875507355,5.444514274597168,-1.3886091709136963,77.41924285888672, 1.911138653755188
615,2188683079,0.9484009,-0.047077514,0.020379972,0.31289667,-1.1779026985168457,-0.9303978085517883,5.584685325622559,0.09239275008440018,64.31067657470703, 1.4996774196624756
616,2188699746,0.94829935,-0.048388828,0.027434781,0.31246507,-1.5383367538452148,-0.9969842433929443,5.646926403045654,6.346856594085693,49.13146209716797, -0.35471975803375244
617,2188716413,0.9482496,-0.048104268,0.032756608,0.3121472,-1.4708218574523926,-1.2683207988739014,4.670734882354736,13.028352737426758,34.34724807739258, -0.0024972502142190933
618,2188733080,0.94829774,-0.04645464,0.036686517,0.3118132,-1.6565532684326172,-0.49797871708869934,4.764587879180908,18.982236862182617,22.317237854003906, -0.4679581820964813
619,2188749747,0.94844365,-0.043264642,0.039286796,0.31151187,-1.8264884948730469,-0.7033894658088684,4.730706214904785,26.198503494262695,10.301398277282715, -0.5011266469955444
620,2188766414,0.9487209,-0.03743388,0.040644165,0.31124857,-1.5392526388168335,-1.1239413022994995,3.9562153816223145,40.78831100463867,-3.5163755416870117, -0.19351787865161896
621,2188783081,0.94903016,-0.030345254,0.04067451,0.31107363,-2.052680492401123,-0.34051692485809326,5.2958574295043945,46.14259338378906,-14.904587745666504, 0.3253287971019745
622,2188799748,0.9492867,-0.022698384,0.03944964,0.31110036,-1.9235458374023438,-1.0507540702819824,6.1899733543396,47.033546447753906,-24.327314376831055, 1.649051308631897
623,2188816415,0.9495253,-0.013954737,0.03806483,0.31105977,-1.889919400215149,-0.5709339380264282,7.627638816833496,53.87091064453125,-27.711669921875, 1.522329568862915
624,2188833082,0.94961864,-0.0057147066,0.036081366,0.31127158,-2.025908946990967,-0.5246226787567139,7.9937849044799805,49.225833892822266,-30.537940979003906, 3.2873964309692383
625,2188849749,0.9495886,0.0012331147,0.033127367,0.31174126,-1.7923564910888672,0.05568810924887657,7.950673580169678,38.6461296081543,-34.0986213684082, 4.880104064941406
626,2188866416,0.9494334,0.006452995,0.029366445,0.31252557,-1.6006361246109009,-0.0065969303250312805,8.468085289001465,25.56476593017578,-35.641029357910156, 6.812274932861328
627,2188883083,0.9489112,0.013224919,0.024579845,0.31430662,-1.515873670578003,-2.426661729812622,4.157011032104492,33.30841827392578,-45.56103515625, 14.47150993347168
628,2188899750,0.9479171,0.01861149,0.009132952,0.31784213,2.167368173599243,-4.790785789489746,-17.4060115814209,0.9970016479492188,-111.89109802246094, 27.66969871520996
629,2188916417,0.9467653,0.027149588,-0.019267058,0.3201989,15.750275611877441,-0.3557369112968445,-5.033364295959473,-6.64909029006958,-203.35028076171875, 22.19235610961914
630,2188933084,0.9440881,0.042219106,-0.042172294,0.32424805,2.287489414215088,-0.015505053102970123,16.104326248168945,48.47804641723633,-181.73158264160156, 34.65333557128906
631,2188949751,0.9406143,0.057479966,-0.06521432,0.32815886,5.571066856384277,1.7821224927902222,1.9044783115386963,49.61160659790039,-183.31320190429688, 35.5157470703125
632,2188966418,0.9372608,0.07098678,-0.08700824,0.33004925,1.8214874267578125,0.8401685357093811,3.5948326587677,40.11338424682617,-171.9895477294922, 22.45189094543457
633,2188983085,0.9340431,0.08229011,-0.10412202,0.33158824,2.4197072982788086,-0.23580309748649597,5.923687934875488,36.25318908691406,-136.90550231933594, 18.918907165527344
634,2188999752,0.9310133,0.089770146,-0.11996079,0.33281437,4.210982322692871,-0.47418898344039917,9.074033737182617,14.276302337646484,-120.03612518310547, 18.48472785949707
635,2189016419,0.92816114,0.09461283,-0.13409914,0.33404034,6.108056545257568,0.46573007106781006,8.993734359741211,1.183486819267273,-102.95809173583984, 19.199743270874023
636,2189033086,0.9253191,0.09802167,-0.14791313,0.33510935,6.366890907287598,0.9870572686195374,8.730363845825195,-7.372246742248535,-97.66706085205078, 19.28046417236328
637,2189049753,0.9224899,0.1012921,-0.16132833,0.3357462,7.899858474731445,3.316446542739868,7.760221004486084,-7.785351753234863,-95.0681381225586, 16.369789123535156
638,2189066420,0.9194207,0.10269493,-0.17671707,0.33599177,7.211893558502197,1.6007097959518433,7.318182468414307,-24.473468780517578,-103.78167724609375, 17.893657684326172
639,2189083087,0.91632247,0.10216916,-0.19304632,0.33563066,8.309213638305664,1.6111204624176025,8.294927597045898,-39.56412887573242,-105.70962524414062, 17.13273048400879
640,2189099754,0.9137208,0.098850675,-0.20918189,0.3340448,8.728958129882812,1.7836580276489258,10.101152420043945,-58.697628021240234,-98.2170639038086, 11.839349746704102
641,2189116421,0.9118747,0.09368405,-0.22268581,0.33184186,9.460485458374023,1.453399658203125,10.267943382263184,-65.6725845336914,-76.74636840820312, 7.107555866241455
642,2189133088,0.9108038,0.08654445,-0.23423572,0.3287559,9.101444244384766,1.1251964569091797,10.1207857131958,-75.44800567626953,-59.349708557128906, 1.566888451576233
643,2189149755,0.9102233,0.07737538,-0.24494137,0.32482398,8.949152946472168,-0.07408887892961502,11.230866432189941,-87.9114990234375,-49.16688919067383, -2.0614097118377686
644,2189166422,0.90977716,0.068529904,-0.25456512,0.3206339,8.360893249511719,-1.5834431648254395,10.817293167114258,-83.97727966308594,-43.014095306396484, -5.087674617767334
645,2189183089,0.90936226,0.05960627,-0.26392972,0.3159884,7.590187072753906,-2.661200523376465,10.62179183959961,-84.68866729736328,-41.370269775390625, -7.966556072235107
646,2189199756,0.9086143,0.05209414,-0.27319646,0.3115605,7.300997257232666,-2.772275447845459,10.148005485534668,-75.12052917480469,-44.33293914794922, -8.507411003112793
647,2189216423,0.9075237,0.043950163,-0.2829023,0.3073033,7.026076793670654,-3.0330162048339844,11.154966354370117,-79.56169891357422,-46.299095153808594, -5.373167514801025
648,2189233090,0.9060872,0.035682075,-0.2923133,0.30378592,7.251295566558838,-3.5388970375061035,11.697307586669922,-78.13459014892578,-44.65363693237305, 0.16155031323432922
649,2189249757,0.9044929,0.02736522,-0.3011955,0.3007073,7.378087520599365,-2.829712152481079,11.899075508117676,-76.4090576171875,-41.470458984375, 3.1768083572387695
650,2189266424,0.9023514,0.019967102,-0.31166765,0.29703012,6.51771354675293,-2.7083747386932373,10.218576431274414,-75.11384582519531,-54.51138687133789, -1.0163172483444214
651,2189283091,0.89936274,0.012964371,-0.32523367,0.2918934,7.209805488586426,-2.860530138015747,8.634678840637207,-81.98802185058594,-76.5367431640625, -8.763225555419922
652,2189299758,0.8955787,0.006645298,-0.34049258,0.28628558,7.854264259338379,-2.0600290298461914,8.95064640045166,-82.12657928466797,-90.19750213623047, -11.444230079650879
653,2189316425,0.89116865,0.0019676436,-0.35719663,0.2796875,7.6702470779418945,-3.414341449737549,8.593372344970703,-77.1644058227539,-103.8322525024414, -20.08953285217285
654,2189333092,0.8867496,0.0004089416,-0.37253729,0.27366206,6.57839822769165,-2.122852325439453,11.957042694091797,-54.01287841796875,-101.4893798828125, -24.235658645629883
655,2189349759,0.88281804,-0.00071634265,-0.38581422,0.26791653,6.676757335662842,-2.3522298336029053,12.510039329528809,-46.792171478271484,-88.49649047851562, -24.57113265991211
656,2189366426,0.8794126,-0.0020386497,-0.39713255,0.26251706,6.560854434967041,-3.105056047439575,12.842143058776855,-43.45721435546875,-74.88804626464844, -22.89409637451172
657,2189383093,0.87674046,-0.0013318293,-0.405234,0.25905555,7.302468299865723,-4.4062066078186035,13.728363037109375,-20.084522247314453,-57.16470718383789, -17.998798370361328
658,2189399760,0.87519664,0.0026576892,-0.40961155,0.2573755,7.4662299156188965,-3.7048604488372803,14.598947525024414,11.30873966217041,-37.47996139526367, -18.396020889282227
659,2189416427,0.8746106,0.008940355,-0.41135326,0.25644693,6.418808937072754,-2.8670387268066406,12.705667495727539,31.86956787109375,-23.017362594604492, -22.0821590423584
660,2189433094,0.8743004,0.01333415,-0.41292024,0.2547904,6.081418514251709,-2.0089473724365234,10.878049850463867,18.73232650756836,-17.946008682250977, -21.62761688232422
661,2189449761,0.8742321,0.0154139325,-0.41442493,0.25245348,5.941714763641357,-1.8606443405151367,8.922761917114258,2.973992347717285,-12.931238174438477, -19.577861785888672
662,2189466428,0.8745331,0.016979184,-0.4150414,0.25028864,6.459529876708984,-2.5572805404663086,9.134928703308105,1.8746918439865112,-5.654689311981201, -17.810388565063477
663,2189483095,0.8753571,0.020947207,-0.4140613,0.24872553,6.514797210693359,-2.3197550773620605,9.245194435119629,20.726804733276367,1.3487755060195923, -22.140880584716797
664,2189499762,0.8764595,0.02514316,-0.41248178,0.24707438,6.854831695556641,-2.448547124862671,8.244182586669922,22.829769134521484,5.322755813598633, -23.88917350769043
665,2189516429,0.87737286,0.028572617,-0.41159946,0.24492171,7.1182475090026855,-2.8388068675994873,6.681973457336426,15.644211769104004,1.7846661806106567, -24.298622131347656
666,2189533096,0.878047,0.03262497,-0.41123918,0.24259347,7.45908784866333,-3.110213041305542,6.604769706726074,18.084365844726562,-3.1275012493133545, -26.620885848999023
667,2189549763,0.8783927,0.037038717,-0.41164652,0.24000414,8.300393104553223,-3.5287039279937744,7.003101825714111,18.32374382019043,-9.34927749633789, -28.516803741455078
668,2189566430,0.87880516,0.041531373,-0.41166213,0.2377204,7.653226852416992,-2.8952505588531494,9.192063331604004,20.314367294311523,-6.844779014587402, -27.113279342651367
669,2189583097,0.87895125,0.043521605,-0.4126997,0.23500997,8.085834503173828,-2.508204460144043,10.000380516052246,2.412829875946045,-9.824949264526367, -21.881242752075195
670,2189599764,0.878934,0.043460343,-0.41441724,0.2320444,8.092708587646484,-2.919130325317383,8.477869987487793,-11.764050483703613,-11.178518295288086, -17.15239715576172
671,2189616431,0.87884545,0.04273823,-0.41602626,0.2296222,8.438403129577637,-3.040438652038574,8.246870994567871,-14.007529258728027,-9.518704414367676, -11.918310165405273
672,2189633098,0.87876034,0.042386137,-0.41701165,0.22822176,9.653243064880371,-4.194829940795898,7.343768119812012,-7.844340801239014,-6.032228469848633, -6.995368957519531
673,2189649765,0.8790597,0.045731638,-0.41550618,0.22916691,10.817896842956543,-4.7436370849609375,6.422730445861816,25.041841506958008,5.008119583129883, -4.769390106201172
674,2189666432,0.88005704,0.051161394,-0.41125742,0.23183966,10.144021987915039,-3.543126106262207,7.721856117248535,46.700775146484375,20.863916397094727, -2.2691521644592285
675,2189683099,0.8814512,0.055941537,-0.4055854,0.23540375,9.668278694152832,-2.9989676475524902,8.341450691223145,47.442176818847656,31.952693939208984, 3.818711757659912
676,2189699766,0.8831818,0.059375312,-0.39845058,0.24021168,9.441008567810059,-2.4937679767608643,8.741255760192871,45.00341796875,44.41331481933594, 13.993635177612305
677,2189716433,0.88509864,0.059567567,-0.39081022,0.24560034,9.509187698364258,-2.6677310466766357,8.816946983337402,27.68425941467285,53.57869338989258, 25.882402420043945
678,2189733100,0.8873115,0.056727473,-0.38223898,0.2517017,9.730001449584961,-2.2526869773864746,7.2709479331970215,12.608719825744629,65.44986724853516, 37.47724151611328
679,2189749767,0.89018047,0.052120425,-0.3716469,0.2583426,9.367652893066406,-1.0822877883911133,7.230123519897461,6.502951622009277,82.78540802001953, 43.48896026611328
680,2189766434,0.89356154,0.046441954,-0.35918075,0.2652929,9.288459777832031,-0.8417784571647644,7.243877410888672,3.8899412155151367,97.59339141845703, 46.551353454589844
681,2189783101,0.89730686,0.040355664,-0.3449051,0.27249324,8.815286636352539,-0.1827223300933838,7.080134868621826,5.184384346008301,110.45252227783203, 47.859981536865234
682,2189799768,0.9013433,0.034253106,-0.3284942,0.28017646,8.685990333557129,-0.6288467049598694,7.347066879272461,10.145203590393066,124.50111389160156, 49.75784683227539
683,2189816435,0.9054002,0.027302075,-0.31116384,0.28754562,8.44034481048584,0.07679048180580139,6.866815090179443,5.939943313598633,131.828125, 49.48085021972656
684,2189833102,0.90952647,0.020845002,-0.29187942,0.29518393,8.142033576965332,-0.27208802103996277,6.6827592849731445,13.434195518493652,143.24305725097656, 49.616573333740234
685,2189849769,0.9135439,0.014110582,-0.27163664,0.3024105,7.198597431182861,0.9337540864944458,7.028995513916016,12.82642936706543,149.553955078125, 47.694339752197266
686,2189866436,0.91735137,0.0065593426,-0.25073788,0.3091182,6.773336410522461,0.47070130705833435,6.0193376541137695,8.092330932617188,154.95616149902344, 46.354949951171875
687,2189883103,0.921057,-0.00026445612,-0.22842301,0.31539962,5.6915740966796875,0.5377856492996216,6.419814109802246,14.944819450378418,162.18206787109375, 42.576725006103516
688,2189899770,0.92464536,-0.0067750253,-0.20567887,0.3204394,4.906783103942871,1.075462818145752,6.626082897186279,15.901049613952637,164.06158447265625, 34.506412506103516
689,2189916437,0.9279079,-0.013367142,-0.18258014,0.32476595,4.4347758293151855,-0.19363005459308624,7.017827987670898,15.114212036132812,166.08963012695312, 30.8297119140625
690,2189933104,0.9309911,-0.01948098,-0.15926468,0.32788864,4.141477584838867,0.41784024238586426,7.079950332641602,17.115041732788086,166.30703735351562, 22.983510971069336
