PacketCounter,SampleTimeFine,Quat_W,Quat_X,Quat_Y,Quat_Z,Acc_X,Acc_Y,Acc_Z,Gyr_X,Gyr_Y,Gyr_Z 
1,573772934,0.4270128,-0.56429136,-0.37054595,-0.60160726,0.6831016540527344,-0.5571975708007812,-0.261067271232605,3.1229169368743896,0.6886258721351624, 0.03636213019490242
2,573789601,0.42686766,-0.5765188,-0.35972363,-0.59666497,10.172104835510254,-2.6097500324249268,1.3240646123886108,-61.207313537597656,-87.62612915039062, -32.03187561035156
3,573806268,0.42919782,-0.59013253,-0.34913883,-0.5879075,9.74841022491455,-2.4622604846954346,1.360996961593628,-45.678253173828125,-91.6964340209961, -32.69846725463867
4,573822935,0.42989966,-0.6014836,-0.34263057,-0.579662,9.530211448669434,-2.008817195892334,1.2854845523834229,-35.37086486816406,-95.16717529296875, -32.536155700683594
5,573839602,0.4275122,-0.61111766,-0.3406771,-0.5724577,9.40482234954834,-1.56565260887146,0.44913941621780396,-31.216388702392578,-102.51202392578125, -31.389551162719727
6,573856269,0.42212015,-0.6206387,-0.34321746,-0.5646451,9.50490665435791,-1.6671494245529175,0.5118462443351746,-24.66595458984375,-109.95951843261719, -30.14030647277832
7,573872936,0.41554207,-0.6298039,-0.34793973,-0.55642605,9.587178230285645,-1.3099924325942993,-0.10496662557125092,-19.77505111694336,-116.06185150146484, -28.969589233398438
8,573889603,0.40749443,-0.6391498,-0.35420159,-0.547702,9.737159729003906,-1.2805591821670532,-0.693579912185669,-19.02996253967285,-121.12178039550781, -27.57819175720215
9,573906270,0.3984825,-0.6487401,-0.3610921,-0.53847975,9.999930381774902,-1.2895147800445557,-0.9570412635803223,-19.6336612701416,-123.0077896118164, -25.34783363342285
10,573922937,0.38890222,-0.6583629,-0.36761484,-0.5293137,10.582159996032715,-1.1664379835128784,-1.5655817985534668,-23.346763610839844,-120.9356689453125, -22.170385360717773
11,573939604,0.37817365,-0.66827667,-0.3729412,-0.5208705,10.434971809387207,-0.8012078404426575,-1.5494592189788818,-34.97749710083008,-116.13981628417969, -19.13776397705078
12,573956271,0.36604106,-0.6785159,-0.37685284,-0.5134318,10.287711143493652,-0.5454084277153015,-1.904153823852539,-49.49232482910156,-112.85232543945312, -16.426420211791992
13,573972938,0.35253957,-0.6887587,-0.3797723,-0.50705063,11.264201164245605,0.5226717591285706,-2.185459613800049,-61.601810455322266,-109.09783935546875, -16.87782096862793
14,573989605,0.3372358,-0.69867945,-0.38169944,-0.5024187,12.045994758605957,1.2518450021743774,-1.5496587753295898,-76.20701599121094,-103.04252624511719, -18.90973472595215
15,574006272,0.3209596,-0.70777714,-0.38280627,-0.49949571,12.143407821655273,1.300517201423645,-0.3298957943916321,-85.07042694091797,-96.52702331542969, -20.005367279052734
16,574022939,0.30401757,-0.7159022,-0.38328543,-0.49814644,12.988208770751953,1.971410870552063,0.31075650453567505,-91.7141342163086,-92.06422424316406, -22.980281829833984
17,574039606,0.2865757,-0.72304726,-0.38343942,-0.49804744,13.901647567749023,1.3156301975250244,1.3250209093093872,-95.53204345703125,-89.7277603149414, -26.219871520996094
18,574056273,0.2702235,-0.7289019,-0.38364077,-0.49849895,13.505874633789062,0.018765181303024292,2.7305896282196045,-88.4647445678711,-86.90986633300781, -27.719585418701172
19,574072940,0.255082,-0.73388916,-0.38367605,-0.49913207,13.445261001586914,-2.415050983428955,2.7883002758026123,-82.22999572753906,-86.54541015625, -28.497920989990234
20,574089607,0.2422784,-0.7383423,-0.38343444,-0.49912927,13.032036781311035,-6.294089317321777,3.8475990295410156,-70.32829284667969,-86.27100372314453, -25.456815719604492
21,574106274,0.22969775,-0.7431685,-0.38002717,-0.50051904,11.897459030151367,-8.787360191345215,5.35764741897583,-87.5451431274414,-79.09046936035156, -19.531511306762695
22,574122941,0.21102604,-0.7503926,-0.3719557,-0.5040119,13.023773193359375,-8.074875831604004,-1.219048023223877,-147.69552612304688,-89.053955078125, -24.31281852722168
23,574139608,0.1884258,-0.7592306,-0.36274654,-0.5064383,16.578598022460938,-7.867201805114746,-7.826703071594238,-174.55465698242188,-104.88434600830078, -34.37369155883789
24,574156275,0.16541009,-0.7675648,-0.3534474,-0.5084869,19.659215927124023,-2.4743051528930664,-6.175677299499512,-178.4023895263672,-98.22200775146484, -42.275516510009766
25,574172942,0.14730138,-0.77202815,-0.34491318,-0.51313734,10.313680648803711,-13.806066513061523,2.6696059703826904,-152.03375244140625,-56.21629333496094, -42.316246032714844
26,574189609,0.14957748,-0.7704445,-0.34406927,-0.5154205,8.529481887817383,-7.295200347900391,4.834654331207275,-8.081887245178223,-7.601403713226318, -30.754169464111328
27,574206276,0.15557058,-0.76591307,-0.3397423,-0.52321136,9.559347152709961,-3.1473217010498047,3.504941463470459,-10.49918270111084,42.470970153808594, -12.822104454040527
28,574222943,0.16304201,-0.75938207,-0.330349,-0.5363074,9.399078369140625,-3.3526861667633057,2.0094680786132812,-29.518775939941406,85.85432434082031, 10.37336540222168
29,574239610,0.17373842,-0.75068164,-0.3169928,-0.5529986,7.76078462600708,-4.766747951507568,2.15824294090271,-31.51624870300293,125.26394653320312, 35.103736877441406
30,574256277,0.19017279,-0.74060744,-0.30034792,-0.57019824,6.953751087188721,-6.0163350105285645,1.2089420557022095,-12.702188491821289,150.84140014648438, 70.69044494628906
31,574272944,0.21496633,-0.728495,-0.2836212,-0.58535784,7.893224239349365,-3.9011995792388916,0.8581412434577942,37.288238525390625,167.55197143554688, 102.47599029541016
32,574289611,0.24490899,-0.7143288,-0.26652232,-0.5989322,8.912690162658691,-1.8332509994506836,0.5737424492835999,68.80530548095703,179.89346313476562, 125.08451843261719
33,574306278,0.27776334,-0.6975716,-0.24897015,-0.6117644,9.811885833740234,-0.534279465675354,-0.06536254286766052,88.11600494384766,194.3470001220703, 138.67112731933594
34,574322945,0.31116632,-0.67917,-0.2299706,-0.6237125,10.858976364135742,-0.722965657711029,-1.2339749336242676,90.33646392822266,202.3461456298828, 150.20787048339844
35,574339612,0.34504715,-0.65887403,-0.20934317,-0.63482517,12.195058822631836,-0.08052293211221695,-2.0879480838775635,91.83785247802734,213.01698303222656, 161.82376098632812
36,574356279,0.37740555,-0.636594,-0.18758169,-0.6458532,12.896248817443848,0.8246116638183594,-2.2660818099975586,85.65321350097656,224.4287872314453, 160.97439575195312
37,574372946,0.40703857,-0.6141125,-0.16350831,-0.6560873,13.186409950256348,-0.39093273878097534,-2.748495101928711,65.692626953125,227.15664672851562, 164.22767639160156
38,574389613,0.4349899,-0.5911691,-0.13883156,-0.6648523,13.82707405090332,-0.03416500613093376,-3.3980653285980225,59.53584289550781,225.8765411376953, 165.54013061523438
39,574406280,0.4604377,-0.56811607,-0.11364485,-0.67255175,14.313990592956543,0.783807098865509,-3.354795217514038,49.067474365234375,224.4344482421875, 162.02108764648438
40,574422947,0.49436206,-0.5435644,-0.09692287,-0.6713792,14.658100128173828,1.327850103378296,-3.1899383068084717,39.15828323364258,222.9090576171875, 158.08035278320312
41,574439614,0.5152615,-0.52076584,-0.07141257,-0.67691135,14.749789237976074,1.8534901142120361,-2.704448938369751,34.059410095214844,220.73817443847656, 152.11668395996094
42,574456281,0.5342218,-0.49802804,-0.047032867,-0.681442,14.851958274841309,1.163309097290039,-2.6428112983703613,32.837791442871094,214.76455688476562, 145.3660888671875
43,574472948,0.55323815,-0.47340584,-0.026754245,-0.684908,15.362349510192871,0.2185257226228714,-3.154111385345459,59.7255859375,207.62608337402344, 137.262451171875
44,574489615,0.5744492,-0.4446659,-0.012968662,-0.6871043,16.069293975830078,-0.610266387462616,-3.3193066120147705,113.72844696044922,201.38040161132812, 132.55552673339844
45,574506282,0.5963278,-0.41298738,-0.0048811203,-0.6883392,15.698325157165527,1.0130375623703003,-2.6552257537841797,154.8738555908203,192.73306274414062, 123.47957611083984
46,574522949,0.6142796,-0.38238767,0.0012414437,-0.69024557,14.874780654907227,5.350075721740723,-2.8065481185913086,148.64918518066406,183.99118041992188, 98.11316680908203
47,574539616,0.62806416,-0.35678515,0.007151908,-0.69151187,13.304171562194824,1.3461171388626099,-5.78143835067749,116.90815734863281,160.197265625, 82.12928009033203
48,574556283,0.63924664,-0.33636454,0.010193489,-0.6914613,12.017176628112793,3.9064011573791504,-7.676876544952393,102.06819152832031,122.45867156982422, 68.92633819580078
49,574572950,0.64576626,-0.32537517,0.012086536,-0.69063085,9.869617462158203,3.0690784454345703,-10.389155387878418,55.314876556396484,73.2492904663086, 47.674381256103516
50,574589617,0.649171,-0.32113138,0.007488709,-0.6894895,9.300920486450195,3.620832681655884,-11.901169776916504,49.70033264160156,13.724092483520508, 19.738645553588867
51,574606284,0.64951164,-0.32290342,-0.004633126,-0.68836516,9.982993125915527,3.991920232772827,-11.39014720916748,52.18622970581055,-46.47528076171875, -11.463807106018066
52,574622951,0.64738345,-0.33013946,-0.021954471,-0.686601,11.048274040222168,2.8816845417022705,-10.257613182067871,47.2327880859375,-95.43528747558594, -31.306446075439453
53,574639618,0.64381975,-0.34071326,-0.04356651,-0.68374896,12.41981029510498,1.5081177949905396,-8.695040702819824,49.898765563964844,-131.40850830078125, -42.21812057495117
54,574656285,0.6397373,-0.35222247,-0.06944093,-0.67959815,13.543706893920898,1.0883759260177612,-7.4212965965271,65.313720703125,-156.2682342529297, -48.64497756958008
55,574672952,0.63496876,-0.36415347,-0.097998835,-0.6742429,14.129746437072754,1.3668570518493652,-6.413247585296631,75.20301818847656,-171.75250244140625, -52.9875373840332
56,574689619,0.62945664,-0.3765013,-0.12023808,-0.66901,16.500070571899414,-6.672370433807373,10.305596351623535,42.276573181152344,-144.92945861816406, -40.927364349365234
57,574706286,0.6258501,-0.38862932,-0.1314418,-0.6633265,9.45977783203125,-9.909697532653809,20.01778793334961,-1.998060703277588,-96.17646026611328, -2.309828519821167
58,574722953,0.6194677,-0.40217692,-0.14126132,-0.65921074,14.772491455078125,0.5763694047927856,-3.7026429176330566,-23.223752975463867,-97.46434783935547, -17.73126792907715
59,574739620,0.6131092,-0.41303596,-0.15756911,-0.6547293,18.98876190185547,-0.2995300590991974,-2.8421506881713867,18.07084846496582,-113.06794738769531, -36.25249481201172
60,574756287,0.60516715,-0.42619756,-0.17310694,-0.6497403,12.25625228881836,-2.515336751937866,0.00740562379360199,1.008051872253418,-122.28787231445312, -36.19937515258789
61,574772954,0.60007787,-0.4356848,-0.1920558,-0.6428062,11.904163360595703,-2.9170331954956055,-1.1537190675735474,42.31147384643555,-122.34199523925781, -30.08944320678711
62,574789621,0.5962871,-0.44299367,-0.21295057,-0.6347052,10.891705513000488,-2.600496292114258,-1.344273328781128,65.50518798828125,-122.38726806640625, -28.9010066986084
63,574806288,0.59302044,-0.44881472,-0.23340818,-0.6264286,9.498170852661133,-2.2666821479797363,0.16813568770885468,71.65607452392578,-113.82279205322266, -27.504732131958008
64,574822955,0.5893987,-0.45456055,-0.25102484,-0.6188461,9.860672950744629,-1.4234185218811035,-0.4767463207244873,57.49541473388672,-100.62498474121094, -23.940895080566406
65,574839622,0.58323413,-0.4626577,-0.2639919,-0.61326516,11.327713966369629,-0.051485542207956314,-0.4285910129547119,16.703088760375977,-90.17137908935547, -24.667808532714844
66,574856289,0.57498705,-0.47276318,-0.27302426,-0.6093791,10.621098518371582,-1.170776128768921,-0.488317608833313,-17.80799674987793,-81.49539947509766, -23.99092674255371
67,574872956,0.56677663,-0.4827247,-0.28072783,-0.60575,10.118603706359863,-1.6540831327438354,0.3264925479888916,-23.264739990234375,-75.06494903564453, -20.722911834716797
68,574889623,0.5591781,-0.49187955,-0.28822497,-0.60191435,10.648709297180176,-1.0261646509170532,0.1928405463695526,-18.633474349975586,-70.86685180664062, -18.22831153869629
69,574906290,0.55194354,-0.5002473,-0.2960974,-0.5978608,11.320671081542969,-0.34950199723243713,0.37065964937210083,-12.488821983337402,-69.4871826171875, -18.657886505126953
70,574922957,0.5353584,-0.5130775,-0.2959173,-0.6021427,11.845810890197754,-0.6262789964675903,2.4773645401000977,-25.482240676879883,-66.26373291015625, -22.589035034179688
71,574939624,0.52073485,-0.5254849,-0.29739964,-0.603535,11.166869163513184,-1.4267562627792358,1.4152148962020874,-33.941162109375,-71.0016098022461, -21.562685012817383
72,574956291,0.5097718,-0.53637415,-0.3033566,-0.6003419,10.831050872802734,-1.918674111366272,1.5351206064224243,-44.65230941772461,-78.83663940429688, -26.255695343017578
73,574972958,0.4985441,-0.54728955,-0.30918473,-0.5969364,10.690217018127441,-2.1230289936065674,1.5729625225067139,-46.115604400634766,-82.44249725341797, -26.651521682739258
74,574989625,0.48714435,-0.55812186,-0.3143366,-0.59361863,10.39633560180664,-1.9982272386550903,1.8065211772918701,-50.01218032836914,-84.67700958251953, -26.674707412719727
75,575006292,0.47652903,-0.56830037,-0.319936,-0.58957255,10.234500885009766,-1.8340740203857422,0.35609763860702515,-41.959381103515625,-89.20489501953125, -25.570308685302734
76,575022959,0.46559444,-0.5786298,-0.32616815,-0.5848282,10.305156707763672,-1.6653774976730347,0.31599879264831543,-39.98291015625,-98.53468322753906, -27.76942253112793
77,575039626,0.45476234,-0.58880556,-0.3328289,-0.57941717,10.242891311645508,-1.46152925491333,0.49934667348861694,-36.1136589050293,-103.73726654052734, -27.94936752319336
78,575056293,0.44355667,-0.59930485,-0.33952582,-0.57342255,10.211041450500488,-1.282493233680725,0.3874095678329468,-37.30818557739258,-109.56776428222656, -27.42464256286621
79,575072960,0.432159,-0.6098453,-0.34642977,-0.56684554,10.632075309753418,-0.7738784551620483,-0.05344182252883911,-36.13774108886719,-113.91109466552734, -27.399660110473633
80,575089627,0.42062712,-0.6202091,-0.3535592,-0.55982995,10.614666938781738,-0.6115485429763794,0.07891388237476349,-34.30363464355469,-116.45211791992188, -28.116573333740234
81,575106294,0.4092099,-0.6303161,-0.36086106,-0.5522938,11.060391426086426,-0.45266851782798767,-0.4600676894187927,-31.17454719543457,-118.14476013183594, -27.607545852661133
82,575122961,0.39694372,-0.64079213,-0.36677584,-0.54524934,11.006123542785645,-0.27854567766189575,-0.07590126246213913,-42.39668655395508,-115.76061248779297, -25.333641052246094
83,575139628,0.3836418,-0.6521091,-0.37109032,-0.5383907,10.56768798828125,-0.7355942130088806,-0.8163175582885742,-55.73635482788086,-116.4344253540039, -20.58016014099121
84,575156295,0.36949086,-0.6638864,-0.37465936,-0.5313772,11.222217559814453,-0.3879540264606476,-0.41955697536468506,-63.130218505859375,-119.08885955810547, -18.821733474731445
85,575172962,0.35433885,-0.67593575,-0.37691304,-0.52487284,11.879146575927734,-0.038499634712934494,-0.37323081493377686,-74.51409149169922,-117.04084014892578, -17.080581665039062
86,575189629,0.33858308,-0.6878225,-0.37817815,-0.5188863,11.959245681762695,0.6367882490158081,0.07549454271793365,-81.83733367919922,-113.23758697509766, -16.354938507080078
87,575206296,0.32218862,-0.69898176,-0.37893802,-0.51383364,11.998730659484863,1.2566604614257812,0.3384517431259155,-87.3968734741211,-106.74282836914062, -20.310033798217773
88,575222963,0.3056577,-0.7092858,-0.37921327,-0.5095924,12.924456596374512,1.0695669651031494,0.48424869775772095,-89.98316192626953,-99.13150024414062, -22.486719131469727
89,575239630,0.2904911,-0.7179887,-0.37990582,-0.50574577,12.16816234588623,-0.05270301178097725,1.0344724655151367,-79.53206634521484,-88.94412994384766, -24.744932174682617
90,575256297,0.27656165,-0.7251565,-0.38109756,-0.5024206,11.588613510131836,-0.7746987342834473,1.6047964096069336,-69.98545837402344,-78.8234634399414, -27.9698543548584
91,575272964,0.26258743,-0.7316687,-0.3822723,-0.49957678,11.155366897583008,-2.898892879486084,1.3217058181762695,-70.28730010986328,-74.27262878417969, -30.68788719177246
92,575289631,0.24406527,-0.7393168,-0.38143924,-0.49834433,11.702231407165527,-5.5848069190979,0.9911773204803467,-106.3610610961914,-78.4202651977539, -36.163902282714844
93,575306298,0.22074795,-0.7483076,-0.37869132,-0.49789482,11.678730010986328,-6.560895919799805,-1.5338048934936523,-141.62664794921875,-88.42688751220703, -40.702022552490234
94,575322965,0.19549225,-0.7575625,-0.3756547,-0.496755,12.298728942871094,-6.881809711456299,-4.907650947570801,-151.21157836914062,-97.49240112304688, -44.16615676879883
95,575339632,0.16538197,-0.7667418,-0.3699476,-0.4978904,17.62480354309082,-3.149808645248413,-4.0902252197265625,-191.42518615722656,-94.31360626220703, -50.13789749145508
96,575356299,0.1413285,-0.7712219,-0.36749363,-0.5001915,11.578353881835938,-10.919565200805664,0.5026280879974365,-145.97006225585938,-60.375457763671875, -59.8473014831543
97,575372966,0.12997751,-0.771126,-0.369296,-0.5020868,9.378376007080078,-7.380606651306152,1.6796302795410156,-58.52055740356445,-18.85418128967285, -49.96819305419922
98,575389633,0.12772231,-0.76789427,-0.37205204,-0.5055717,9.60183048248291,-5.336966514587402,-0.6111357808113098,-8.244736671447754,22.61227035522461, -33.04030227661133
99,575406300,0.13399796,-0.76215357,-0.3746994,-0.5106534,10.187263488769531,-3.984755039215088,0.17275439202785492,34.53434753417969,61.670249938964844, -10.646724700927734
100,575422967,0.14193505,-0.7550513,-0.37363786,-0.51975644,9.558443069458008,-2.139346122741699,3.158313512802124,21.12209129333496,95.20475769042969, 7.402723789215088
101,575439634,0.14855637,-0.7476992,-0.36566925,-0.53400654,8.123510360717773,-3.4981377124786377,1.885496973991394,-23.356306076049805,126.14749145507812, 32.90095520019531
102,575456301,0.16195491,-0.73948413,-0.35530382,-0.5483549,8.43381404876709,-4.806937217712402,-0.356874942779541,3.3263099193573,149.3018798828125, 67.83460998535156
103,575472968,0.18394874,-0.73007184,-0.34495822,-0.5605015,9.17656421661377,-4.393238544464111,-1.6339126825332642,53.821739196777344,163.609375, 99.65975952148438
104,575489635,0.21420455,-0.7182388,-0.3362515,-0.57024956,10.261838912963867,-2.6341285705566406,-1.137976884841919,110.37801361083984,178.44631958007812, 120.56804656982422
105,575506302,0.24680366,-0.7043994,-0.3259761,-0.5802146,10.992802619934082,-0.44391709566116333,-0.49723607301712036,118.26458740234375,195.12684631347656, 132.5637664794922
106,575522969,0.27817917,-0.69013876,-0.31190518,-0.5907961,11.266221046447754,-0.8505920767784119,-1.214453101158142,96.53910827636719,203.4979248046875, 144.1091766357422
107,575539636,0.30947375,-0.67491114,-0.29524034,-0.60129374,12.133265495300293,0.05875541269779205,-1.9394968748092651,87.65369415283203,211.83697509765625, 154.207275390625
108,575556303,0.3383034,-0.65922445,-0.2751361,-0.6125962,12.964228630065918,0.7153765559196472,-2.0273852348327637,61.34162902832031,219.81588745117188, 157.3695068359375
109,575572970,0.36459598,-0.6439138,-0.2513523,-0.6239125,13.160595893859863,-0.48544779419898987,-2.609875202178955,33.444610595703125,222.09144592285156, 164.08518981933594
110,575589637,0.39044422,-0.62753433,-0.22673321,-0.6343076,13.715450286865234,-0.1956760287284851,-2.842742443084717,32.176395416259766,223.97239685058594, 166.37229919433594
111,575606304,0.41612035,-0.60949904,-0.20216934,-0.64380324,13.977312088012695,-0.033143267035484314,-2.448000431060791,37.53329086303711,226.95188903808594, 165.25611877441406
112,575622971,0.4409162,-0.5903739,-0.17735197,-0.6523788,14.445006370544434,0.8944069743156433,-2.1246819496154785,37.12865447998047,227.47683715820312, 163.5824737548828
113,575639638,0.46466297,-0.57025594,-0.15305114,-0.65990293,14.795868873596191,0.9769377708435059,-2.2186732292175293,39.484352111816406,224.87159729003906, 158.8104248046875
114,575656305,0.48848853,-0.54765135,-0.13162254,-0.6664328,15.237420082092285,1.3750271797180176,-2.1802778244018555,61.82642364501953,223.22726440429688, 148.52137756347656
115,575672972,0.5126709,-0.5219264,-0.11420504,-0.6721001,15.474576950073242,1.013850450515747,-2.2441110610961914,92.81897735595703,221.20309448242188, 135.1842803955078
116,575689639,0.5375766,-0.49312785,-0.1013316,-0.67643803,15.499486923217773,-0.16235654056072235,-2.1916046142578125,128.3025360107422,215.2720947265625, 124.54638671875
117,575706306,0.56328714,-0.46128368,-0.093297765,-0.6791322,15.347277641296387,1.0214718580245972,-2.4940407276153564,165.96058654785156,206.63206481933594, 115.86921691894531
118,575722973,0.5839668,-0.4313973,-0.08499804,-0.68238884,14.752490043640137,3.23602294921875,-2.85512375831604,140.80406188964844,197.16783142089844, 92.3247299194336
119,575739640,0.60078484,-0.40607572,-0.07603379,-0.68438226,13.272149085998535,1.853775143623352,-5.487715721130371,108.60853576660156,172.50982666015625, 83.95513916015625
120,575756307,0.6125027,-0.3880364,-0.0668312,-0.685421,10.976425170898438,4.607990741729736,-6.896212577819824,63.67722702026367,133.98861694335938, 68.41006469726562
121,575772974,0.6184424,-0.37917024,-0.05871778,-0.68579257,8.522890090942383,3.879831314086914,-8.323266983032227,15.045931816101074,81.8382797241211, 45.32651138305664
122,575789641,0.6202446,-0.37697738,-0.056454744,-0.6855639,8.431324005126953,2.97045636177063,-9.08914852142334,3.7526869773864746,22.319406509399414, 15.885442733764648
123,575806308,0.6196549,-0.37891614,-0.06120666,-0.6846197,9.260669708251953,2.448944091796875,-8.121524810791016,13.291975021362305,-29.765878677368164, -8.893367767333984
124,575822975,0.61750996,-0.38367218,-0.07097901,-0.6829636,10.490992546081543,2.2802810668945312,-6.677299976348877,21.193239212036133,-66.84618377685547, -25.04362678527832
125,575839642,0.61443174,-0.39014006,-0.08436585,-0.68054914,11.46322250366211,1.8349107503890991,-5.492800235748291,28.81222152709961,-92.5995864868164, -34.88897705078125
126,575856309,0.61058724,-0.3977486,-0.10055561,-0.67739797,11.990644454956055,0.8826958537101746,-5.336742401123047,35.50115203857422,-112.12237548828125, -42.188026428222656
127,575872976,0.6065313,-0.4055952,-0.1198081,-0.67324466,12.24166202545166,0.3644886910915375,-5.592166423797607,48.902801513671875,-128.89227294921875, -47.163551330566406
128,575889643,0.6018503,-0.414068,-0.14086108,-0.66819334,12.396523475646973,0.9837499260902405,-5.333998203277588,53.62950897216797,-142.22169494628906, -50.83106231689453
129,575906310,0.5964243,-0.42255598,-0.1633741,-0.662596,12.532004356384277,1.7923184633255005,-5.858802795410156,58.709049224853516,-150.52708435058594, -56.12153244018555
130,575922977,0.58958304,-0.43115595,-0.1839175,-0.6577774,14.340757369995117,-2.502035617828369,0.606423020362854,44.286067962646484,-142.18853759765625, -59.90666961669922
131,575939644,0.58527076,-0.4395685,-0.19375867,-0.6532193,11.185835838317871,-16.583120346069336,17.281064987182617,3.823235511779785,-93.95822143554688, -18.049177169799805
132,575956311,0.58091736,-0.44848594,-0.20207915,-0.64850575,13.021516799926758,-5.280934810638428,2.4142956733703613,-4.902992248535156,-90.87078094482422, -12.528631210327148
133,575972978,0.5773106,-0.45412558,-0.21911408,-0.6422394,18.767412185668945,-4.788669586181641,-2.9485418796539307,51.5208740234375,-114.84878540039062, -34.47533416748047
134,575989645,0.5746899,-0.45807573,-0.24017182,-0.63420486,12.689233779907227,-1.996216893196106,0.10536779463291168,81.75337982177734,-127.34722900390625, -38.25403594970703
135,576006312,0.5722068,-0.46118587,-0.26077908,-0.6260043,11.341121673583984,0.8134515285491943,-0.2543659210205078,83.79130554199219,-122.28170776367188, -37.0108642578125
136,576022979,0.5702801,-0.46367478,-0.28127956,-0.6169833,10.986968040466309,-1.2815616130828857,-2.0630455017089844,88.96996307373047,-120.88739776611328, -32.1796875
137,576039646,0.57019484,-0.46356478,-0.30263147,-0.60695964,10.398868560791016,-0.15474052727222443,-3.2762014865875244,110.5674057006836,-112.91071319580078, -28.218496322631836
138,576056313,0.5674384,-0.46575308,-0.31917414,-0.5993461,11.026328086853027,2.3274805545806885,-0.5506124496459961,67.93307495117188,-101.57820892333984, -28.724788665771484
139,576072980,0.5616667,-0.47256625,-0.32927024,-0.5939637,10.808662414550781,0.4877443015575409,-0.4317416250705719,8.739312171936035,-95.0425033569336, -19.039505004882812
140,576089647,0.55333716,-0.48244405,-0.33454725,-0.590884,11.096205711364746,0.7975437045097351,-0.07256588339805603,-36.3191032409668,-87.33555603027344, -15.773273468017578
141,576106314,0.54468423,-0.4933559,-0.33724132,-0.58837694,10.670656204223633,-1.5172712802886963,0.2734523117542267,-53.15272903442383,-80.62610626220703, -8.303232192993164
142,576122981,0.53718257,-0.50316423,-0.34057185,-0.5850397,10.870485305786133,-0.48717013001441956,0.41165387630462646,-40.618343353271484,-78.759765625, -5.265015125274658
143,576139648,0.5301271,-0.5115803,-0.34419793,-0.58204705,12.37571907043457,0.6591387391090393,0.007766783237457275,-33.558921813964844,-72.07251739501953, -9.026183128356934
144,576156315,0.5222627,-0.51978743,-0.34623006,-0.58067846,12.395082473754883,-0.10126601904630661,1.2501020431518555,-45.87122344970703,-61.6687126159668, -13.054084777832031
145,576172982,0.5131815,-0.5284247,-0.34668356,-0.58070874,11.675795555114746,-0.4975987672805786,1.1108641624450684,-61.406707763671875,-55.66635513305664, -16.263946533203125
146,576189649,0.5029277,-0.53779125,-0.34681275,-0.5810036,11.227670669555664,-2.2319788932800293,1.2670038938522339,-70.17064666748047,-59.31401062011719, -18.960350036621094
147,576206316,0.49302748,-0.5466912,-0.3483563,-0.58025926,11.007105827331543,-2.938000202178955,2.0521488189697266,-59.12482833862305,-65.38358306884766, -20.315683364868164
148,576222983,0.4837835,-0.55503696,-0.35150218,-0.57821596,10.52519702911377,-2.832672595977783,1.6148195266723633,-45.275875091552734,-71.96307373046875, -20.669620513916016
149,576239650,0.47461432,-0.563339,-0.35598484,-0.57503504,10.125643730163574,-2.5512869358062744,0.914702296257019,-36.784751892089844,-80.43600463867188, -21.81954574584961
150,576256317,0.46505478,-0.5719001,-0.36128777,-0.57107407,9.931339263916016,-1.9337573051452637,0.5181624889373779,-33.99088668823242,-88.1418685913086, -23.379756927490234
151,576272984,0.45462787,-0.5811643,-0.36662441,-0.56669945,9.644647598266602,-1.4902739524841309,0.610242486000061,-38.492210388183594,-94.81298065185547, -23.861013412475586
152,576289651,0.44361407,-0.59090495,-0.37199906,-0.5618317,9.637398719787598,-1.0967683792114258,0.024833381175994873,-40.939388275146484,-100.26200866699219, -23.563535690307617
153,576306318,0.43163094,-0.6012465,-0.37710118,-0.55676955,9.990110397338867,-0.6032372117042542,-0.5142640471458435,-47.26848220825195,-105.03799438476562, -24.07247543334961
154,576322985,0.41851383,-0.6121911,-0.38137043,-0.5519284,10.16434383392334,-0.4634667932987213,-0.4349118769168854,-57.51015853881836,-106.9120864868164, -24.05900001525879
155,576339652,0.405094,-0.6233889,-0.38511607,-0.5467824,10.048388481140137,-0.5646082162857056,-0.4611595869064331,-60.70188522338867,-108.45806884765625, -21.45849609375
156,576356319,0.39101577,-0.63484687,-0.38814923,-0.5416793,10.592427253723145,-0.49408408999443054,-1.0250974893569946,-67.04232025146484,-109.02720642089844, -20.309022903442383
157,576372986,0.3767598,-0.64618075,-0.39101034,-0.53629625,10.942529678344727,-0.021856054663658142,-1.1742010116577148,-67.3789291381836,-109.81188201904297, -19.79558753967285
158,576389653,0.3617386,-0.65749556,-0.39341745,-0.53110045,11.28598690032959,0.7782126069068909,-0.529142439365387,-72.90892028808594,-109.80500793457031, -21.12965202331543
159,576406320,0.34589818,-0.6686843,-0.39505497,-0.526448,11.77927017211914,0.7925028204917908,0.5746444463729858,-80.57765197753906,-107.21662139892578, -22.321001052856445
160,576422987,0.32959193,-0.679555,-0.396129,-0.52216476,12.207802772521973,0.6903887391090393,0.8265722990036011,-85.00701141357422,-104.33977508544922, -23.148151397705078
161,576439654,0.31303695,-0.69012505,-0.39702922,-0.5177867,13.156189918518066,-0.19405215978622437,1.4078317880630493,-85.85333251953125,-104.03974151611328, -23.82843017578125
162,576456321,0.2964629,-0.7002086,-0.39765915,-0.51350254,12.780932426452637,-1.0690491199493408,1.549653172492981,-86.11959075927734,-101.39736938476562, -24.154678344726562
163,576472988,0.28014818,-0.709858,-0.39847228,-0.50876176,12.75037956237793,-2.649428129196167,1.5897186994552612,-82.09954071044922,-101.79344940185547, -24.401535034179688
164,576489655,0.26379386,-0.7189669,-0.39908698,-0.5042113,11.890559196472168,-4.305517673492432,2.9893150329589844,-82.47727966308594,-98.76798248291016, -25.46494483947754
165,576506322,0.2449519,-0.7281338,-0.3975812,-0.50174594,11.408738136291504,-5.7584075927734375,3.9329521656036377,-107.97872161865234,-91.72669219970703, -27.298311233520508
166,576522989,0.2198536,-0.73848873,-0.39307982,-0.501784,11.41714859008789,-6.29963493347168,-0.0126742422580719,-158.51719665527344,-95.44547271728516, -34.94791793823242
167,576539656,0.19207768,-0.74884206,-0.38964435,-0.50051874,13.148554801940918,-6.1863579750061035,-6.315751552581787,-164.9461212158203,-110.93795776367188, -47.73177719116211
168,576556323,0.16595797,-0.75751626,-0.3877682,-0.49825996,16.435104370117188,-3.3470091819763184,-6.4300761222839355,-146.20681762695312,-107.84854888916016, -53.333045959472656
169,576572990,0.13351913,-0.76452875,-0.3803935,-0.5029607,13.42127799987793,-10.91970157623291,0.35160839557647705,-214.6621856689453,-76.46346282958984, -58.77727508544922
170,576589657,0.12588185,-0.76390743,-0.38465726,-0.50263137,8.163947105407715,-10.086410522460938,3.695183038711548,-23.90263557434082,-22.382936477661133, -49.68492126464844
171,576606324,0.12772328,-0.75832874,-0.39117903,-0.50557256,10.760313034057617,-1.5996668338775635,3.552448034286499,29.294042587280273,34.943504333496094, -44.84798049926758
172,576622991,0.12503837,-0.7521715,-0.38982442,-0.5163724,10.907132148742676,-3.7038326263427734,4.309130668640137,-42.285491943359375,72.57555389404297, -27.98322296142578
173,576639658,0.12738402,-0.7452172,-0.38415402,-0.52995336,9.326590538024902,-6.707449436187744,1.7810050249099731,-38.34111785888672,106.88928985595703, 7.615432262420654
174,576656325,0.14222872,-0.7362614,-0.37922585,-0.5421051,9.699275970458984,-5.616438388824463,-0.11377514898777008,33.93446350097656,139.17616271972656, 45.24143600463867
175,576672992,0.16424964,-0.72631973,-0.3729371,-0.5535339,9.074981689453125,-4.1775031089782715,0.5168875455856323,68.04901885986328,159.21327209472656, 76.96426391601562
176,576689659,0.1917833,-0.71611106,-0.36395934,-0.5638598,9.255475044250488,-4.0942463874816895,0.06388089060783386,88.49199676513672,171.8714599609375, 111.92322540283203
177,576706326,0.22421665,-0.7042669,-0.3540458,-0.57305044,10.832303047180176,-1.7096741199493408,-1.2609574794769287,114.00723266601562,186.10389709472656, 132.92855834960938
178,576722993,0.25878167,-0.69122565,-0.34193522,-0.5816524,11.85338020324707,-1.5395222902297974,-1.8505598306655884,118.97103881835938,196.55345153808594, 149.9998779296875
179,576739660,0.29549426,-0.6762926,-0.3283576,-0.58948517,12.456154823303223,-0.675510585308075,-1.3672049045562744,128.5081787109375,208.14724731445312, 162.5302734375
180,576756327,0.33053756,-0.6599473,-0.31177974,-0.5983378,13.256434440612793,1.3747979402542114,-1.2104601860046387,109.16468811035156,220.9644012451172, 164.5140380859375
181,576772994,0.3609464,-0.64379674,-0.29014897,-0.6091446,14.059915542602539,1.3303730487823486,-2.1750011444091797,62.72212600708008,230.617431640625, 164.4420623779297
182,576789661,0.3894933,-0.62716866,-0.2664801,-0.61963105,14.24509048461914,0.24167633056640625,-2.5954928398132324,47.78306579589844,232.62103271484375, 165.60012817382812
183,576806328,0.41633865,-0.6100059,-0.24137148,-0.6295195,14.422924995422363,0.7475214600563049,-2.1921615600585938,36.856327056884766,233.158203125, 165.2592315673828
184,576822995,0.4409779,-0.59246117,-0.21429369,-0.6392233,15.170696258544922,2.1329240798950195,-2.3883614540100098,20.493732452392578,236.1215057373047, 163.95758056640625
185,576839662,0.46266195,-0.5752171,-0.18537839,-0.64861697,15.176187515258789,2.5380728244781494,-3.207327365875244,-0.06504915654659271,234.88327026367188, 159.96165466308594
186,576856329,0.4846958,-0.555963,-0.15868205,-0.6563501,15.037789344787598,1.8906025886535645,-3.332141876220703,19.745492935180664,230.8238067626953, 155.60560607910156
187,576872996,0.5076197,-0.5339828,-0.13585387,-0.66236585,15.193073272705078,2.1455326080322266,-3.2427356243133545,51.584739685058594,224.80841064453125, 147.71676635742188
188,576889663,0.5311127,-0.5091823,-0.11788101,-0.66690105,15.113968849182129,1.107133150100708,-3.363980293273926,87.03113555908203,215.9828643798828, 135.1526336669922
189,576906330,0.55672896,-0.48076856,-0.10665647,-0.6689835,15.164928436279297,-0.9898039102554321,-4.180750370025635,140.62338256835938,201.24041748046875, 127.41072082519531
190,576922997,0.58415395,-0.4480188,-0.10295226,-0.6689128,15.002074241638184,2.27994441986084,-3.8499755859375,199.4391632080078,186.84007263183594, 116.0085220336914
191,576939664,0.6039444,-0.41892305,-0.09788702,-0.67094916,14.166566848754883,4.910956859588623,-3.7144298553466797,153.47190856933594,176.81134033203125, 79.29540252685547
192,576956331,0.62025017,-0.39477608,-0.09378266,-0.67130214,12.453680038452148,2.0760598182678223,-7.19275426864624,128.41183471679688,143.01971435546875, 70.89207458496094
193,576972998,0.6296803,-0.3805285,-0.087937444,-0.6715415,10.73306941986084,4.672431945800781,-7.747134685516357,59.602210998535156,100.25194549560547, 50.82952880859375
194,576989665,0.63302636,-0.3760562,-0.08238935,-0.6716185,9.295243263244629,2.770214319229126,-8.951322555541992,2.8488245010375977,49.94450378417969, 28.70351791381836
195,577006332,0.6327942,-0.3767073,-0.0823771,-0.67147404,9.092080116271973,2.433903455734253,-8.503984451293945,-2.9932539463043213,-0.18683183193206787, 1.8057531118392944
196,577022999,0.6300371,-0.38120532,-0.08757889,-0.67086947,9.372114181518555,2.563930034637451,-7.189099311828613,-1.8873761892318726,-43.063758850097656, -19.076425552368164
197,577039666,0.6259731,-0.3880424,-0.09670108,-0.66949975,10.095319747924805,1.6924349069595337,-5.897089958190918,3.120676279067993,-73.44501495361328, -30.578392028808594
198,577056333,0.6217952,-0.39501196,-0.10987194,-0.66728157,11.157792091369629,1.6035118103027344,-4.550197124481201,21.473119735717773,-93.64189147949219, -38.10374450683594
199,577073000,0.6176519,-0.40152702,-0.12677687,-0.6642364,11.653782844543457,1.5823527574539185,-4.2324628829956055,41.29987335205078,-109.56896209716797, -44.828365325927734
200,577089667,0.61321115,-0.40773004,-0.14653227,-0.66049737,11.903898239135742,1.6092844009399414,-4.153578758239746,55.4182243347168,-122.22850799560547, -51.365291595458984
201,577106334,0.60822564,-0.41433227,-0.16809142,-0.6558474,12.23540210723877,1.1959145069122314,-5.08613395690918,61.32996368408203,-134.5616455078125, -54.62609100341797
202,577123001,0.6013609,-0.4227693,-0.18966877,-0.65088946,12.828388214111328,1.8478648662567139,-5.453993320465088,48.76897430419922,-145.75640869140625, -59.719512939453125
203,577139668,0.59191024,-0.4350615,-0.20037103,-0.64824015,15.597429275512695,-10.68636417388916,13.224599838256836,-26.356582641601562,-114.49325561523438, -44.125267028808594
204,577156335,0.5847459,-0.44744667,-0.20205756,-0.64578384,8.65819263458252,-10.56088924407959,14.622026443481445,-60.30244827270508,-74.6649398803711, -7.742664813995361
205,577173002,0.57622457,-0.4597643,-0.20724647,-0.64314145,16.96278190612793,-3.986647367477417,-6.635954856872559,-48.35695266723633,-91.232421875, -24.04212188720703
206,577189669,0.57223403,-0.46615583,-0.2248076,-0.63616705,17.28310203552246,-5.265810489654541,0.21053168177604675,50.42101287841797,-120.98320007324219, -34.39511489868164
207,577206336,0.56987,-0.4704434,-0.24443442,-0.62784004,10.11593246459961,-2.145402669906616,2.0912973880767822,75.09764862060547,-121.58279418945312, -31.918140411376953
208,577223003,0.5684767,-0.47340208,-0.26490378,-0.618507,11.58245849609375,-0.6490736603736877,-1.440316081047058,88.7715835571289,-120.77042388916016, -28.84193229675293
209,577239670,0.56822145,-0.47475195,-0.28733718,-0.60759556,11.44920539855957,-2.3922462463378906,-1.6335227489471436,110.00028228759766,-124.56494903564453, -27.226829528808594
210,577256337,0.5674304,-0.4751517,-0.3084987,-0.5975637,10.21474552154541,-0.20915482938289642,-0.310935378074646,104.92903137207031,-113.70967102050781, -30.749361038208008
211,577273004,0.5625885,-0.47954714,-0.32264444,-0.5911255,10.30240535736084,0.32922083139419556,-0.20187199115753174,39.631370544433594,-99.56104278564453, -30.064260482788086
212,577289671,0.5552647,-0.48696792,-0.33156756,-0.587032,10.702371597290039,-0.3959548771381378,-0.62677401304245,-6.708171367645264,-89.4044418334961, -25.270967483520508
213,577306338,0.5476361,-0.49456137,-0.33857167,-0.5838434,10.175554275512695,-0.5765659809112549,-0.9734100699424744,-18.21199607849121,-80.40760040283203, -23.106185913085938
214,577323005,0.5416094,-0.5003838,-0.3462538,-0.5799858,10.710061073303223,-0.3481118083000183,-0.2862686514854431,-1.8219588994979858,-74.36502075195312, -20.561382293701172
215,577339672,0.537214,-0.5037823,-0.35448018,-0.57614976,11.551680564880371,0.4657861590385437,0.20023787021636963,14.920494079589844,-62.751529693603516, -21.766002655029297
216,577356339,0.5327306,-0.50793105,-0.36098048,-0.5726233,11.383516311645508,-1.2259199619293213,0.8841286897659302,4.233712673187256,-58.484554290771484, -15.415715217590332
217,577373006,0.5268508,-0.51292807,-0.36561003,-0.57066846,11.078018188476562,0.16918016970157623,1.5368714332580566,-15.026942253112793,-52.97343826293945, -18.030235290527344
218,577389673,0.5178369,-0.5206564,-0.36718944,-0.5709062,11.030828475952148,-1.3810572624206543,1.2026134729385376,-53.48060989379883,-52.841697692871094, -20.583599090576172
219,577406340,0.50692475,-0.53023696,-0.36830586,-0.5711627,10.523341178894043,-2.704954147338867,1.725579857826233,-68.74748229980469,-63.240966796875, -21.725317001342773
220,577423007,0.4949318,-0.5409539,-0.37026572,-0.57036364,10.353559494018555,-2.7216663360595703,1.5101205110549927,-70.666748046875,-77.30546569824219, -22.48179054260254
221,577439674,0.48218763,-0.55212617,-0.3742087,-0.5679963,10.07068157196045,-2.023793935775757,0.9105157852172852,-63.25163650512695,-93.65840148925781, -26.311498641967773
222,577456341,0.4688089,-0.563666,-0.37975472,-0.5641678,10.01213264465332,-1.5258612632751465,1.1572109460830688,-56.867225646972656,-107.64897918701172, -29.078886032104492
223,577473008,0.45486185,-0.57574344,-0.38584462,-0.5592356,10.352680206298828,-1.494301676750183,1.0698895454406738,-55.82700729370117,-117.35456085205078, -28.426090240478516
224,577489675,0.4410184,-0.5874763,-0.3928103,-0.55324006,10.609903335571289,-1.2181529998779297,0.9006861448287964,-48.16549301147461,-122.86776733398438, -29.098543167114258
225,577506342,0.42730337,-0.5985978,-0.4007847,-0.5463189,10.995781898498535,-0.32127684354782104,0.7558308243751526,-39.48204040527344,-127.19256591796875, -31.556577682495117
226,577523009,0.41312262,-0.60980666,-0.408992,-0.5386942,11.353667259216309,-0.25101301074028015,0.1767890304327011,-38.86570358276367,-132.6087646484375, -31.9716854095459
227,577539676,0.3990278,-0.6207686,-0.41712484,-0.5305,11.477006912231445,-0.41183745861053467,0.5188660621643066,-36.49956512451172,-133.8515625, -30.440462112426758
228,577556343,0.38469654,-0.6316173,-0.42426696,-0.52255684,11.628011703491211,-0.04562573879957199,-0.06938764452934265,-41.5549430847168,-130.56890869140625, -28.122060775756836
229,577573010,0.36926466,-0.64273465,-0.42991355,-0.51547074,11.781527519226074,0.3289218842983246,0.016857296228408813,-54.939788818359375,-127.29020690917969, -27.090085983276367
230,577589677,0.3524206,-0.65439934,-0.43389204,-0.50921416,11.502692222595215,-0.14595042169094086,-0.29549363255500793,-70.94978332519531,-125.726806640625, -25.2275390625
231,577606344,0.33529785,-0.6658937,-0.43706268,-0.5031276,12.202091217041016,-0.18192830681800842,0.03036963939666748,-75.14187622070312,-123.4439926147461, -23.519689559936523
232,577623011,0.3180188,-0.676887,-0.43960208,-0.49743176,12.682647705078125,0.18431028723716736,0.6007511615753174,-78.07688903808594,-119.14319610595703, -23.6132755279541
233,577639678,0.30018637,-0.68726075,-0.44132125,-0.49274382,12.873041152954102,0.7726117968559265,0.9899406433105469,-85.16355895996094,-112.42533874511719, -25.79751968383789
234,577656345,0.28191593,-0.69706285,-0.44238257,-0.48879895,13.591814041137695,-0.007061152718961239,0.8346111178398132,-90.54248046875,-107.15702819824219, -27.467731475830078
235,577673012,0.26418844,-0.705756,-0.44346982,-0.4852295,13.261167526245117,-1.3429532051086426,1.731187343597412,-86.8628921508789,-100.22349548339844, -29.91566276550293
236,577689679,0.2475046,-0.7131311,-0.44460204,-0.48219764,12.413830757141113,-3.572432518005371,2.6467721462249756,-80.9164047241211,-90.31330871582031, -31.730228424072266
237,577706346,0.23091759,-0.7197595,-0.44458422,-0.48059168,11.409053802490234,-5.786505699157715,3.2691190242767334,-87.38446807861328,-78.7867202758789, -30.60684585571289
238,577723013,0.21156038,-0.72684246,-0.44197264,-0.48125076,10.743535995483398,-5.545422554016113,1.2578734159469604,-117.37036895751953,-73.60993194580078, -29.29537582397461
239,577739680,0.18563007,-0.73504645,-0.43711606,-0.4839193,12.130203247070312,-4.195828914642334,-5.127359390258789,-165.4508056640625,-84.09784698486328, -39.493350982666016
240,577756347,0.15816677,-0.74280226,-0.43156847,-0.48680294,16.799734115600586,-2.360919237136841,-7.350637435913086,-175.62164306640625,-85.21709442138672, -42.83872604370117
241,577773014,0.13285646,-0.74749464,-0.42663756,-0.4915093,12.689964294433594,-10.746953010559082,-0.2919265031814575,-164.67454528808594,-59.916744232177734, -49.944480895996094
242,577789681,0.1270945,-0.74694693,-0.43004215,-0.49089837,7.702269554138184,-8.395862579345703,1.9730631113052368,-15.732844352722168,-19.904375076293945, -37.46245574951172
243,577806348,0.13140176,-0.7432123,-0.43556747,-0.49056116,9.61152458190918,-4.096823692321777,2.3151190280914307,45.064697265625,20.077207565307617, -24.164880752563477
244,577823015,0.13894507,-0.73784786,-0.43784395,-0.49453762,9.78040885925293,-2.6063778400421143,2.8847646713256836,39.200984954833984,60.12434768676758, -5.480014324188232
245,577839682,0.14592446,-0.7315626,-0.4348048,-0.50444734,8.046513557434082,-2.7529993057250977,1.817274570465088,1.308538556098938,96.62500762939453, 11.099188804626465
246,577856349,0.15585358,-0.72476995,-0.4272955,-0.5175294,7.226734161376953,-4.805193901062012,1.0667082071304321,-8.307324409484863,127.59420776367188, 39.08478546142578
247,577873016,0.17168872,-0.7171374,-0.41748908,-0.5309803,7.107646465301514,-3.9188785552978516,0.7030767798423767,12.77450180053711,152.21217346191406, 68.62562561035156
248,577889683,0.19190644,-0.70917207,-0.40503168,-0.5442392,8.112533569335938,-2.6234078407287598,-0.25084391236305237,25.66190528869629,168.18199157714844, 96.93762969970703
249,577906350,0.21703008,-0.69977623,-0.39177743,-0.5565267,9.519429206848145,-1.3670886754989624,-0.3300246000289917,51.21849060058594,183.51962280273438, 116.47759246826172
250,577923017,0.24451904,-0.6887936,-0.37759408,-0.5685041,10.483257293701172,-0.47391924262046814,-0.9426270723342896,62.2783088684082,195.8587188720703, 126.21117401123047
251,577939684,0.27345464,-0.67714244,-0.36145008,-0.57970226,11.495790481567383,-1.6337121725082397,-1.7985197305679321,64.6380844116211,201.85009765625, 140.77537536621094
252,577956351,0.30459675,-0.6642272,-0.3444018,-0.58941525,12.352485656738281,-1.2671259641647339,-2.190479278564453,77.39724731445312,207.19786071777344, 153.46205139160156
253,577973018,0.3352987,-0.6504357,-0.32518327,-0.5989694,13.13743782043457,-0.32806843519210815,-2.221693992614746,68.82420349121094,213.58421325683594, 159.89495849609375
254,577989685,0.365496,-0.6360538,-0.30379003,-0.6079145,13.399365425109863,-1.1552125215530396,-2.458279609680176,60.357234954833984,217.2548828125, 167.70497131347656
255,578006352,0.39674854,-0.61947685,-0.28240645,-0.61569935,14.133687973022461,-0.15439800918102264,-2.293456792831421,72.98331451416016,223.63612365722656, 170.47828674316406
256,578023019,0.42687136,-0.60123163,-0.25979137,-0.62354636,15.008541107177734,1.2460945844650269,-2.023557662963867,67.41412353515625,232.2395782470703, 167.63331604003906
257,578039686,0.45433462,-0.58247,-0.23502147,-0.6317229,15.500716209411621,1.711501955986023,-1.9046941995620728,48.127113342285156,237.51268005371094, 163.3824920654297
258,578056353,0.47944987,-0.56342715,-0.20929253,-0.63943285,15.794562339782715,1.4564311504364014,-2.3891093730926514,36.204444885253906,236.2003173828125, 158.17083740234375
259,578073020,0.5038346,-0.54253566,-0.18530062,-0.6461188,16.398317337036133,0.8439763784408569,-2.592859983444214,48.600223541259766,233.74046325683594, 149.0850067138672
260,578089687,0.5286651,-0.5187903,-0.16479,-0.65131724,16.588409423828125,-0.05358147993683815,-2.421416759490967,77.53422546386719,229.55116271972656, 139.72703552246094
261,578106354,0.5545787,-0.49193418,-0.14915493,-0.6543671,16.406232833862305,-0.1988755762577057,-3.0031285285949707,117.00569152832031,219.502197265625, 131.58377075195312
262,578123021,0.578643,-0.46378982,-0.13727961,-0.65667784,15.717005729675293,4.141235828399658,-2.9372150897979736,133.359375,206.7573699951172, 112.1366195678711
263,578139688,0.5962339,-0.44055328,-0.12450652,-0.65948176,14.151741027832031,3.1215882301330566,-5.1391119956970215,88.63223266601562,183.81704711914062, 88.57559204101562
264,578156355,0.6101766,-0.42230678,-0.114070274,-0.66055256,12.232595443725586,4.657074451446533,-7.664492130279541,69.19204711914062,143.44424438476562, 76.43043518066406
265,578173022,0.6174162,-0.41326866,-0.104631715,-0.66110414,9.598794937133789,4.942289352416992,-9.256095886230469,16.050291061401367,90.8750228881836, 52.61545944213867
266,578189689,0.62039924,-0.41064695,-0.10120649,-0.66047776,8.636556625366211,4.075118064880371,-10.482146263122559,4.913752555847168,29.959609985351562, 25.90105438232422
267,578206356,0.6204818,-0.41186714,-0.105957076,-0.6588938,9.253118515014648,3.7685625553131104,-9.69926643371582,18.18482208251953,-26.914920806884766, -3.4977986812591553
268,578223023,0.61844057,-0.416151,-0.11652716,-0.65633166,10.324553489685059,3.3892884254455566,-8.202195167541504,26.20478057861328,-69.76699829101562, -23.131977081298828
269,578239690,0.61447394,-0.42317483,-0.13005663,-0.6530163,11.366257667541504,2.734945774078369,-6.507319927215576,23.030832290649414,-98.2625503540039, -34.82835388183594
270,578256357,0.608918,-0.43206462,-0.14541219,-0.649149,12.333660125732422,2.1116223335266113,-5.85569429397583,19.228057861328125,-117.24693298339844, -43.23138427734375
271,578273024,0.6024027,-0.44177303,-0.16228062,-0.64468044,12.735918045043945,1.7818728685379028,-5.497282028198242,20.315523147583008,-129.84738159179688, -48.63518524169922
272,578289691,0.59509116,-0.4520321,-0.17985913,-0.6396752,12.656905174255371,1.745385766029358,-5.438735008239746,19.385913848876953,-137.63043212890625, -51.44600296020508
273,578306358,0.5858631,-0.46407342,-0.194281,-0.6353386,14.304652214050293,-2.900298833847046,-0.7944227457046509,-8.561616897583008,-132.73583984375, -50.558963775634766
274,578323025,0.57837534,-0.47544312,-0.2004801,-0.6318571,12.381499290466309,-12.002955436706543,13.223323822021484,-37.32663345336914,-91.59989929199219, -21.06792449951172
275,578339692,0.5703613,-0.48627523,-0.20526545,-0.6293572,12.68212604522705,-2.990307092666626,4.388051509857178,-44.38896942138672,-81.42814636230469, -23.550817489624023
276,578356359,0.56477785,-0.49273485,-0.21716703,-0.6253616,17.25421142578125,-4.016504764556885,-1.8730487823486328,13.776002883911133,-92.06625366210938, -37.155765533447266
277,578373026,0.5612892,-0.4969222,-0.23339595,-0.6193138,13.282315254211426,-3.7849700450897217,0.028060108423233032,51.40419006347656,-102.83071899414062, -38.264915466308594
278,578389693,0.5607399,-0.49858606,-0.25281304,-0.61079335,11.49047565460205,-3.049175500869751,-2.3529438972473145,88.75050354003906,-108.10600280761719, -31.22893714904785
279,578406360,0.562031,-0.49777365,-0.27594817,-0.600163,11.989129066467285,-0.8856683969497681,-2.1343798637390137,123.91629791259766,-116.02950286865234, -32.513736724853516
280,578423027,0.56249064,-0.49678054,-0.29892033,-0.5894574,10.091704368591309,0.33674854040145874,-0.021196871995925903,121.23838806152344,-116.4410400390625, -35.507633209228516
281,578439694,0.5598162,-0.49863777,-0.3175614,-0.58062154,9.862773895263672,0.21376065909862518,0.4753398895263672,78.08261108398438,-111.31651306152344, -34.83088302612305
282,578456361,0.5524163,-0.5057648,-0.33003044,-0.5745592,11.090526580810547,-0.13011763989925385,0.1649908721446991,10.873457908630371,-109.4488754272461, -31.71747589111328
283,578473028,0.5422063,-0.515399,-0.3386467,-0.57069683,10.631109237670898,-0.5204270482063293,0.09489569067955017,-28.656513214111328,-103.49079895019531, -32.074771881103516
284,578489695,0.5319166,-0.5249886,-0.34586668,-0.567299,10.343526840209961,-1.2149817943572998,-0.39093905687332153,-35.351261138916016,-96.71183013916016, -29.261274337768555
285,578506362,0.5234469,-0.5323087,-0.35404804,-0.56329477,11.69196891784668,-0.24030573666095734,-0.021059289574623108,-15.300769805908203,-89.29781341552734, -28.819250106811523
286,578523029,0.5149015,-0.5388143,-0.36125267,-0.5604037,11.720576286315918,-1.259319543838501,1.4997330904006958,-19.155555725097656,-78.80658721923828, -31.51621437072754
287,578539696,0.5074338,-0.54417264,-0.368112,-0.5575669,11.60986328125,-0.977881669998169,0.906144917011261,-12.589445114135742,-70.39444732666016, -29.141971588134766
288,578556363,0.4976288,-0.5510608,-0.37296343,-0.5564135,11.153413772583008,-1.1494265794754028,1.5119630098342896,-38.65155792236328,-68.96807098388672, -32.59760665893555
289,578573030,0.48656765,-0.5588317,-0.37660435,-0.55599326,10.543326377868652,-2.3615753650665283,0.7412136793136597,-52.96331787109375,-68.76082611083984, -33.06800842285156
290,578589697,0.4748681,-0.5669699,-0.38021278,-0.5554132,10.494340896606445,-2.7405033111572266,1.101428508758545,-56.37104415893555,-72.4200668334961, -33.929176330566406
291,578606364,0.46354693,-0.5747401,-0.38450414,-0.554035,10.002090454101562,-2.2644734382629395,0.6544169187545776,-49.013824462890625,-75.46956634521484, -33.54340362548828
292,578623031,0.45224193,-0.58246845,-0.38984498,-0.5515693,9.802384376525879,-1.6981881856918335,0.4201841950416565,-41.957149505615234,-82.99909973144531, -34.3091926574707
293,578639698,0.44080353,-0.59046036,-0.39602122,-0.54791975,9.833943367004395,-1.376603364944458,0.23105475306510925,-36.98286819458008,-91.77690887451172, -33.79908752441406
294,578656365,0.4298857,-0.598339,-0.40314916,-0.5428257,9.889745712280273,-1.675659418106079,0.21834228932857513,-27.01774024963379,-98.757568359375, -31.654863357543945
295,578673032,0.4195256,-0.6058562,-0.41102836,-0.5366491,10.393078804016113,-0.889428973197937,-0.5472714900970459,-17.86136245727539,-102.61282348632812, -30.49772071838379
296,578689699,0.40891162,-0.61357933,-0.4189506,-0.5298984,10.469441413879395,-0.5742982029914856,-0.47388342022895813,-17.739791870117188,-106.66397094726562, -29.392284393310547
297,578706366,0.3974228,-0.6218303,-0.42587402,-0.52346337,10.855319023132324,0.20238660275936127,-0.5358057022094727,-27.4709415435791,-107.03040313720703, -27.74205207824707
298,578723033,0.38444674,-0.6309986,-0.43099263,-0.5179642,11.133827209472656,0.5585605502128601,-0.3795536160469055,-45.576515197753906,-105.82011413574219, -25.243513107299805
299,578739700,0.36987758,-0.64084804,-0.4343125,-0.51369,11.548627853393555,0.8890761137008667,-0.6548820734024048,-64.33026123046875,-102.9724349975586, -24.31800079345703
300,578756367,0.3536752,-0.65110695,-0.4367948,-0.51008254,11.393891334533691,0.5563727617263794,-0.2543289065361023,-77.51651763916016,-104.30255889892578, -26.85071563720703
301,578773034,0.33751467,-0.6609755,-0.43964288,-0.505875,11.621039390563965,0.1552465260028839,0.470466673374176,-73.29727172851562,-106.4693603515625, -28.047544479370117
302,578789701,0.3214165,-0.67011136,-0.44278377,-0.50158244,12.65473461151123,1.0980991125106812,0.767920970916748,-70.0413818359375,-104.9054946899414, -31.18781852722168
303,578806368,0.30563426,-0.6785946,-0.44580084,-0.49735188,13.043396949768066,0.5345619916915894,1.3758344650268555,-67.75408172607422,-101.25308990478516, -31.648662567138672
304,578823035,0.29123658,-0.6858896,-0.4496991,-0.49245045,13.118185997009277,0.38063380122184753,1.6044363975524902,-53.73080062866211,-98.0647201538086, -33.27196502685547
305,578839702,0.27807316,-0.69199055,-0.45455238,-0.4870386,13.254240989685059,0.12541328370571136,2.033297300338745,-40.70737075805664,-94.66785430908203, -36.290958404541016
306,578856369,0.26564205,-0.6972717,-0.45985347,-0.48143688,13.08080768585205,-2.046895980834961,2.5332157611846924,-33.56444549560547,-91.54669189453125, -38.20191955566406
307,578873036,0.25466546,-0.70170945,-0.4651559,-0.47579366,11.732259750366211,-4.4009222984313965,3.626185178756714,-24.935131072998047,-84.521484375, -36.064483642578125
308,578889703,0.24141729,-0.7069452,-0.4672133,-0.4729252,10.868850708007812,-6.2518181800842285,3.6017699241638184,-56.81932830810547,-75.5045166015625, -30.272024154663086
309,578906370,0.22201076,-0.7138322,-0.4672163,-0.47208467,11.059934616088867,-6.700693607330322,-1.076133370399475,-102.74547576904297,-87.55520629882812, -38.54197692871094
310,578923037,0.19844423,-0.7218048,-0.46659517,-0.47106978,13.021590232849121,-5.84154748916626,-6.927769660949707,-126.35875701904297,-104.40265655517578, -45.404319763183594
311,578939704,0.17144631,-0.730073,-0.46380687,-0.47168106,17.294721603393555,-1.0360875129699707,-6.930352210998535,-156.1092529296875,-105.29100799560547, -47.19527053833008
312,578956371,0.13645521,-0.73778397,-0.45333704,-0.48118666,12.63443660736084,-11.049567222595215,0.14459550380706787,-248.92294311523438,-75.27055358886719, -46.92485427856445
313,578973038,0.122553736,-0.7388224,-0.45229065,-0.4843093,7.194595813751221,-9.004836082458496,3.1962647438049316,-84.67059326171875,-28.763559341430664, -40.0380744934082
314,578989705,0.116115734,-0.7362103,-0.45141274,-0.4906509,9.559523582458496,-2.893277168273926,3.332557201385498,-53.187255859375,22.700971603393555, -30.301069259643555
315,579006372,0.10980001,-0.73242,-0.4455567,-0.5029752,10.10848617553711,-3.4607815742492676,2.6327037811279297,-86.97057342529297,61.185997009277344, -13.218173027038574
316,579023039,0.10872743,-0.727504,-0.43669474,-0.51789397,8.780131340026855,-5.761528968811035,0.9151557683944702,-78.04010009765625,96.3741226196289, 14.524063110351562
317,579039706,0.119232036,-0.72151166,-0.42887688,-0.53034836,7.875832557678223,-5.9314494132995605,-0.11507971584796906,-8.210663795471191,121.80418395996094, 48.99108123779297
318,579056373,0.13887078,-0.7147474,-0.42177516,-0.5403306,7.715580463409424,-4.249358177185059,0.06400661915540695,47.63408660888672,138.6656036376953, 78.38200378417969
319,579073040,0.16487105,-0.7078974,-0.4136657,-0.5482514,7.919105052947998,-4.154811859130859,-0.6042288541793823,81.22835540771484,148.21604919433594, 108.63414764404297
320,579089707,0.19660403,-0.6996639,-0.4057126,-0.5542697,9.115355491638184,-1.817980408668518,-1.0929290056228638,116.71781158447266,160.26075744628906, 127.67169952392578
321,579106374,0.22925857,-0.6901487,-0.39557672,-0.56094086,10.263068199157715,-0.0744648352265358,-1.7432405948638916,112.76748657226562,173.77154541015625, 137.25146484375
322,579123041,0.2605557,-0.6807515,-0.3815734,-0.56840986,10.72447395324707,-0.9588684439659119,-1.96116042137146,89.08203125,179.4973907470703, 149.49252319335938
323,579139708,0.29168767,-0.67068875,-0.3655648,-0.5757233,11.251220703125,-0.07963021099567413,-2.557013511657715,82.09333038330078,184.5425262451172, 156.80824279785156
324,579156375,0.32074755,-0.66011375,-0.34709525,-0.5838631,11.84282398223877,0.4688558578491211,-2.261488437652588,61.773521423339844,190.15679931640625, 157.07382202148438
325,579173042,0.34724095,-0.64947027,-0.32613313,-0.592663,12.354219436645508,-0.4695795476436615,-2.828859329223633,38.72096252441406,192.8615264892578, 156.5454864501953
326,579189709,0.37350637,-0.63794553,-0.30445796,-0.60068613,12.724281311035156,-1.4449350833892822,-2.6968066692352295,38.67776870727539,194.271240234375, 158.74591064453125
327,579206376,0.40034676,-0.6245117,-0.283281,-0.6078318,13.448029518127441,-0.19209130108356476,-2.754810333251953,50.03907775878906,198.33526611328125, 157.24879455566406
328,579223043,0.42717844,-0.6093828,-0.2619799,-0.614441,13.890195846557617,0.6390881538391113,-2.2804479598999023,55.23405456542969,203.56407165527344, 156.02854919433594
329,579239710,0.45294434,-0.5933288,-0.24005377,-0.620626,14.324895858764648,1.1118427515029907,-2.1154825687408447,51.6529426574707,205.73939514160156, 153.8654327392578
330,579256377,0.4784028,-0.57585037,-0.2188876,-0.6257919,14.779993057250977,0.6966150403022766,-1.9892960786819458,59.797767639160156,204.93238830566406, 150.4416961669922
331,579273044,0.50452864,-0.5556853,-0.20059192,-0.629625,15.527274131774902,0.15380501747131348,-2.3708086013793945,85.6768798828125,202.93980407714844, 142.45848083496094
332,579289711,0.53251857,-0.53161085,-0.18619289,-0.6317804,16.266929626464844,-0.7685257196426392,-1.8097467422485352,125.59375,202.7084197998047, 136.24447631835938
333,579306378,0.5614125,-0.50428826,-0.17539546,-0.63225466,16.234580993652344,0.6251248121261597,-1.8746986389160156,158.63983154296875,198.8567657470703, 129.16636657714844
334,579323045,0.5869116,-0.47667658,-0.16587012,-0.63308877,15.681729316711426,4.431215763092041,-1.878588318824768,153.0988311767578,192.59596252441406, 108.43714904785156
335,579339712,0.6064427,-0.4531205,-0.1549199,-0.63475126,14.33938217163086,2.6340291500091553,-3.7711095809936523,109.97956848144531,176.86265563964844, 88.65010070800781
336,579356379,0.62261474,-0.4333106,-0.14568444,-0.63511336,13.072670936584473,4.063642978668213,-6.0697784423828125,92.77679443359375,146.03643798828125, 78.2523193359375
337,579373046,0.6321399,-0.4213355,-0.136673,-0.63576424,11.084142684936523,4.802526950836182,-8.38124942779541,40.12517547607422,105.41793823242188, 55.3689079284668
338,579389713,0.63654095,-0.4161269,-0.13124873,-0.63594645,9.591087341308594,5.006448745727539,-10.338519096374512,12.013021469116211,54.44190979003906, 31.17880630493164
339,579406380,0.6367687,-0.41613063,-0.13257822,-0.6354401,9.752513885498047,5.054925441741943,-10.990768432617188,7.458682537078857,-3.270486354827881, 1.5279579162597656
340,579423047,0.6332315,-0.42083183,-0.14047275,-0.6341812,10.494925498962402,4.701643466949463,-10.998286247253418,5.532966136932373,-57.733665466308594, -25.93231773376465
341,579439714,0.6271715,-0.42891422,-0.15342048,-0.63178396,11.744664192199707,3.446108818054199,-9.826504707336426,6.6942033767700195,-99.81168365478516, -43.14638137817383
342,579456381,0.6196173,-0.4388799,-0.1707391,-0.62793887,12.88762092590332,2.9634406566619873,-8.775893211364746,14.740726470947266,-132.29733276367188, -54.139442443847656
343,579473048,0.61112726,-0.44957063,-0.19154035,-0.62267345,14.0614595413208,2.5469610691070557,-8.002989768981934,25.579694747924805,-155.27427673339844, -61.66044235229492
344,579489715,0.6020528,-0.4616654,-0.20670292,-0.6177956,15.646017074584961,-9.437154769897461,8.409233093261719,-6.719384670257568,-136.82479858398438, -46.37990951538086
345,579506382,0.59538084,-0.47272623,-0.2145572,-0.6132023,10.34045696258545,-9.803993225097656,14.836605072021484,-26.209918975830078,-97.98977661132812, -15.778275489807129
346,579523049,0.58612454,-0.48528647,-0.22198595,-0.60965353,15.176952362060547,-0.9371502995491028,-3.550978183746338,-44.081207275390625,-103.42864227294922, -27.558412551879883
347,579539716,0.5775234,-0.49597186,-0.23511906,-0.6043158,18.272811889648438,-1.0977554321289062,-2.9138641357421875,-7.655052185058594,-123.37493896484375, -39.43390655517578
348,579556383,0.5681069,-0.50710464,-0.24903835,-0.59839743,13.025201797485352,-1.9974234104156494,0.3764241635799408,-7.972285747528076,-131.50119018554688, -42.417118072509766
349,579573050,0.5608087,-0.5153881,-0.26527998,-0.5911815,11.973357200622559,-0.838236927986145,-0.24502548575401306,22.322650909423828,-129.7826385498047, -41.6547966003418
350,579589717,0.5547871,-0.521523,-0.282487,-0.58346075,10.506600379943848,-2.129115343093872,0.6165226101875305,39.96721267700195,-124.27200317382812, -41.91115951538086
351,579606384,0.5502245,-0.5259346,-0.29878283,-0.5756515,9.162698745727539,-2.921696186065674,0.13048167526721954,48.280357360839844,-111.45873260498047, -35.90975570678711
352,579623051,0.5453713,-0.5305969,-0.3119447,-0.56897074,10.017477035522461,-2.1801376342773438,-1.0355849266052246,31.551074981689453,-97.21148681640625, -29.614545822143555
353,579639718,0.53888464,-0.53656656,-0.32149923,-0.56421477,10.453715324401855,-1.7926020622253418,-1.433866262435913,2.4411323070526123,-85.35227966308594, -27.337642669677734
354,579656385,0.5320725,-0.54222125,-0.32882392,-0.56104374,10.25782585144043,-2.141537666320801,-1.4588830471038818,-9.761316299438477,-70.80767822265625, -26.987680435180664
355,579673052,0.52619845,-0.5462222,-0.33576697,-0.55858487,10.374310493469238,-1.7766762971878052,-0.5291459560394287,-3.31201434135437,-58.327781677246094, -28.340818405151367
356,579689719,0.5214528,-0.54870576,-0.34306103,-0.5561638,10.643112182617188,-1.101207971572876,-0.34800270199775696,7.6496405601501465,-51.12246322631836, -29.01278305053711
357,579706386,0.51698524,-0.55016315,-0.35095853,-0.553963,11.076882362365723,-0.04071960970759392,0.6063123941421509,14.13208293914795,-47.9728889465332, -33.46882247924805
358,579723053,0.5119575,-0.55171263,-0.35880324,-0.5520626,11.467795372009277,-0.2540338337421417,1.5060961246490479,10.717156410217285,-48.47301483154297, -36.25297927856445
359,579739720,0.5053763,-0.5545092,-0.36615235,-0.55049676,11.111865997314453,-1.616294026374817,1.9800333976745605,-2.3215839862823486,-54.16793441772461, -38.37796401977539
360,579756387,0.4973762,-0.558439,-0.3739813,-0.5485444,10.550369262695312,-2.0309200286865234,1.4031283855438232,-8.917341232299805,-65.32852172851562, -41.422725677490234
361,579773054,0.4876512,-0.5639265,-0.38215786,-0.546021,10.425496101379395,-2.528071880340576,1.4523721933364868,-18.12151336669922,-79.1596908569336, -43.3546142578125
362,579789721,0.47685257,-0.57029593,-0.39018476,-0.54325885,10.303564071655273,-2.2812159061431885,1.7299048900604248,-25.200624465942383,-85.85615539550781, -43.74715805053711
363,579806388,0.46524763,-0.5773002,-0.39738393,-0.5406989,10.156001091003418,-2.190779685974121,0.9791659116744995,-34.108943939208984,-87.02992248535156, -42.52337646484375
364,579823055,0.45308053,-0.5848334,-0.4044577,-0.53768235,9.865251541137695,-2.0102241039276123,0.41475874185562134,-37.27352523803711,-92.06770324707031, -41.255516052246094
365,579839722,0.44011548,-0.5930798,-0.4117183,-0.5338942,9.640857696533203,-1.7069809436798096,0.6899079084396362,-39.88740158081055,-100.71635437011719, -40.61122512817383
366,579856389,0.42718452,-0.60172063,-0.41974214,-0.528453,9.547603607177734,-1.953717589378357,0.4190870523452759,-33.47837448120117,-111.2337417602539, -37.51726150512695
367,579873056,0.4150209,-0.6100317,-0.42895478,-0.52116865,10.192692756652832,-1.4278993606567383,-0.1708688735961914,-19.713260650634766,-119.0467529296875, -35.23526382446289
368,579889723,0.403313,-0.61792886,-0.43892166,-0.5126893,10.810688972473145,-0.6979353427886963,-0.6504434943199158,-10.404779434204102,-123.47714233398438, -34.61563491821289
369,579906390,0.3913919,-0.62586427,-0.44869864,-0.50376165,10.874488830566406,-0.12218540161848068,-0.9768180847167969,-10.746017456054688,-125.71942901611328, -33.22254943847656
370,579923057,0.37916127,-0.63377386,-0.45779905,-0.4949622,10.887441635131836,0.23233912885189056,-0.3838387131690979,-14.753114700317383,-124.29443359375, -31.815731048583984
371,579939724,0.36536077,-0.6423335,-0.46508846,-0.4874546,11.43864631652832,0.7409712076187134,-0.8269768953323364,-33.523292541503906,-121.2041244506836, -30.586687088012695
372,579956391,0.34942716,-0.6516978,-0.47023085,-0.48174018,12.564714431762695,1.6807254552841187,-0.6008613109588623,-57.89886474609375,-117.5146255493164, -30.168176651000977
373,579973058,0.33166412,-0.6611231,-0.47305515,-0.47867936,13.407641410827637,2.0897316932678223,0.013550907373428345,-82.49295806884766,-106.30101776123047, -31.98245620727539
374,579989725,0.31290582,-0.6701357,-0.47496447,-0.4768822,13.943325996398926,0.9442167282104492,0.9112938046455383,-93.18952941894531,-100.51084899902344, -35.283302307128906
375,580006392,0.29471022,-0.67850995,-0.47740844,-0.47418493,14.324531555175781,-0.19203776121139526,2.379089593887329,-84.52684783935547,-102.07447814941406, -36.055702209472656
376,580023059,0.27598658,-0.6866561,-0.4806897,-0.4703959,15.112947463989258,-1.2437108755111694,3.174257755279541,-80.22209930419922,-110.09852600097656, -40.2681884765625
377,580039726,0.25865293,-0.6936639,-0.48556343,-0.46492726,15.250606536865234,-3.2447617053985596,4.073835372924805,-60.80943298339844,-113.04730224609375, -43.95598602294922
378,580056393,0.24320142,-0.69917876,-0.4920213,-0.45816743,14.384387016296387,-5.19400691986084,4.826296806335449,-39.83894348144531,-111.26551818847656, -48.327762603759766
379,580073060,0.22758351,-0.70425135,-0.49627912,-0.45380968,12.826202392578125,-6.6832709312438965,5.18198299407959,-55.01222229003906,-95.51593780517578, -43.98124313354492
380,580089727,0.20679228,-0.71069616,-0.49758527,-0.45227972,12.472805976867676,-9.201554298400879,1.0385844707489014,-101.1468505859375,-99.43170928955078, -45.80799102783203
381,580106394,0.18457972,-0.7172498,-0.4985675,-0.45045963,14.20454216003418,-8.406495094299316,-5.431396961212158,-108.38402557373047,-105.75714111328125, -48.1556510925293
382,580123061,0.16435456,-0.723375,-0.49889123,-0.4481339,15.238082885742188,-5.820584297180176,-6.31374979019165,-98.48870849609375,-99.29827880859375, -39.847103118896484
383,580139728,0.1402756,-0.7283365,-0.49395952,-0.45371017,13.710531234741211,-8.788657188415527,0.36024829745292664,-159.76214599609375,-63.707305908203125, -38.731258392333984
384,580156395,0.13563673,-0.72807556,-0.49422467,-0.4552482,8.15548324584961,-7.33678674697876,7.879293441772461,-27.551679611206055,-6.793220043182373, -18.240310668945312
385,580173062,0.13097948,-0.7255558,-0.49017552,-0.46490985,7.885540008544922,-1.2245429754257202,5.941569805145264,-66.6747055053711,44.633907318115234, -12.165007591247559
386,580189729,0.12622175,-0.72231627,-0.47998363,-0.4816048,8.397442817687988,-4.117452621459961,2.6530802249908447,-109.80559539794922,87.0415267944336, 9.302327156066895
387,580206396,0.12907027,-0.71822345,-0.46718773,-0.4992313,7.399741172790527,-6.779891014099121,1.8551299571990967,-82.97250366210938,121.77246856689453, 43.61967849731445
388,580223063,0.14303997,-0.7129206,-0.45396802,-0.51497257,7.364818096160889,-5.692392826080322,1.8732459545135498,-22.392074584960938,152.6590118408203, 81.46101379394531
389,580239730,0.16448125,-0.7065844,-0.4399085,-0.52930635,8.1770658493042,-3.23848295211792,1.821936845779419,16.675601959228516,173.49652099609375, 110.03968048095703
390,580256397,0.19176675,-0.6993427,-0.42460138,-0.54208773,8.882763862609863,-2.515610933303833,0.7811993360519409,46.28219985961914,188.25308227539062, 136.3210906982422
391,580273064,0.2237514,-0.69010186,-0.40880927,-0.5536875,10.233832359313965,-0.6561720967292786,-1.008366584777832,73.19685363769531,204.3148193359375, 151.8623046875
392,580289731,0.25788048,-0.6794524,-0.39133435,-0.564535,11.211134910583496,-0.4916728436946869,-1.7771987915039062,81.28685760498047,214.7017059326172, 165.25311279296875
393,580306398,0.29330218,-0.6673731,-0.37203395,-0.57461107,12.368919372558594,0.21360450983047485,-2.5820229053497314,84.88495635986328,223.36895751953125, 176.3803253173828
394,580323065,0.32770973,-0.65393406,-0.3507114,-0.58478904,13.468740463256836,1.340764045715332,-2.9885566234588623,74.75798034667969,230.74061584472656, 178.05841064453125
395,580339732,0.3606262,-0.6396349,-0.327383,-0.5946734,13.988059997558594,0.32266393303871155,-3.2660281658172607,62.675174713134766,233.89207458496094, 179.8012237548828
396,580356399,0.39298832,-0.6236632,-0.30380422,-0.603579,14.597822189331055,1.1363383531570435,-2.722080707550049,65.6053466796875,235.9247589111328, 177.41519165039062
397,580373066,0.42272273,-0.6068249,-0.27891505,-0.6125976,15.444073677062988,2.074465274810791,-2.6713309288024902,51.0457878112793,238.1946563720703, 170.1704559326172
398,580389733,0.4499796,-0.58932686,-0.2529315,-0.62148046,15.942525863647461,2.144026279449463,-2.6174116134643555,38.312137603759766,239.01528930664062, 163.62933349609375
399,580406400,0.47532162,-0.5712845,-0.22704145,-0.629409,16.029205322265625,2.214266061782837,-2.8124709129333496,34.33317947387695,234.06564331054688, 157.2910614013672
400,580423067,0.5002955,-0.5514608,-0.20430286,-0.63549656,15.906179428100586,1.7352980375289917,-3.5710153579711914,55.2578010559082,223.91139221191406, 146.79251098632812
401,580439734,0.5268247,-0.52835584,-0.18703508,-0.6389942,16.045114517211914,0.5284900069236755,-4.318615436553955,100.03591918945312,212.0828094482422, 137.3937530517578
402,580456401,0.55491406,-0.5018108,-0.17596234,-0.63976073,16.11085319519043,1.0374549627304077,-4.070437908172607,148.9568634033203,197.17782592773438, 127.44036102294922
403,580473068,0.5796021,-0.47456,-0.16805331,-0.6407905,15.636942863464355,7.00059175491333,-3.818192720413208,153.55142211914062,185.3568572998047, 99.93423461914062
404,580489735,0.59632516,-0.45420918,-0.15857925,-0.64260644,13.592947006225586,2.534442663192749,-7.037553310394287,92.18214416503906,154.92620849609375, 75.13921356201172
405,580506402,0.60789096,-0.4407425,-0.15139814,-0.64287895,11.333182334899902,5.081732749938965,-9.31154727935791,59.732574462890625,105.09916687011719, 59.25943374633789
406,580523069,0.6115288,-0.4378981,-0.14567861,-0.6426941,9.418611526489258,3.170553207397461,-10.684858322143555,-1.7345356941223145,42.87430953979492, 33.00580978393555
407,580539736,0.61137116,-0.43971288,-0.14771324,-0.6411387,9.916536331176758,2.997304916381836,-10.488293647766113,3.0090534687042236,-17.804277420043945, 3.5468056201934814
408,580556403,0.6086921,-0.4444013,-0.15688469,-0.63827,10.640115737915039,3.858999252319336,-9.05734634399414,16.178752899169922,-66.54159545898438, -20.520740509033203
409,580573070,0.6041236,-0.45170724,-0.17053667,-0.63396573,11.348437309265137,3.1716489791870117,-7.888088703155518,20.72368812561035,-102.77668762207031, -33.464927673339844
410,580589737,0.59890807,-0.45948339,-0.1886438,-0.62817013,11.955230712890625,2.5937979221343994,-7.0137834548950195,37.96380615234375,-128.3036346435547, -43.2207145690918
411,580606404,0.5937008,-0.46646568,-0.2108558,-0.62086153,12.248247146606445,2.227771520614624,-6.832747459411621,61.01199722290039,-146.15231323242188, -50.82284164428711
412,580623071,0.58869404,-0.47256732,-0.23562212,-0.61204726,12.759162902832031,1.9093232154846191,-6.455214977264404,78.36844635009766,-156.9523468017578, -53.220516204833984
413,580639738,0.58307374,-0.47963712,-0.2559765,-0.6036963,14.336418151855469,-7.123197555541992,3.6627581119537354,53.215389251708984,-142.2730712890625, -41.69019317626953
414,580656405,0.5816554,-0.48454782,-0.2698506,-0.59503883,10.176628112792969,-11.414189338684082,12.437459945678711,49.45216369628906,-100.89901733398438, -5.636953353881836
415,580673072,0.5761841,-0.49217924,-0.28019166,-0.58929145,15.003580093383789,1.6567779779434204,0.27921605110168457,5.254782676696777,-96.08108520507812, -17.381145477294922
416,580689739,0.56934077,-0.4989946,-0.2940517,-0.5834289,19.014707565307617,1.2808903455734253,-2.305405616760254,18.2994441986084,-109.6105728149414, -35.83412170410156
417,580706406,0.5609655,-0.5070002,-0.30801412,-0.5774045,13.36620044708252,-1.5704964399337769,0.5555638074874878,9.127925872802734,-118.16836547851562, -39.14151382446289
418,580723073,0.5555157,-0.51191205,-0.3243792,-0.5693212,11.946529388427734,-1.231382966041565,-0.9119455218315125,45.156253814697266,-116.05770111083984, -34.53588104248047
419,580739740,0.55151576,-0.51442784,-0.3423433,-0.560353,11.368266105651855,-0.26866745948791504,-0.07068878412246704,67.656982421875,-112.55953979492188, -36.511802673339844
420,580756407,0.5481386,-0.5156589,-0.35936368,-0.5518132,9.538440704345703,-1.402042031288147,0.6726313233375549,70.0741195678711,-100.988525390625, -35.47502517700195
421,580773074,0.5443883,-0.5176049,-0.3730056,-0.54460406,10.046849250793457,-2.1562349796295166,-0.3362424075603485,49.935211181640625,-87.17274475097656, -28.254825592041016
422,580789741,0.53922194,-0.52077246,-0.38327107,-0.5395733,11.03470516204834,-1.3089325428009033,-0.6068498492240906,22.08699607849121,-74.96221160888672, -26.648271560668945
423,580806408,0.5323115,-0.5252331,-0.3903571,-0.5370252,10.602919578552246,-1.1088260412216187,-0.5684031844139099,-7.299475193023682,-63.65130615234375, -27.547443389892578
424,580823075,0.5258248,-0.5294657,-0.39664194,-0.5346492,10.754480361938477,-1.6047210693359375,-0.4573037624359131,-8.372462272644043,-58.10860824584961, -24.32530403137207
425,580839742,0.51962537,-0.53283525,-0.40338266,-0.53231454,11.779154777526855,0.046315908432006836,0.8488627076148987,-2.662949800491333,-55.64969253540039, -27.448078155517578
426,580856409,0.5122855,-0.5374561,-0.40934783,-0.5302254,11.238882064819336,-1.2464704513549805,1.3308391571044922,-14.858123779296875,-59.778282165527344, -26.138492584228516
427,580873076,0.50411725,-0.54213184,-0.41610184,-0.5280325,11.427098274230957,0.7841518521308899,1.396142601966858,-14.978957176208496,-65.5596923828125, -31.553091049194336
428,580889743,0.4930205,-0.5488365,-0.42184475,-0.5270261,10.686540603637695,-0.32425257563591003,1.794877529144287,-40.029869079589844,-73.47669982910156, -36.63718795776367
429,580906410,0.48058072,-0.55640817,-0.42734504,-0.5261449,10.18855094909668,-1.702900767326355,1.2920161485671997,-49.31595230102539,-79.3528823852539, -38.442588806152344
430,580923077,0.4680137,-0.564161,-0.4334431,-0.5242258,9.648246765136719,-2.764387845993042,0.9984748363494873,-45.21958923339844,-86.44884490966797, -37.23038864135742
431,580939744,0.4561239,-0.57137924,-0.44086045,-0.5206908,9.319778442382812,-2.3706440925598145,0.8695066571235657,-31.327322006225586,-93.13257598876953, -36.361656188964844
432,580956411,0.44404876,-0.5786083,-0.44895196,-0.51621276,9.369186401367188,-1.688031554222107,0.6154137849807739,-26.838186264038086,-99.66886138916016, -36.74467468261719
433,580973078,0.4315687,-0.58614063,-0.45698455,-0.5112266,9.560792922973633,-1.4907785654067993,0.0063854604959487915,-28.042617797851562,-103.9615478515625, -35.50389862060547
434,580989745,0.41809663,-0.59437925,-0.46491978,-0.5057257,9.648529052734375,-1.768741488456726,0.17237314581871033,-32.88204574584961,-111.47334289550781, -34.89342498779297
435,581006412,0.40461764,-0.6027149,-0.4731307,-0.49916616,10.23518180847168,-1.7451128959655762,-0.08130935579538345,-28.872087478637695,-117.11260986328125, -32.7534065246582
436,581023079,0.39069736,-0.6113075,-0.48118845,-0.4920534,10.682662963867188,-1.0429387092590332,-0.753250241279602,-30.165729522705078,-121.47308349609375, -31.32575798034668
437,581039746,0.37601358,-0.6203873,-0.48896638,-0.48440206,10.882071495056152,-0.6789675354957581,-0.5736890435218811,-33.86959457397461,-127.33119201660156, -29.718557357788086
438,581056413,0.36019093,-0.6300894,-0.4955457,-0.47716287,11.192156791687012,0.18643280863761902,-0.6210780143737793,-45.72953414916992,-128.5767364501953, -27.405153274536133
439,581073080,0.3423105,-0.6408018,-0.50043947,-0.4709108,11.798295021057129,0.7479292154312134,-0.11986418068408966,-66.05064392089844,-130.6740264892578, -25.85236167907715
440,581089747,0.32288942,-0.65196186,-0.503831,-0.4656637,12.819703102111816,1.2607381343841553,-0.20091529190540314,-82.212890625,-129.72706604003906, -25.02642059326172
441,581106414,0.30199277,-0.6633936,-0.506454,-0.46066687,13.395277976989746,0.7281398177146912,0.7805394530296326,-92.74909210205078,-133.1692352294922, -25.895126342773438
442,581123081,0.28064382,-0.67450005,-0.50882965,-0.45539102,14.47326374053955,0.19080990552902222,1.028275728225708,-93.93951416015625,-134.81619262695312, -26.76828384399414
443,581139748,0.25861314,-0.68513644,-0.5110927,-0.44999072,15.171013832092285,-0.9352341890335083,2.5098659992218018,-96.11658477783203,-136.46070861816406, -29.840259552001953
444,581156415,0.23635916,-0.695135,-0.51279056,-0.44493547,15.604729652404785,-2.29213547706604,2.533564329147339,-99.01241302490234,-133.07566833496094, -30.8432559967041
445,581173082,0.21457076,-0.703701,-0.5145722,-0.44043162,15.040253639221191,-3.779507637023926,3.9589414596557617,-96.1924819946289,-124.98310852050781, -35.945560455322266
446,581189749,0.19281708,-0.7106737,-0.51539034,-0.4383349,13.602197647094727,-5.596297740936279,5.151256561279297,-105.17449951171875,-107.41909790039062, -40.60474395751953
447,581206416,0.16742836,-0.7178134,-0.5102578,-0.4431129,12.443758964538574,-7.782205104827881,4.076541900634766,-165.55450439453125,-79.75994110107422, -31.306062698364258
448,581223083,0.14078997,-0.7236572,-0.50756234,-0.44595855,11.425458908081055,-8.261255264282227,-6.955827713012695,-156.16229248046875,-92.88272094726562, -49.82987976074219
449,581239750,0.118333206,-0.7281866,-0.5075689,-0.44510168,12.942185401916504,-6.817002296447754,-9.11443042755127,-113.08472442626953,-95.24986267089844, -51.781673431396484
450,581256417,0.10129331,-0.7299158,-0.51010764,-0.4435685,13.560049057006836,-3.1695923805236816,-5.563109397888184,-73.7755355834961,-73.16421508789062, -57.376766204833984
451,581273084,0.09888117,-0.7278044,-0.5164826,-0.44019252,10.37431812286377,-9.816686630249023,6.060756683349609,20.38298988342285,-22.158716201782227, -44.367828369140625
452,581289751,0.100690335,-0.7240347,-0.5195414,-0.44239384,7.801583290100098,-2.319793462753296,6.676939010620117,12.700376510620117,27.64265251159668, -24.982072830200195
453,581306418,0.097258605,-0.7200517,-0.5156656,-0.45404324,8.288238525390625,-1.1539442539215088,1.7321622371673584,-67.99852752685547,61.134517669677734, -13.79737663269043
454,581323085,0.09664356,-0.7159653,-0.50727785,-0.46981183,9.220846176147461,-5.45748233795166,1.027223825454712,-82.61284637451172,94.75875854492188, 14.12304401397705
455,581339752,0.10616529,-0.7119051,-0.49762228,-0.48403743,9.438141822814941,-7.07796573638916,-0.2721358835697174,-31.457683563232422,123.18672180175781, 54.017738342285156
456,581356419,0.12781075,-0.70709634,-0.4897842,-0.49375173,9.591132164001465,-5.807180881500244,0.44645583629608154,49.87318420410156,143.67718505859375, 85.99234008789062
457,581373086,0.15459637,-0.70273674,-0.47991765,-0.5019364,9.311748504638672,-4.31394624710083,0.3892385959625244,72.72402954101562,153.6985321044922, 116.02526092529297
458,581389753,0.18657634,-0.697743,-0.46859887,-0.50868386,10.195574760437012,-2.6254661083221436,-0.5582774877548218,98.24004364013672,167.53216552734375, 140.34317016601562
459,581406420,0.22111207,-0.6916457,-0.4550284,-0.51544654,10.631004333496094,-1.0165473222732544,-1.3404388427734375,104.01841735839844,182.5165557861328, 156.51339721679688
460,581423087,0.25816563,-0.6841015,-0.43933952,-0.52185863,11.1473970413208,-0.5207093358039856,-1.68147873878479,111.81593322753906,197.04322814941406, 171.587890625
461,581439754,0.29678667,-0.67423,-0.4212105,-0.5290684,12.235426902770996,1.6402668952941895,-1.1306408643722534,112.1987075805664,218.209716796875, 180.3408203125
462,581456421,0.33192512,-0.66327405,-0.39814514,-0.5397906,13.36501693725586,2.853548765182495,-1.0700825452804565,70.18498229980469,238.42819213867188, 180.40048217773438
463,581473088,0.36412925,-0.6523472,-0.3708282,-0.55166984,14.104162216186523,0.39910587668418884,-1.7757110595703125,37.836238861083984,245.3082733154297, 186.52175903320312
464,581489755,0.39566478,-0.6401778,-0.34177464,-0.56286055,15.256797790527344,1.3053783178329468,-2.0294954776763916,33.15544891357422,249.674072265625, 190.44374084472656
465,581506422,0.42542318,-0.62618953,-0.3116099,-0.5742832,16.222707748413086,2.0892908573150635,-2.062074661254883,25.475786209106445,256.7140808105469, 183.70855712890625
466,581523089,0.4542393,-0.6099453,-0.28173432,-0.58502936,16.171714782714844,1.4356614351272583,-2.0320894718170166,30.65256690979004,260.0116882324219, 176.09268188476562
467,581539756,0.4836735,-0.590295,-0.25481176,-0.59387106,16.4074649810791,1.3908745050430298,-2.1842594146728516,59.49628829956055,257.8894348144531, 165.7569580078125
468,581556423,0.51316416,-0.56663716,-0.2317194,-0.6015737,17.055755615234375,3.421442985534668,-2.36561918258667,90.73110961914062,257.2140197753906, 147.44613647460938
469,581573090,0.5404658,-0.54062647,-0.21173124,-0.60892504,17.073322296142578,3.151496410369873,-2.8140738010406494,103.92878723144531,251.3933868408203, 124.09841918945312
470,581589757,0.56808007,-0.5116912,-0.19714968,-0.6136688,16.804807662963867,0.7059310078620911,-4.24483060836792,142.3791961669922,234.62326049804688, 111.03267669677734
471,581606424,0.59443724,-0.48115593,-0.18682526,-0.6166277,15.873067855834961,4.061888217926025,-5.8894782066345215,164.65704345703125,217.11756896972656, 95.78350830078125
472,581623091,0.6129466,-0.45833567,-0.17515619,-0.6193103,13.275606155395508,4.455273628234863,-9.28960132598877,101.74360656738281,179.3301544189453, 78.22555541992188
473,581639758,0.6237813,-0.4449331,-0.16515322,-0.6210122,9.635313987731934,6.834268569946289,-12.002049446105957,46.2430534362793,120.29634094238281, 56.042213439941406
474,581656425,0.62673974,-0.44101152,-0.16083851,-0.62196237,8.21649169921875,5.885301113128662,-13.291265487670898,6.653346061706543,44.622650146484375, 19.241775512695312
475,581673092,0.6238989,-0.44436198,-0.16431323,-0.6215255,9.02629566192627,3.594642400741577,-13.205368995666504,-7.302262783050537,-30.261863708496094, -14.908205032348633
476,581689759,0.6184957,-0.45108017,-0.17492914,-0.61918473,10.36874771118164,2.1759283542633057,-10.883854866027832,3.1755993366241455,-83.58329772949219, -35.56254959106445
477,581706426,0.61182386,-0.45921737,-0.1907561,-0.61514467,11.754266738891602,2.3508546352386475,-8.263872146606445,17.501277923583984,-118.2125015258789, -48.09877014160156
478,581723093,0.6040075,-0.46845108,-0.20905605,-0.6099379,12.484366416931152,2.557401418685913,-6.378252029418945,21.355587005615234,-138.15052795410156, -54.27598190307617
479,581739760,0.595476,-0.47806302,-0.22893724,-0.6036987,12.461934089660645,1.8103386163711548,-5.89935827255249,25.565759658813477,-150.386962890625, -57.47574234008789
480,581756427,0.5871259,-0.48675185,-0.25066563,-0.5962571,12.424337387084961,1.722204327583313,-5.514173984527588,39.56589889526367,-157.57513427734375, -59.250370025634766
481,581773094,0.57798064,-0.4953975,-0.26998448,-0.58959997,14.579286575317383,-2.5743823051452637,2.5458104610443115,25.902626037597656,-146.2300567626953, -57.62979507446289
482,581789761,0.5713462,-0.50507146,-0.27800348,-0.58410656,11.563265800476074,-17.30186653137207,18.033897399902344,-17.596651077270508,-96.89600372314453, -11.712197303771973
483,581806428,0.56328875,-0.5144316,-0.2852443,-0.5802602,15.10327434539795,-1.0783621072769165,4.971372127532959,-27.547405242919922,-90.10803985595703, -22.210067749023438
484,581823095,0.55465496,-0.5220154,-0.3000106,-0.574327,21.465763092041016,-0.8022003769874573,-4.9208292961120605,11.3755521774292,-120.78367614746094, -46.50166320800781
485,581839762,0.54384196,-0.53112036,-0.3165836,-0.5673816,14.283560752868652,-2.0177645683288574,0.47812211513519287,7.011232852935791,-141.5811309814453, -54.52592849731445
486,581856429,0.53565544,-0.5374393,-0.3350898,-0.5585223,10.666006088256836,-1.6959164142608643,0.5647411346435547,38.73297119140625,-139.2228240966797, -50.28269577026367
487,581873096,0.52901495,-0.54123956,-0.35491124,-0.54885423,9.419876098632812,-1.3949875831604004,-0.06719604879617691,60.62294387817383,-133.863037109375, -52.104793548583984
488,581889763,0.5250785,-0.54222274,-0.37413993,-0.538801,7.296214580535889,-3.5012080669403076,-2.253455877304077,79.63195037841797,-115.94512939453125, -45.25292205810547
489,581906430,0.5233775,-0.54203767,-0.39083013,-0.52869934,8.764039039611816,-3.4991707801818848,-2.941272735595703,82.9069595336914,-96.86997985839844, -30.493358612060547
490,581923097,0.52077144,-0.5426981,-0.40421346,-0.52046835,10.998610496520996,-1.595892310142517,-1.6884633302688599,59.449180603027344,-83.4762954711914, -26.055875778198242
491,581939764,0.5150622,-0.54511994,-0.41418794,-0.5157555,11.498727798461914,0.48114797472953796,-0.44012629985809326,19.56788444519043,-73.083984375, -32.194087982177734
492,581956431,0.5084423,-0.54876256,-0.4224233,-0.5117665,11.045178413391113,-1.74496591091156,-1.4699643850326538,3.5802998542785645,-71.19384002685547, -27.96843910217285
493,581973098,0.5022501,-0.55177116,-0.43203408,-0.5065966,10.762494087219238,0.01043380331248045,-0.02104080468416214,15.665069580078125,-77.01754760742188, -29.404132843017578
494,581989765,0.4960002,-0.5546313,-0.4423575,-0.5006872,11.262178421020508,-0.05812818557024002,-1.2696231603622437,20.615312576293945,-82.02012634277344, -30.19492530822754
495,582006432,0.48890954,-0.5573773,-0.45304886,-0.4950201,12.369833946228027,0.22086642682552338,1.221286416053772,18.3116397857666,-84.55998229980469, -35.667728424072266
496,582023099,0.48101932,-0.56061,-0.46220464,-0.4906159,12.368828773498535,-0.701287567615509,1.4197940826416016,4.423205852508545,-78.83402252197266, -35.22235870361328
497,582039766,0.47155675,-0.56546736,-0.46893993,-0.48782814,12.570272445678711,-2.048827886581421,0.4795396029949188,-20.337976455688477,-75.21880340576172, -31.386648178100586
498,582056433,0.46203566,-0.57042557,-0.47484404,-0.48544955,12.005030632019043,-2.1278107166290283,1.1778647899627686,-25.02496910095215,-71.5832748413086, -29.390913009643555
499,582073100,0.4528562,-0.57510144,-0.48014268,-0.48336607,11.723037719726562,-0.6336877346038818,0.7581148743629456,-25.795507431030273,-66.59064483642578, -27.77643394470215
500,582089767,0.44295052,-0.5800949,-0.48504874,-0.48167685,11.164258003234863,-0.29182589054107666,0.8003823757171631,-32.2821044921875,-67.39762115478516, -28.82063865661621
501,582106434,0.43390983,-0.58433676,-0.49039832,-0.47935623,10.80406379699707,-0.9622716307640076,0.7198889255523682,-22.984233856201172,-66.0298080444336, -28.30809211730957
502,582123101,0.42529908,-0.5881904,-0.49705,-0.47549367,10.188075065612793,-0.7414299845695496,0.6866310238838196,-10.625986099243164,-73.51183319091797, -28.85724639892578
503,582139768,0.41569832,-0.59262127,-0.50416774,-0.47096694,9.903441429138184,-0.39993056654930115,0.7558453679084778,-12.538010597229004,-82.95906829833984, -30.08901596069336
504,582156435,0.40494534,-0.59801275,-0.51143944,-0.46565005,9.931218147277832,-1.2592347860336304,0.48891550302505493,-16.75249481201172,-93.8538589477539, -28.8751277923584
505,582173102,0.39402503,-0.6036391,-0.51891714,-0.4594447,10.059465408325195,-1.2766109704971313,0.18722578883171082,-14.325319290161133,-99.54480743408203, -26.999961853027344
506,582189769,0.38177067,-0.6101552,-0.52593005,-0.45316628,9.863965034484863,-0.8591150045394897,-0.7581766247749329,-23.497934341430664,-106.27751159667969, -25.952495574951172
507,582206436,0.36767292,-0.617902,-0.5316986,-0.44756073,10.066315650939941,-0.18826721608638763,-0.9511716365814209,-40.781368255615234,-110.78363800048828, -23.82096290588379
508,582223103,0.35095072,-0.6271673,-0.53537536,-0.4436984,9.951068878173828,0.2687065601348877,-0.008498147130012512,-68.58763885498047,-112.45352935791016, -21.87600326538086
509,582239770,0.33115038,-0.6379993,-0.5368196,-0.4417252,10.791935920715332,0.7392338514328003,-0.5801138877868652,-99.40742492675781,-115.15768432617188, -20.433204650878906
510,582256437,0.30929148,-0.6496265,-0.5363342,-0.44121397,11.932154655456543,0.6131396889686584,-0.08517205715179443,-121.50100708007812,-114.49040222167969, -18.61179542541504
511,582273104,0.2868802,-0.6608437,-0.5347462,-0.4416245,12.11417007446289,0.33771592378616333,0.8188109397888184,-129.84649658203125,-108.97598266601562, -18.842994689941406
512,582289771,0.26467142,-0.67116207,-0.53258836,-0.44253832,13.135769844055176,0.08988180011510849,1.0994160175323486,-130.7251739501953,-102.27056121826172, -19.97162628173828
513,582306438,0.24331574,-0.6802103,-0.5301868,-0.44386205,12.792097091674805,-0.11159758269786835,1.880196213722229,-126.71876525878906,-93.1447525024414, -21.704849243164062
514,582323105,0.22267017,-0.6882302,-0.52739114,-0.44566363,11.689861297607422,-1.2553198337554932,2.756986618041992,-124.62531280517578,-84.73345947265625, -22.31451988220215
515,582339772,0.20320027,-0.69486123,-0.5248611,-0.44765884,10.883894920349121,-2.2148804664611816,3.3969359397888184,-116.83155059814453,-75.91278076171875, -25.409591674804688
516,582356439,0.18508153,-0.6999522,-0.5231387,-0.4495974,9.746208190917969,-3.446384906768799,3.002645969390869,-105.55635070800781,-67.90151977539062, -30.717018127441406
517,582373106,0.16598529,-0.7040012,-0.52193296,-0.45212573,9.596198081970215,-2.650103807449341,0.9487869739532471,-109.48894500732422,-66.18457794189453, -40.884971618652344
518,582389773,0.14221105,-0.7084475,-0.5194871,-0.45608276,11.95197582244873,-1.8629496097564697,-4.127530097961426,-141.61012268066406,-75.99032592773438, -49.77236557006836
519,582406440,0.11757066,-0.7127114,-0.5182966,-0.45780826,15.448220252990723,-0.9812103509902954,-9.818146705627441,-133.79364013671875,-90.63189697265625, -57.2203254699707
520,582423107,0.09357681,-0.71497923,-0.51796556,-0.4601738,14.251988410949707,-8.49187183380127,-1.2679232358932495,-128.67076110839844,-79.55464935302734, -67.17793273925781
521,582439774,0.08202773,-0.71323323,-0.52309597,-0.4592829,8.550741195678711,-7.444894790649414,2.196782350540161,-36.1495246887207,-42.19743347167969, -67.14397430419922
522,582456441,0.07911824,-0.7097592,-0.52790725,-0.45967013,10.015918731689453,-6.626506805419922,-0.11772383749485016,1.5214886665344238,0.6365891098976135, -45.4295768737793
523,582473108,0.08472285,-0.7050139,-0.533549,-0.45945954,11.238241195678711,-6.093068599700928,-0.931541383266449,48.49423599243164,32.05767059326172, -27.040998458862305
524,582489775,0.09500179,-0.6990197,-0.5379793,-0.46143734,10.290749549865723,-4.796382427215576,1.8304319381713867,59.97124099731445,64.32003021240234, -12.418213844299316
525,582506442,0.10628826,-0.69277525,-0.53803897,-0.46827292,8.622553825378418,-4.968326568603516,1.4239566326141357,33.1514778137207,94.87068939208984, 7.553321838378906
526,582523109,0.12220468,-0.68720514,-0.5354528,-0.47550574,8.52130126953125,-5.361701965332031,-0.43957987427711487,44.72233963012695,113.52885437011719, 37.156105041503906
527,582539776,0.14498702,-0.68126434,-0.5321184,-0.4813604,9.165626525878906,-3.6535353660583496,-0.15294994413852692,80.09294128417969,134.0616912841797, 62.83013153076172
528,582556443,0.17168891,-0.6746729,-0.5269831,-0.48747122,9.960531234741211,-2.85800838470459,-0.5695765018463135,92.2147216796875,153.45880126953125, 81.55643463134766
529,582573110,0.20245844,-0.66753095,-0.5196118,-0.49337286,10.796248435974121,-3.772019147872925,-1.2745429277420044,105.0207748413086,171.6298370361328, 103.79887390136719
530,582589777,0.23712853,-0.6591644,-0.5103247,-0.49883974,11.406265258789062,-3.0846214294433594,-1.1050989627838135,119.69071960449219,190.3250732421875, 122.03172302246094
531,582606444,0.27171305,-0.65013725,-0.49695325,-0.506489,12.310544967651367,-1.7327933311462402,-1.237646460533142,98.72430419921875,208.78201293945312, 134.3711700439453
532,582623111,0.30404603,-0.64172816,-0.47818503,-0.51679784,12.873209953308105,-1.89093017578125,-2.129124402999878,59.64384078979492,220.8798370361328, 147.8148956298828
533,582639778,0.33546835,-0.6339127,-0.4557273,-0.52718914,13.300643920898438,-1.9812119007110596,-2.5306859016418457,41.02067565917969,223.8855438232422, 162.647216796875
534,582656445,0.36665013,-0.6258827,-0.43097728,-0.5367469,13.701791763305664,-0.8628265261650085,-2.620617389678955,34.794189453125,225.63424682617188, 173.02809143066406
535,582673112,0.398032,-0.6166669,-0.40472266,-0.54542845,14.359262466430664,-0.10240280628204346,-1.961865782737732,35.71840286254883,230.72390747070312, 178.99322509765625
536,582689779,0.42885378,-0.60642356,-0.37686265,-0.55345243,15.217758178710938,0.8341606855392456,-2.069150924682617,31.997804641723633,234.72377014160156, 182.73106384277344
537,582706446,0.45882303,-0.59444165,-0.3476749,-0.56146485,16.509716033935547,2.763631582260132,-1.6954090595245361,28.588973999023438,243.126953125, 180.6842498779297
538,582723113,0.48592815,-0.5816232,-0.31740087,-0.5699518,16.507658004760742,3.2323355674743652,-2.1242315769195557,14.22465705871582,245.01840209960938, 170.7616424560547
539,582739780,0.51213515,-0.56646687,-0.2894816,-0.5770905,16.12605094909668,2.257075309753418,-2.5659544467926025,30.653793334960938,239.1345672607422, 157.44456481933594
540,582756447,0.5389937,-0.5477765,-0.26669043,-0.58163816,15.793083190917969,0.7088538408279419,-3.004957914352417,71.18230438232422,226.50100708007812, 142.36073303222656
541,582773114,0.567875,-0.52515954,-0.24969026,-0.5825635,16.241497039794922,-1.007457971572876,-3.804816246032715,123.18296813964844,211.0338897705078, 135.0581817626953
542,582789781,0.5977776,-0.4992752,-0.23797207,-0.5803066,15.561405181884766,1.751088261604309,-4.09652853012085,166.32785034179688,194.00863647460938, 127.07675170898438
543,582806448,0.6217015,-0.4751596,-0.22686394,-0.5798651,14.50234603881836,7.079709053039551,-4.297307968139648,137.97265625,181.17164611816406, 96.75528717041016
544,582823115,0.6395163,-0.4561339,-0.21659331,-0.5796966,12.560001373291016,4.485355854034424,-7.33561372756958,99.09361267089844,148.958740234375, 76.71599578857422
545,582839782,0.6502208,-0.44471514,-0.20739934,-0.5800232,10.439828872680664,6.234241008758545,-8.38805103302002,46.904598236083984,105.21582794189453, 54.354339599609375
546,582856449,0.65366995,-0.4422224,-0.20006987,-0.58062655,8.911918640136719,3.6658592224121094,-9.999290466308594,-8.026191711425781,52.07442855834961, 31.510011672973633
547,582873116,0.6536495,-0.44296658,-0.19996719,-0.5801175,9.289144515991211,3.38218092918396,-10.052810668945312,-2.7315948009490967,-1.1235524415969849, 5.26664400100708
548,582889783,0.6510437,-0.44548693,-0.20636514,-0.5788758,9.996586799621582,4.332366943359375,-8.277984619140625,8.434110641479492,-42.8868293762207, -18.939727783203125
549,582906450,0.64555234,-0.451381,-0.21558891,-0.57709545,10.756175994873047,3.936810255050659,-7.1953511238098145,-3.4665026664733887,-74.41504669189453, -31.716209411621094
550,582923117,0.6381234,-0.4590875,-0.22745834,-0.5747174,11.537080764770508,2.87593674659729,-6.439925670623779,-6.092494010925293,-97.81792449951172, -42.10197067260742
551,582939784,0.63033414,-0.46648392,-0.24316211,-0.57091486,12.455020904541016,1.6543922424316406,-6.413004398345947,11.476856231689453,-118.19929504394531, -49.77156448364258
552,582956451,0.622521,-0.47328842,-0.26229206,-0.5653925,13.000906944274902,1.7874864339828491,-6.0130510330200195,30.374853134155273,-136.03993225097656, -54.27762985229492
553,582973118,0.6142095,-0.47995844,-0.2838775,-0.55839086,13.20026683807373,2.1230156421661377,-6.215010166168213,41.586360931396484,-151.49691772460938, -58.03722381591797
554,582989785,0.6051904,-0.4864015,-0.30480585,-0.5515901,15.447391510009766,-1.1029117107391357,1.274099349975586,37.30150604248047,-148.3180389404297, -59.814693450927734
555,583006452,0.5988646,-0.494044,-0.31226358,-0.5475155,12.272989273071289,-18.59808921813965,25.406341552734375,-15.422243118286133,-82.0125732421875, -13.332015037536621
556,583023119,0.5902628,-0.5054038,-0.31558853,-0.544574,9.625104904174805,-4.558959484100342,2.4711475372314453,-56.4965934753418,-80.66941833496094, -4.957456588745117
557,583039786,0.5805703,-0.5147467,-0.32493627,-0.5407316,20.627262115478516,-2.3200745582580566,-7.331997871398926,-27.59835433959961,-103.1130599975586, -30.75794792175293
558,583056453,0.5694843,-0.523797,-0.33743268,-0.5361566,13.217879295349121,-2.6616153717041016,2.1207878589630127,-17.907289505004883,-120.02909088134766, -44.7354736328125
559,583073120,0.5619533,-0.5293458,-0.35264748,-0.5288112,10.683277130126953,-1.828547716140747,1.4092551469802856,25.036970138549805,-119.53434753417969, -38.72624588012695
560,583089787,0.5547084,-0.5334896,-0.36920857,-0.52093434,10.568013191223145,-0.7904257774353027,0.6382123231887817,37.68729782104492,-120.9146499633789, -43.9807014465332
561,583106454,0.549026,-0.53579384,-0.38616326,-0.51222396,9.191330909729004,-2.8166873455047607,0.5577211976051331,53.951900482177734,-114.94824981689453, -41.346309661865234
562,583123121,0.5446446,-0.53729385,-0.40181595,-0.50321156,9.58228874206543,-2.9127049446105957,-0.7172499299049377,57.990074157714844,-104.90215301513672, -33.0562629699707
563,583139788,0.53917444,-0.53999597,-0.41469434,-0.49570593,10.36710262298584,-1.6701222658157349,-1.705987572669983,35.70012283325195,-96.12782287597656, -28.982187271118164
564,583156455,0.53211844,-0.5435329,-0.42483658,-0.49085233,10.120232582092285,-0.9261026382446289,-0.6808931827545166,9.825106620788574,-83.50235748291016, -31.715362548828125
565,583173122,0.5247693,-0.5473544,-0.4329207,-0.48744246,9.93182373046875,-2.5562851428985596,-1.1024250984191895,-3.4839277267456055,-72.43224334716797, -29.471529006958008
566,583189789,0.51827747,-0.5502788,-0.44095826,-0.48387778,10.518017768859863,-1.8664778470993042,-0.029601670801639557,3.26873517036438,-67.31912231445312, -28.58436393737793
567,583206456,0.51250136,-0.55250853,-0.44876692,-0.48029688,10.432262420654297,-0.796188473701477,0.03317737579345703,7.722170352935791,-62.14995574951172, -27.417360305786133
568,583223123,0.5072205,-0.55425316,-0.45676383,-0.47633776,11.092803001403809,-0.4395635724067688,-0.5788731575012207,13.08309555053711,-61.190982818603516, -26.670705795288086
569,583239790,0.50087976,-0.5562409,-0.46465728,-0.47308484,11.866364479064941,0.37733232975006104,1.0229812860488892,5.626279354095459,-62.32005310058594, -31.44471549987793
570,583256457,0.4923238,-0.5598632,-0.471756,-0.47076216,11.334712982177734,-0.13175265491008759,1.2451038360595703,-14.054038047790527,-68.5264663696289, -33.56450271606445
571,583273124,0.48115632,-0.56556106,-0.47842142,-0.4687669,10.844341278076172,-1.4338388442993164,1.5745534896850586,-33.61351776123047,-81.10560607910156, -34.70953369140625
572,583289791,0.4687898,-0.57231915,-0.48527855,-0.46603855,10.662790298461914,-1.8050023317337036,1.2900482416152954,-38.776248931884766,-92.08226776123047, -33.424407958984375
573,583306458,0.4557779,-0.57937676,-0.49242014,-0.4627218,10.704063415527344,-1.390054702758789,0.27951115369796753,-39.425838470458984,-98.55072784423828, -33.74554443359375
574,583323125,0.44208476,-0.58651525,-0.499917,-0.45895973,10.734415054321289,-1.2642778158187866,-0.0174265056848526,-39.76742935180664,-104.10166931152344, -35.6815071105957
575,583339792,0.42785168,-0.59371835,-0.5075222,-0.45482188,10.326396942138672,-1.3751791715621948,0.44480079412460327,-40.5222053527832,-108.10196685791016, -36.479713439941406
576,583356459,0.41348737,-0.6010039,-0.51499313,-0.45011652,10.451949119567871,-1.8653523921966553,-0.04740193486213684,-39.75556564331055,-110.85139465332031, -34.41262435913086
577,583373126,0.39909318,-0.60821,-0.5227029,-0.4445074,11.072371482849121,-1.7352229356765747,-0.5303279161453247,-35.729957580566406,-115.22843170166016, -33.24848175048828
578,583389793,0.38423967,-0.6154742,-0.5300419,-0.43887034,11.38570499420166,-1.2469619512557983,-0.34239596128463745,-38.86094284057617,-116.25611877441406, -32.859535217285156
579,583406460,0.3691976,-0.62270814,-0.53689945,-0.43320537,11.07271957397461,-1.140612244606018,-0.4392630159854889,-40.94106674194336,-115.81250762939453, -31.4613094329834
580,583423127,0.3538134,-0.63003963,-0.5433737,-0.42733076,11.235857009887695,-0.9422898292541504,-0.5222959518432617,-43.038238525390625,-117.40603637695312, -29.979459762573242
581,583439794,0.33790898,-0.6374826,-0.5490783,-0.42183766,11.497066497802734,-0.330573171377182,-0.28949815034866333,-49.2630615234375,-116.27289581298828, -28.71790313720703
582,583456461,0.3205347,-0.6455445,-0.55318445,-0.41775224,12.182957649230957,0.45417332649230957,-0.4664645791053772,-67.09773254394531,-113.86910247802734, -26.931583404541016
583,583473128,0.30162868,-0.65393394,-0.55573756,-0.41538727,13.21744155883789,1.33999764919281,0.14021271467208862,-85.62112426757812,-109.72180938720703, -26.995262145996094
584,583489795,0.2810768,-0.6624592,-0.55697453,-0.4146361,13.365581512451172,0.29983770847320557,0.8243565559387207,-103.21894073486328,-106.59380340576172, -28.60743522644043
585,583506462,0.26102707,-0.67025834,-0.55824363,-0.4135007,13.952547073364258,-0.3596867322921753,1.2493951320648193,-97.95722961425781,-104.61458587646484, -29.404293060302734
586,583523129,0.2415835,-0.6768803,-0.56023514,-0.41183394,14.267029762268066,-1.0253968238830566,1.812686562538147,-88.9617691040039,-102.90534210205078, -34.645870208740234
587,583539796,0.2227759,-0.6825657,-0.5626329,-0.40977964,13.957132339477539,-1.8372752666473389,2.303900957107544,-81.81436920166016,-100.5198974609375, -37.795265197753906
588,583556463,0.20432214,-0.68767446,-0.5648794,-0.4077591,13.007623672485352,-3.8907556533813477,2.4261465072631836,-79.84765625,-97.38027954101562, -38.49481964111328
589,583573130,0.18647212,-0.6920956,-0.56682914,-0.4061237,12.051580429077148,-5.837431907653809,3.1906988620758057,-78.40642547607422,-91.09899139404297, -38.77956008911133
590,583589797,0.16810438,-0.69670546,-0.5669711,-0.40606195,11.278017044067383,-6.835287094116211,1.723415493965149,-92.3730239868164,-84.06365203857422, -33.11632537841797
591,583606464,0.1470133,-0.70139074,-0.56670177,-0.4065557,11.611480712890625,-4.414243221282959,-2.995311737060547,-108.92822265625,-91.92796325683594, -39.33246994018555
592,583623131,0.12150368,-0.70675266,-0.56330323,-0.4103988,14.613288879394531,-2.299999713897705,-4.359111785888672,-152.8220672607422,-91.78605651855469, -37.542171478271484
593,583639798,0.098944806,-0.70962644,-0.56070447,-0.4150314,12.140582084655762,-8.704289436340332,-1.4861021041870117,-137.27310180664062,-70.24605560302734, -43.58970260620117
594,583656465,0.09324296,-0.7084109,-0.5647594,-0.41292444,9.104459762573242,-6.905828475952148,1.5005007982254028,-7.415660381317139,-31.118072509765625, -39.3971061706543
595,583673132,0.09782395,-0.70465475,-0.57074076,-0.41005802,9.285181999206543,-4.199415683746338,1.908035159111023,52.639766693115234,10.923480033874512, -29.126771926879883
596,583689799,0.106623225,-0.6997789,-0.5744525,-0.41102993,9.392072677612305,-2.965705156326294,1.6941472291946411,52.35231399536133,50.56809997558594, -13.302200317382812
597,583706466,0.11631386,-0.6946724,-0.57399005,-0.41765654,8.792789459228516,-3.047312021255493,1.9543204307556152,22.695356369018555,84.83707427978516, 4.161747455596924
598,583723133,0.12853695,-0.6891617,-0.56976116,-0.42884326,8.157530784606934,-3.6161577701568604,1.1952887773513794,6.3296332359313965,120.64481353759766, 24.08087730407715
599,583739800,0.14447166,-0.683726,-0.56263494,-0.44168836,7.340455532073975,-4.587798595428467,-1.0313998460769653,8.820608139038086,145.28265380859375, 47.47534942626953
600,583756467,0.16723841,-0.67829347,-0.5539049,-0.4529224,7.637571811676025,-4.441553115844727,-0.7279009222984314,42.277931213378906,165.6879425048828, 77.27059936523438
601,583773134,0.19501778,-0.6722942,-0.54316974,-0.4636327,8.916504859924316,-2.5440738201141357,0.40450435876846313,62.04511642456055,186.356689453125, 100.5909652709961
602,583789801,0.22497018,-0.6654261,-0.52989733,-0.47519016,10.145548820495605,-1.345004677772522,-0.5007187128067017,62.022926330566406,204.46994018554688, 114.82221221923828
603,583806468,0.25620893,-0.6580245,-0.51398873,-0.48700783,10.937005996704102,-1.414237380027771,-1.2893812656402588,59.199222564697266,216.09677124023438, 128.7233428955078
604,583823135,0.28869215,-0.65008587,-0.49594358,-0.49808162,11.780250549316406,-1.1317626237869263,-1.9339162111282349,61.27093505859375,222.64755249023438, 141.95498657226562
605,583839802,0.32163885,-0.6412728,-0.47575328,-0.5088978,12.687020301818848,-0.21900391578674316,-2.225360631942749,58.61884307861328,230.312255859375, 150.66372680664062
606,583856469,0.35363874,-0.63201237,-0.45308757,-0.519819,13.122050285339355,-0.862480640411377,-2.4113941192626953,46.45232009887695,234.72808837890625, 156.5974884033203
607,583873136,0.38597503,-0.6219678,-0.42895597,-0.5293168,13.402356147766113,-1.796604871749878,-2.639346122741699,49.03482437133789,235.99806213378906, 165.21292114257812
608,583889803,0.4196483,-0.6091524,-0.4050045,-0.5374016,14.760812759399414,0.0416245236992836,-2.397019863128662,66.94611358642578,243.5738067626953, 164.90945434570312
609,583906470,0.4505649,-0.5959097,-0.3785734,-0.5464113,15.891072273254395,1.21619713306427,-2.677781343460083,44.92518997192383,248.58438110351562, 161.33702087402344
610,583923137,0.4797187,-0.58229107,-0.35099795,-0.5546241,16.13596534729004,0.951849639415741,-3.4699008464813232,36.67582321166992,245.81634521484375, 161.0256805419922
611,583939804,0.508279,-0.56686777,-0.32487625,-0.56104267,16.174896240234375,1.3321384191513062,-3.2386550903320312,50.16263198852539,239.4663543701172, 154.65127563476562
612,583956471,0.5364262,-0.5489168,-0.30162507,-0.5656497,16.261873245239258,0.5809340476989746,-3.3603549003601074,72.55919647216797,231.3939208984375, 142.74310302734375
613,583973138,0.56484675,-0.528009,-0.2820786,-0.56796694,16.595989227294922,-0.17700740694999695,-3.550326108932495,103.68196105957031,221.37985229492188, 132.3307342529297
614,583989805,0.59418464,-0.50325197,-0.26720706,-0.5676995,16.80553436279297,1.7491847276687622,-4.158991813659668,145.2891387939453,210.90235900878906, 121.72189331054688
615,584006472,0.6184564,-0.47897646,-0.25348583,-0.56906784,15.774759292602539,4.827448844909668,-4.452262878417969,127.29032897949219,200.97254943847656, 92.4202880859375
616,584023139,0.6375629,-0.4592763,-0.24079363,-0.56973445,13.855128288269043,2.8361151218414307,-8.071930885314941,96.06310272216797,167.70510864257812, 80.09243774414062
617,584039806,0.64934623,-0.44758382,-0.22963552,-0.57033825,11.627551078796387,5.27243185043335,-10.396463394165039,43.9838752746582,117.72042846679688, 60.31503677368164
618,584056473,0.653488,-0.44485947,-0.22243643,-0.5705924,9.261894226074219,4.445328712463379,-12.094802856445312,-3.4968862533569336,52.22703170776367, 34.12095642089844
619,584073140,0.652775,-0.4466593,-0.2241068,-0.5693475,9.361571311950684,3.9000420570373535,-11.977259635925293,-1.4372708797454834,-16.93308448791504, 1.8715794086456299
620,584089807,0.64904904,-0.45078853,-0.23421533,-0.5662758,10.367298126220703,3.4022116661071777,-10.497876167297363,14.814472198486328,-73.71727752685547, -23.82216453552246
621,584106474,0.6431742,-0.45694953,-0.24966978,-0.561417,11.841983795166016,2.637807607650757,-8.648401260375977,22.829204559326172,-114.0317611694336, -37.33622360229492
622,584123141,0.63577324,-0.46409267,-0.26907772,-0.5549844,13.15546703338623,2.014817237854004,-7.658995628356934,31.738117218017578,-142.4676971435547, -46.82554244995117
623,584139808,0.62769747,-0.47086653,-0.29201669,-0.5468151,13.699832916259766,1.6302696466445923,-7.202391624450684,47.91966247558594,-162.87802124023438, -53.632808685302734
624,584156475,0.6192041,-0.47689456,-0.31719154,-0.5371662,13.584373474121094,1.9330062866210938,-6.441054821014404,61.19689178466797,-174.96173095703125, -57.455543518066406
625,584173142,0.6101107,-0.48260012,-0.3406653,-0.528024,14.917591094970703,-0.7090854644775391,0.939800500869751,53.29500198364258,-165.83229064941406, -56.83829116821289
626,584189809,0.6047108,-0.48758423,-0.35256156,-0.5218113,12.175125122070312,-13.938638687133789,23.501779556274414,19.679731369018555,-96.15669250488281, -18.952489852905273
627,584206476,0.5976254,-0.49652666,-0.3586783,-0.5173541,8.552868843078613,-2.968791961669922,5.99315881729126,-27.446449279785156,-85.233154296875, -3.6860532760620117
628,584223143,0.58860517,-0.5036139,-0.3685945,-0.5138627,19.42523956298828,0.264761745929718,-6.930233478546143,-15.330073356628418,-95.87814331054688, -32.12507629394531
629,584239810,0.5791167,-0.5100213,-0.38143802,-0.5089277,14.18404769897461,-1.2003941535949707,-0.4743942320346832,-0.13586921989917755,-111.14955139160156, -39.654781341552734
630,584256477,0.5711324,-0.51507103,-0.3953172,-0.50222933,11.12926959991455,-2.664600133895874,0.5020275115966797,18.793935775756836,-112.67382049560547, -34.5322380065918
631,584273144,0.5642466,-0.5185957,-0.4103882,-0.4942329,10.825282096862793,-0.3056645095348358,0.48523956537246704,36.33766555786133,-113.68252563476562, -34.06183624267578
632,584289811,0.55815536,-0.52094895,-0.42566884,-0.48567578,10.01969051361084,-2.0341646671295166,0.7196546196937561,46.005096435546875,-110.26426696777344, -33.23292922973633
633,584306478,0.5532488,-0.5224094,-0.44058204,-0.47633174,9.6368408203125,-2.915731430053711,0.4523817300796509,54.747642517089844,-105.2355728149414, -27.62102508544922
634,584323145,0.5483254,-0.52415,-0.45387137,-0.46755418,10.332274436950684,-1.1216024160385132,-0.9049605131149292,46.58778381347656,-98.00930786132812, -23.247568130493164
635,584339812,0.540781,-0.5278662,-0.46413404,-0.4620532,10.665541648864746,0.5935766100883484,-0.834437906742096,9.7330961227417,-89.29594421386719, -26.974197387695312
636,584356479,0.53162795,-0.53335786,-0.4714129,-0.45898914,10.489714622497559,-1.2841154336929321,-0.655157208442688,-19.9615478515625,-80.13005065917969, -24.588411331176758
637,584373146,0.522117,-0.5393363,-0.47734454,-0.45678487,10.354660034179688,-1.382392168045044,0.6869392395019531,-30.099206924438477,-74.7670669555664, -22.334796905517578
638,584389813,0.5132969,-0.5449286,-0.4827466,-0.45446104,10.891446113586426,-1.8798439502716064,0.571223258972168,-27.434162139892578,-69.90609741210938, -19.036989212036133
639,584406480,0.50509197,-0.5497467,-0.4886842,-0.45149598,11.575159072875977,-1.5287505388259888,0.9105228781700134,-18.606584548950195,-69.82005310058594, -19.445838928222656
640,584423147,0.4967261,-0.55386615,-0.4955864,-0.44820765,11.772047996520996,-0.3424132764339447,0.13863727450370789,-12.725774765014648,-72.86509704589844, -24.827829360961914
641,584439814,0.48641878,-0.55855554,-0.5027751,-0.44567907,11.743512153625488,-0.15831908583641052,0.6214089393615723,-23.781539916992188,-79.40563201904297, -32.526268005371094
642,584456481,0.47427368,-0.56429166,-0.50948316,-0.4439216,11.048760414123535,-1.3713704347610474,1.0719668865203857,-38.48737716674805,-84.510986328125, -35.23493957519531
643,584473148,0.4620067,-0.5701192,-0.5160295,-0.4418462,10.89338493347168,-1.9485514163970947,0.8424490094184875,-38.65848922729492,-86.05967712402344, -33.633056640625
644,584489815,0.44968954,-0.57578355,-0.52284724,-0.4391851,10.464160919189453,-1.3016390800476074,0.373406320810318,-35.45766830444336,-89.03702545166016, -33.60609436035156
645,584506482,0.43682203,-0.5815569,-0.52980304,-0.4362191,10.171847343444824,-1.3514533042907715,0.28956514596939087,-36.479251861572266,-93.10475158691406, -34.50139617919922
646,584523149,0.42388773,-0.5873189,-0.53691864,-0.43254375,10.168149948120117,-1.9441591501235962,-0.08513128757476807,-33.66537094116211,-96.7575912475586, -33.28162384033203
647,584539816,0.41097265,-0.59293234,-0.5443131,-0.4280842,10.209213256835938,-2.112823724746704,0.04367053508758545,-29.455154418945312,-100.34823608398438, -32.67078399658203
648,584556483,0.3976687,-0.5987251,-0.55162317,-0.4232022,10.35018253326416,-1.8676034212112427,-0.7804035544395447,-30.240772247314453,-103.95416259765625, -31.6765193939209
649,584573150,0.38296887,-0.60522085,-0.5581166,-0.41898537,10.687972068786621,-1.2097183465957642,-0.30031824111938477,-42.83527374267578,-106.44338989257812, -31.590435028076172
650,584589817,0.36690688,-0.6126446,-0.5632033,-0.41575062,10.40300178527832,-1.0729331970214844,-0.368379682302475,-58.7902946472168,-106.70988464355469, -28.72539520263672
651,584606484,0.34896356,-0.62110424,-0.5670498,-0.41341108,10.964242935180664,-0.5686420798301697,-0.2549562156200409,-76.35648345947266,-110.21969604492188, -27.167505264282227
652,584623151,0.32871765,-0.6305374,-0.56944805,-0.41242748,12.250419616699219,0.2599914073944092,-0.09162554144859314,-97.9454345703125,-112.88956451416016, -27.01361656188965
653,584639818,0.30667043,-0.6404398,-0.57075125,-0.41235116,13.026263236999512,0.8459057807922363,-0.275197297334671,-113.47065734863281,-115.09735107421875, -27.604190826416016
654,584656485,0.2829915,-0.65048945,-0.5712794,-0.41281858,13.244467735290527,0.6695484519004822,1.434219479560852,-125.27552032470703,-118.14263153076172, -29.40851402282715
655,584673152,0.25786638,-0.66040874,-0.5707195,-0.4143004,14.167715072631836,-0.3923480212688446,2.596050500869751,-138.55130004882812,-117.13208770751953, -31.184438705444336
656,584689819,0.23199184,-0.670035,-0.5693121,-0.41607326,15.241861343383789,-2.7120046615600586,1.8817026615142822,-144.98973083496094,-116.81657409667969, -31.26617431640625
657,584706486,0.20719323,-0.6782588,-0.5680956,-0.41749653,15.006081581115723,-4.670045375823975,2.6235592365264893,-135.9244384765625,-110.90670776367188, -34.24726486206055
658,584723153,0.18337972,-0.6850565,-0.56711435,-0.41886836,13.268560409545898,-5.44223690032959,3.002321243286133,-128.53219604492188,-103.96369171142578, -38.33466720581055
659,584739820,0.15864575,-0.69088507,-0.5658586,-0.42108643,12.031636238098145,-4.558379650115967,2.304882287979126,-135.8455047607422,-100.81583404541016, -44.91028594970703
660,584756487,0.13020219,-0.696518,-0.5624769,-0.42606345,11.809927940368652,-3.1020421981811523,-1.3568953275680542,-170.25213623046875,-99.57733154296875, -49.68175506591797
661,584773154,0.09710959,-0.70226103,-0.5562225,-0.43360826,12.171289443969727,-4.869078159332275,-4.60872745513916,-211.08966064453125,-103.18186950683594, -51.76355743408203
662,584789821,0.06514815,-0.706101,-0.5500956,-0.44110343,13.516561508178711,-7.095884323120117,-3.3694591522216797,-203.98207092285156,-93.54844665527344, -56.687965393066406
663,584806488,0.050975665,-0.7069958,-0.5507449,-0.4407251,10.264400482177734,-9.76734447479248,0.9770013689994812,-66.19590759277344,-58.73604965209961, -43.71977996826172
664,584823155,0.05137615,-0.70558524,-0.55612075,-0.43616512,9.86306095123291,-6.068701267242432,2.3562042713165283,35.37504577636719,-18.83553123474121, -30.24009895324707
665,584839822,0.05942494,-0.70248336,-0.5612578,-0.43356162,9.173227310180664,-4.495211601257324,1.9752607345581055,64.79069519042969,24.68594741821289, -13.579668998718262
666,584856489,0.07072467,-0.698752,-0.56355476,-0.4349136,8.016487121582031,-4.892946720123291,1.3630616664886475,56.98851013183594,59.02767562866211, 5.570849895477295
667,584873156,0.08653594,-0.6943738,-0.5634196,-0.43922102,7.755735397338867,-5.128341197967529,1.0178449153900146,60.21914291381836,93.53882598876953, 26.596662521362305
668,584889823,0.107272685,-0.68979526,-0.5606452,-0.4453675,7.649160861968994,-3.3548059463500977,0.35192379355430603,68.72785186767578,123.31407928466797, 51.993858337402344
669,584906490,0.13117307,-0.6850698,-0.55483997,-0.45345995,8.619282722473145,-1.7667951583862305,0.4597299098968506,67.06282806396484,147.1971435546875, 73.91478729248047
670,584923157,0.15759407,-0.6799863,-0.545935,-0.4633982,9.86312484741211,-1.327463150024414,0.5775193572044373,62.60274124145508,169.18443298339844, 93.2369613647461
671,584939824,0.18698895,-0.674279,-0.5348829,-0.47358578,10.979419708251953,-1.3195210695266724,-0.587746262550354,69.4675521850586,185.57420349121094, 110.0425796508789
672,584956491,0.21851628,-0.6681233,-0.521583,-0.48354235,11.641510963439941,-1.9837076663970947,-1.4428776502609253,73.49650573730469,196.47250366210938, 125.97029876708984
673,584973158,0.2525993,-0.66149914,-0.5063065,-0.4922057,12.175549507141113,-2.420607805252075,-2.197662353515625,84.00568389892578,204.03823852539062, 143.72940063476562
674,584989825,0.2885629,-0.6536341,-0.48918152,-0.5001955,12.932287216186523,-1.2103952169418335,-2.410548686981201,90.7936782836914,214.7918243408203, 155.27774047851562
675,585006492,0.32514533,-0.6445897,-0.46965784,-0.50814015,13.39146900177002,-0.898864209651947,-2.760572910308838,87.81405639648438,225.3771209716797, 164.31317138671875
676,585023159,0.36270568,-0.63401234,-0.44863978,-0.5149713,14.197436332702637,-0.18454554677009583,-2.828725814819336,93.96802520751953,232.25009155273438, 171.94149780273438
677,585039826,0.39889702,-0.62239367,-0.42542064,-0.522039,15.365941047668457,1.5108143091201782,-2.8093903064727783,82.09229278564453,238.2460479736328, 173.0052032470703
678,585056493,0.43264887,-0.6103776,-0.3998829,-0.529479,15.855931282043457,1.8411529064178467,-3.4585142135620117,63.37548065185547,240.57571411132812, 172.19970703125
679,585073160,0.46470955,-0.5973632,-0.37317258,-0.5366048,16.130027770996094,1.393091082572937,-3.0460586547851562,55.88814163208008,241.92874145507812, 169.40966796875
680,585089827,0.4959849,-0.5824826,-0.34679282,-0.5426306,16.32537269592285,1.083681583404541,-2.5076816082000732,62.71944046020508,241.46681213378906, 164.1556396484375
681,585106494,0.52634996,-0.56505716,-0.32159942,-0.5479418,16.807653427124023,1.8412388563156128,-2.7801871299743652,73.9363784790039,242.1547393798828, 152.6842498779297
682,585123161,0.5551984,-0.5455214,-0.29823607,-0.5524642,16.342992782592773,1.607112169265747,-3.1696133613586426,84.38007354736328,237.3937530517578, 138.43385314941406
683,585139828,0.58363193,-0.5233341,-0.27866966,-0.5548323,15.639324188232422,0.6520366668701172,-3.759106159210205,111.85449981689453,224.42584228515625, 125.81295776367188
684,585156495,0.61272323,-0.49689695,-0.26467982,-0.55462456,15.485750198364258,2.997999668121338,-4.33853006362915,157.55191040039062,210.6942596435547, 110.84872436523438
685,585173162,0.63577205,-0.47261417,-0.25156036,-0.55601007,14.260519981384277,4.0854034423828125,-4.9916157722473145,128.2216033935547,193.76556396484375, 82.48896026611328
686,585189829,0.65357465,-0.45378977,-0.2394757,-0.55638736,12.064395904541016,3.555577039718628,-7.848752975463867,93.04975891113281,156.5486602783203, 73.38182067871094
687,585206496,0.66420126,-0.44278696,-0.22918883,-0.55700034,9.671857833862305,5.451478958129883,-9.583708763122559,41.903873443603516,108.1567153930664, 52.39325714111328
688,585223163,0.6682355,-0.4388415,-0.22400236,-0.557407,7.8964924812316895,5.030852317810059,-10.384594917297363,9.781033515930176,47.33965301513672, 24.218292236328125
