PacketCounter,SampleTimeFine,Quat_W,Quat_X,Quat_Y,Quat_Z,Acc_X,Acc_Y,Acc_Z,Gyr_X,Gyr_Y,Gyr_Z 
1,3393769536,0.4948287,-0.52275395,-0.42003775,-0.55266744,-0.38671523332595825,0.5136203765869141,-0.04944663122296333,0.8269287347793579,-0.5238786339759827, 0.4891749918460846
2,3393786203,0.49912652,-0.5124448,-0.40847597,-0.5669397,13.322660446166992,0.31619134545326233,-1.7499394416809082,-37.0287971496582,276.88177490234375, 35.83086395263672
3,3393802870,0.49972928,-0.50612056,-0.40396968,-0.5752574,13.786404609680176,1.1166150569915771,-2.2900476455688477,-21.05381202697754,276.8606262207031, 39.557838439941406
4,3393819537,0.49738955,-0.5006523,-0.40174162,-0.5835707,14.033649444580078,1.7422720193862915,-2.0929551124572754,-27.777067184448242,274.68896484375, 39.40829086303711
5,3393836204,0.4956454,-0.4936873,-0.39792427,-0.59351915,14.616975784301758,0.5363377928733826,-2.7077059745788574,-37.306007385253906,271.2171630859375, 43.10441970825195
6,3393852871,0.49619496,-0.48885247,-0.39074326,-0.6017756,14.827668190002441,0.8709213733673096,-2.6426174640655518,-43.160926818847656,263.76275634765625, 45.652523040771484
7,3393869538,0.496839,-0.48552433,-0.38007575,-0.6107042,15.09235668182373,0.4150787591934204,-2.701768398284912,-63.02788162231445,256.5008544921875, 47.74895095825195
8,3393886205,0.49725318,-0.48420122,-0.36626938,-0.6197864,15.152241706848145,0.40363553166389465,-2.559802532196045,-81.763671875,245.58155822753906, 51.100460052490234
9,3393902872,0.49621585,-0.48517376,-0.3494644,-0.6294847,15.087149620056152,0.5079476237297058,-2.8000259399414062,-106.84715270996094,231.7536163330078, 53.790828704833984
10,3393919539,0.49366444,-0.48833027,-0.33084688,-0.63903797,14.67786693572998,-0.3793203830718994,-3.126762866973877,-125.43953704833984,214.99124145507812, 58.473426818847656
11,3393936206,0.49029258,-0.49345568,-0.31077567,-0.6477139,14.380268096923828,0.12184745818376541,-3.969609260559082,-136.41793823242188,199.0390625, 63.83871841430664
12,3393952873,0.4882289,-0.49779466,-0.2955518,-0.6530562,13.055142402648926,0.11624923348426819,-5.6881256103515625,-98.78575134277344,173.579345703125, 63.53297805786133
13,3393969540,0.4875932,-0.5013963,-0.2886497,-0.6538623,11.656244277954102,1.6980912685394287,-7.98150110244751,-42.78093719482422,135.90798950195312, 54.52777862548828
14,3393986207,0.48601687,-0.50638634,-0.29074034,-0.65025437,10.497138977050781,3.8246612548828125,-9.452678680419922,-0.8296979069709778,85.21176147460938, 39.16958236694336
15,3394002874,0.48064706,-0.5150259,-0.29998666,-0.64322245,10.31616497039795,4.435731887817383,-9.907634735107422,11.676660537719727,27.714115142822266, 21.205228805541992
16,3394019541,0.47075033,-0.5273008,-0.31486875,-0.63340807,10.87495231628418,5.342280864715576,-9.653640747070312,13.419961929321289,-26.16135025024414, 1.7756121158599854
17,3394036208,0.45622924,-0.54207504,-0.3330913,-0.6221414,11.223345756530762,5.086714267730713,-8.30858039855957,5.182474613189697,-65.7399673461914, -16.422182083129883
18,3394052875,0.43736276,-0.5585157,-0.35257354,-0.6102998,11.640449523925781,5.0104570388793945,-7.327030658721924,-10.282896041870117,-95.44052124023438, -32.01713943481445
19,3394069542,0.41472295,-0.57565796,-0.37217957,-0.5984189,12.224658966064453,4.966348648071289,-6.7256059646606445,-26.71560287475586,-116.65877532958984, -45.330745697021484
20,3394086209,0.38894263,-0.5927859,-0.39090794,-0.586958,12.455710411071777,5.401954174041748,-5.532039642333984,-43.933067321777344,-129.9169158935547, -55.461219787597656
21,3394102876,0.36041024,-0.6088649,-0.40809464,-0.57692885,13.698124885559082,6.438986301422119,0.6544203758239746,-62.34891128540039,-133.91419982910156, -66.3103256225586
22,3394119543,0.33959192,-0.61795473,-0.42191422,-0.5699104,12.940727233886719,-5.352831840515137,17.36489486694336,-33.95183563232422,-80.66382598876953, -48.09318542480469
23,3394136210,0.3197259,-0.6264088,-0.42990083,-0.5661915,15.548415184020996,0.6257607340812683,-1.3341758251190186,-60.422489166259766,-79.33184051513672, -42.1827507019043
24,3394152877,0.30076337,-0.63462347,-0.4402309,-0.55945617,20.1498966217041,-2.4145631790161133,-3.513664722442627,-37.902801513671875,-101.68143463134766, -48.12949752807617
25,3394169544,0.28805786,-0.64045733,-0.45488235,-0.5476487,14.021166801452637,0.16346429288387299,0.8024799227714539,25.608570098876953,-109.97314453125, -47.80691146850586
26,3394186211,0.273564,-0.6463682,-0.4669046,-0.5379324,12.9149169921875,1.6748846769332886,-0.23351465165615082,1.3414502143859863,-108.70047760009766, -51.26893997192383
27,3394202878,0.259126,-0.65239555,-0.47754726,-0.5283774,11.300250053405762,-0.24922975897789001,1.2700104713439941,-3.8831357955932617,-111.09608459472656, -47.387813568115234
28,3394219545,0.24786054,-0.65784824,-0.48649105,-0.51877505,9.076290130615234,1.079163908958435,3.1203501224517822,5.474069595336914,-101.23346710205078, -33.4342041015625
29,3394236212,0.23913299,-0.661884,-0.49346524,-0.511094,9.796342849731445,2.2527027130126953,3.0406744480133057,6.494182586669922,-81.0077896118164, -25.372587203979492
30,3394252879,0.23230208,-0.6647138,-0.4989443,-0.50521886,10.45511245727539,1.8030067682266235,2.31088924407959,6.455726623535156,-64.33037567138672, -20.053194046020508
31,3394269546,0.22824088,-0.6665948,-0.5033838,-0.50016224,9.762455940246582,0.6995997428894043,1.9747737646102905,13.366514205932617,-50.00389099121094, -14.5452299118042
32,3394286213,0.22641286,-0.66836274,-0.50780416,-0.49412894,10.461552619934082,-0.9624698162078857,0.053327709436416626,25.738351821899414,-47.48483657836914, -9.434576034545898
33,3394302880,0.22771573,-0.66969126,-0.51438767,-0.4848346,12.25481128692627,-1.1331454515457153,-0.7073138356208801,58.91209030151367,-53.14775466918945, -6.467338562011719
34,3394319547,0.23174044,-0.6707888,-0.52298295,-0.47204652,11.397393226623535,-3.149214267730713,1.3839377164840698,90.7004623413086,-61.77711486816406, -2.2547943592071533
35,3394336214,0.237984,-0.671611,-0.53305405,-0.45624104,9.960431098937988,-2.395486831665039,1.5716313123703003,116.9580307006836,-69.11177062988281, 1.8907692432403564
36,3394352881,0.2445183,-0.67263734,-0.54431444,-0.4375977,9.589787483215332,-1.3091728687286377,1.7457884550094604,132.09571838378906,-83.67562103271484, 2.7446181774139404
37,3394369548,0.24839845,-0.6743925,-0.5553842,-0.41837946,9.418869018554688,0.9704070091247559,1.9382747411727905,120.18812561035156,-98.10846710205078, -0.6173953413963318
38,3394386215,0.24790941,-0.6772955,-0.56495386,-0.40079784,9.337667465209961,0.8705113530158997,2.706272602081299,87.424560546875,-107.9318618774414, -4.575008392333984
39,3394402882,0.24391998,-0.68082917,-0.57328624,-0.38512033,8.762332916259766,0.6030857563018799,2.2859466075897217,59.26188278198242,-112.29996490478516, -9.23071575164795
40,3394419549,0.23737086,-0.68450737,-0.58143353,-0.37018913,9.199661254882812,0.4767216742038727,1.8168470859527588,43.60839080810547,-118.96852111816406, -15.81255054473877
41,3394436216,0.22826332,-0.6882033,-0.58905864,-0.35676605,9.818819999694824,1.1464016437530518,1.4842981100082397,24.17998504638672,-121.29597473144531, -22.255332946777344
42,3394452883,0.21709684,-0.6920797,-0.5959496,-0.344585,10.453059196472168,1.3117560148239136,0.9219423532485962,7.334035396575928,-123.06063842773438, -25.045162200927734
43,3394469550,0.20331165,-0.6961794,-0.6018485,-0.33433113,10.639925003051758,0.8826124668121338,0.7017650604248047,-15.701335906982422,-123.6832275390625, -28.488367080688477
44,3394486217,0.18889022,-0.6999223,-0.60752267,-0.32456982,10.439530372619629,0.2560499608516693,-0.054935649037361145,-20.801959991455078,-122.84044647216797, -31.048349380493164
45,3394502884,0.1746132,-0.7032986,-0.61306,-0.31470475,10.714936256408691,-0.3310331702232361,-0.8542935252189636,-19.5159912109375,-121.74726104736328, -31.474451065063477
46,3394519551,0.16175069,-0.7060113,-0.6188597,-0.30396983,10.658692359924316,0.242298424243927,-0.15047596395015717,-7.656134128570557,-118.87447357177734, -31.458698272705078
47,3394536218,0.14827766,-0.7083104,-0.62426937,-0.29427585,10.535605430603027,1.371599555015564,-0.8532988429069519,-15.40408992767334,-115.14058685302734, -33.765342712402344
48,3394552885,0.13470921,-0.71023685,-0.6298233,-0.2841476,10.555441856384277,1.456827998161316,-0.37850773334503174,-13.321030616760254,-117.06974792480469, -35.810001373291016
49,3394569552,0.12085711,-0.7118646,-0.6351313,-0.27431887,11.21087646484375,1.3308383226394653,-0.2486141175031662,-16.19124984741211,-116.04349517822266, -36.7381706237793
50,3394586219,0.10855963,-0.7131275,-0.64071256,-0.26296693,12.011962890625,0.15909093618392944,-0.4517075717449188,-1.1062573194503784,-116.28209686279297, -35.472259521484375
51,3394602886,0.09814515,-0.7140404,-0.6464955,-0.25011513,12.101353645324707,-0.015653952956199646,0.5438889265060425,15.349268913269043,-114.89803314208984, -33.499969482421875
52,3394619553,0.08796434,-0.7147944,-0.65187764,-0.23745956,12.773117065429688,0.13343223929405212,0.8230462670326233,15.033001899719238,-112.39874267578125, -31.98081398010254
53,3394636220,0.07971537,-0.7153736,-0.6575,-0.22266638,13.562933921813965,-1.2620389461517334,1.6092954874038696,34.60619354248047,-114.1592788696289, -29.510934829711914
54,3394652887,0.073189884,-0.7154218,-0.66363984,-0.2059054,13.243095397949219,-1.3127182722091675,2.6846861839294434,53.0416259765625,-115.58464050292969, -30.754690170288086
55,3394669554,0.06792101,-0.71539694,-0.6693535,-0.18857342,13.10002613067627,-1.9967033863067627,2.9316372871398926,61.25007629394531,-112.40039825439453, -26.932235717773438
56,3394686221,0.06434807,-0.715266,-0.6746296,-0.17067185,12.361068725585938,-0.7512941360473633,4.205662727355957,71.67546844482422,-107.10560607910156, -22.806337356567383
57,3394702888,0.062770545,-0.71516776,-0.6789242,-0.15380804,11.339285850524902,0.3739607036113739,7.138734817504883,75.5167007446289,-92.38937377929688, -15.933743476867676
58,3394719555,0.062490974,-0.71456826,-0.683249,-0.13659501,12.177794456481934,4.935871601104736,2.5818536281585693,83.80842590332031,-87.56678771972656, -16.877714157104492
59,3394736222,0.056737717,-0.7139926,-0.68769926,-0.11859635,16.693758010864258,10.238178253173828,-7.364692687988281,60.80524826049805,-117.24022674560547, -22.148008346557617
60,3394752889,0.042395707,-0.71498287,-0.68933874,-0.10869432,18.955657958984375,5.0727972984313965,-5.841644287109375,-22.40133285522461,-118.33787536621094, -11.081777572631836
61,3394769556,0.028163418,-0.71682477,-0.6886657,-0.10539788,12.339877128601074,3.561652421951294,10.392955780029297,-55.14103317260742,-85.36280059814453, 2.459120035171509
62,3394786223,0.017883759,-0.7187175,-0.68621844,-0.11058779,6.378801345825195,-0.8399505019187927,6.792374610900879,-77.14900970458984,-24.457849502563477, 12.649276733398438
63,3394802890,0.015272711,-0.7202419,-0.6837951,-0.11594307,9.547660827636719,2.7729239463806152,2.384032726287842,-40.05358123779297,12.978489875793457, 16.595298767089844
64,3394819557,0.015657045,-0.7210747,-0.68118906,-0.1256496,9.132713317871094,2.4571175575256348,3.084737539291382,-45.75851058959961,49.2492790222168, 16.18161392211914
65,3394836224,0.023162615,-0.7214337,-0.67852944,-0.1363629,7.12851095199585,0.8745520710945129,4.045983791351318,-15.17132568359375,88.05663299560547, 20.277503967285156
66,3394852891,0.037825726,-0.7208198,-0.67589,-0.14886524,6.991187572479248,1.5186952352523804,3.7932536602020264,12.136771202087402,131.28965759277344, 22.07276725769043
67,3394869558,0.05714656,-0.7183748,-0.6737014,-0.16370209,7.380074977874756,1.0911935567855835,3.0187528133392334,25.30449104309082,166.3031005859375, 15.501230239868164
68,3394886225,0.07873408,-0.71420646,-0.6712581,-0.1819966,8.260458946228027,0.6279795169830322,2.4342544078826904,20.865503311157227,195.94654846191406, 9.975050926208496
69,3394902892,0.09989661,-0.7090433,-0.667261,-0.20503889,9.425537109375,-0.49359557032585144,0.8143246173858643,-4.55717134475708,219.3924560546875, 9.916367530822754
70,3394919559,0.12165942,-0.7031294,-0.66158044,-0.2304767,10.264749526977539,-0.9092820286750793,-0.5378828048706055,-14.504410743713379,236.03814697265625, 13.867353439331055
71,3394936226,0.14377004,-0.6964186,-0.6540113,-0.2580707,10.818072319030762,-0.36907467246055603,-0.9795104265213013,-24.986042022705078,250.8857421875, 18.107513427734375
72,3394952893,0.16598862,-0.6891668,-0.6440991,-0.28746015,11.617608070373535,-0.31471747159957886,-1.0901422500610352,-36.178977966308594,263.2445068359375, 25.299293518066406
73,3394969560,0.18917783,-0.68124723,-0.63200825,-0.31730098,12.589990615844727,0.15764805674552917,-1.3567534685134888,-37.13454055786133,273.4843444824219, 34.060516357421875
74,3394986227,0.21287335,-0.6724766,-0.61807925,-0.34704232,13.288537979125977,0.8830007910728455,-1.8552414178848267,-37.2328987121582,279.4601135253906, 40.1959114074707
75,3395002894,0.2352709,-0.66314244,-0.6020732,-0.37735617,13.867180824279785,1.389929175376892,-2.1910934448242188,-49.804325103759766,280.9736633300781, 43.47473907470703
76,3395019561,0.256188,-0.65359026,-0.58373886,-0.40796638,14.426273345947266,0.5683870315551758,-2.6657307147979736,-63.45392608642578,280.5387268066406, 48.860347747802734
77,3395036228,0.27662385,-0.6437848,-0.5635401,-0.43754205,15.277084350585938,0.7347760796546936,-2.457324504852295,-66.26309204101562,277.9683532714844, 56.69317626953125
78,3395052895,0.29575703,-0.63397694,-0.54104227,-0.46677002,16.15121078491211,0.8681676983833313,-2.4080605506896973,-77.5962905883789,275.7823486328125, 63.595455169677734
79,3395069562,0.31417933,-0.6241149,-0.51732415,-0.49411306,16.60268783569336,1.0795185565948486,-2.201606273651123,-77.49220275878906,267.59521484375, 70.26107788085938
80,3395086229,0.3292062,-0.61505497,-0.4920199,-0.520814,16.400299072265625,2.2252156734466553,-1.8422269821166992,-96.90251159667969,253.4879608154297, 69.76970672607422
81,3395102896,0.33950248,-0.6077105,-0.46451613,-0.5474039,16.291658401489258,1.7395212650299072,-2.3914310932159424,-128.2915496826172,235.88307189941406, 68.20293426513672
82,3395119563,0.34873086,-0.601084,-0.43717927,-0.5709284,15.18874740600586,-0.5155931711196899,-4.767746925354004,-124.01390075683594,216.61740112304688, 72.9452133178711
83,3395136230,0.36071694,-0.59274447,-0.41711038,-0.5869892,13.286943435668945,1.5540684461593628,-5.745355129241943,-57.5345573425293,183.43768310546875, 66.45775604248047
84,3395152897,0.37285322,-0.5839188,-0.40487796,-0.59673536,10.871167182922363,2.448621988296509,-8.554177284240723,-5.977756500244141,140.75961303710938, 49.41900634765625
85,3395169564,0.38179135,-0.5772807,-0.4004347,-0.6005286,9.338509559631348,4.44999361038208,-9.477858543395996,24.094018936157227,79.15812683105469, 26.417844772338867
86,3395186231,0.38361573,-0.57573545,-0.40009618,-0.60107476,9.23769474029541,4.792511463165283,-8.823559761047363,8.372589111328125,15.02773666381836, 3.3685920238494873
87,3395202898,0.37919995,-0.5783359,-0.4021824,-0.59998715,9.98359489440918,3.9005768299102783,-7.105650424957275,-12.754239082336426,-32.02090835571289, -16.240041732788086
88,3395219565,0.37066743,-0.5832966,-0.4060367,-0.5979173,10.524005889892578,2.9281890392303467,-5.745939254760742,-25.27323341369629,-61.59423065185547, -31.125551223754883
89,3395236232,0.3590462,-0.58993816,-0.4107485,-0.5952686,11.120497703552246,2.844221591949463,-4.743722438812256,-36.805152893066406,-81.60757446289062, -41.07747268676758
90,3395252899,0.34459704,-0.59794825,-0.41558814,-0.59245026,11.193528175354004,2.9976611137390137,-4.297869682312012,-50.65269088745117,-96.19854736328125, -48.87337112426758
91,3395269566,0.32817146,-0.606656,-0.42060116,-0.5893781,10.908880233764648,3.4701223373413086,-4.023564338684082,-59.000267028808594,-106.15250396728516, -55.03004837036133
92,3395286233,0.31137928,-0.6154534,-0.42623883,-0.5853039,10.861686706542969,3.591540813446045,-4.150018215179443,-55.30043029785156,-113.18106842041016, -56.58391571044922
93,3395302900,0.29455516,-0.62373394,-0.43360704,-0.5798087,11.766592979431152,7.0593438148498535,-2.1655185222625732,-43.198089599609375,-120.92788696289062, -62.49592971801758
94,3395319567,0.2806716,-0.62979776,-0.43960053,-0.5756125,14.39702033996582,-2.5100810527801514,9.314165115356445,-35.42691421508789,-95.01786041259766, -54.054935455322266
95,3395336234,0.26985243,-0.6350231,-0.44720268,-0.56915313,17.83997344970703,-1.4792616367340088,1.252404808998108,-7.306841850280762,-95.6124267578125, -47.190185546875
96,3395352901,0.255152,-0.6415161,-0.45589814,-0.56170416,18.63755226135254,-2.1059956550598145,-1.3519806861877441,-19.286964416503906,-118.96044921875, -61.521488189697266
97,3395369568,0.2439377,-0.64671385,-0.46858668,-0.5501656,14.243595123291016,-1.048241376876831,0.39419734477996826,26.58619499206543,-128.12747192382812, -62.658775329589844
98,3395386235,0.23099324,-0.65219975,-0.48062503,-0.5387739,12.305063247680664,0.4359208643436432,-0.16462421417236328,15.471604347229004,-133.11769104003906, -65.69060516357422
99,3395402902,0.21708685,-0.6581631,-0.49053594,-0.52827024,9.139535903930664,0.4893062710762024,1.8006010055541992,-0.4079502820968628,-130.74798583984375, -59.57283401489258
100,3395419569,0.20487076,-0.6632005,-0.4981075,-0.5196944,7.8360161781311035,4.642860412597656,1.6072643995285034,-6.371943950653076,-109.53203582763672, -48.85662078857422
101,3395436236,0.19379902,-0.6672103,-0.50400865,-0.5130767,10.406177520751953,5.0749077796936035,-0.6777135133743286,-12.337109565734863,-90.7021484375, -43.37089920043945
102,3395452903,0.18749411,-0.6704299,-0.51041305,-0.5048251,11.374113082885742,1.2846407890319824,-0.09570947289466858,18.049829483032227,-79.58694458007812, -29.38031768798828
103,3395469570,0.18562579,-0.6726829,-0.5171903,-0.49553505,10.443062782287598,-0.044056236743927,-0.7029353380203247,44.68999099731445,-65.97950744628906, -17.78464698791504
104,3395486237,0.18573615,-0.67409164,-0.52394456,-0.48639968,11.37318229675293,0.4020681381225586,-1.6379673480987549,54.27372741699219,-55.35790252685547, -14.17612075805664
105,3395502904,0.18614233,-0.6751252,-0.53025436,-0.47789916,11.51188850402832,-1.0295708179473877,-0.2069234848022461,52.338687896728516,-49.55702590942383, -13.321301460266113
106,3395519571,0.18755627,-0.6757116,-0.53656334,-0.4694001,11.938193321228027,-1.3520922660827637,0.05322326719760895,57.562744140625,-44.46816635131836, -11.689972877502441
107,3395536238,0.19102818,-0.6765034,-0.54318625,-0.45913,12.223499298095703,-2.4433159828186035,0.3172549903392792,74.39144134521484,-46.244163513183594, -3.5177688598632812
108,3395552905,0.19775307,-0.6772266,-0.55126613,-0.4453805,11.474074363708496,-1.2579600811004639,1.1815687417984009,107.1776123046875,-52.061519622802734, 4.2317891120910645
109,3395569572,0.20469593,-0.6782152,-0.56001544,-0.42954224,10.80496597290039,1.0739079713821411,1.4870315790176392,117.78984069824219,-62.777503967285156, 5.608670234680176
110,3395586239,0.20934989,-0.6796765,-0.5683193,-0.4137942,10.014552116394043,2.008392095565796,3.698338508605957,104.80502319335938,-72.02510070800781, 2.6469736099243164
111,3395602906,0.21051404,-0.68176055,-0.5750297,-0.4002844,9.621967315673828,1.835416555404663,3.8902835845947266,74.35492706298828,-74.79244995117188, -0.5794587731361389
112,3395619573,0.20864591,-0.68433136,-0.5812618,-0.38767567,9.26363754272461,2.015866994857788,2.3312675952911377,54.59158706665039,-83.31098175048828, -6.030862808227539
113,3395636240,0.20416395,-0.6869773,-0.58784586,-0.37525553,9.313043594360352,1.5486013889312744,2.2441484928131104,42.39875793457031,-93.64451599121094, -14.592942237854004
114,3395652907,0.19769308,-0.6895355,-0.5944413,-0.36345294,9.625838279724121,1.1431690454483032,1.202534794807434,30.684385299682617,-98.62580871582031, -20.984752655029297
115,3395669574,0.18988031,-0.69217706,-0.601371,-0.35098383,10.0414400100708,0.3226093351840973,0.3520897626876831,27.78431510925293,-107.99170684814453, -24.674068450927734
116,3395686241,0.18093157,-0.6948868,-0.6083798,-0.3380389,10.071736335754395,-0.11849110573530197,0.9456719160079956,24.449010848999023,-115.27645111083984, -26.904542922973633
117,3395702908,0.1699402,-0.69748867,-0.6152658,-0.32569635,10.543692588806152,0.5477022528648376,0.24033108353614807,12.011773109436035,-120.61245727539062, -32.286956787109375
118,3395719575,0.15686627,-0.7000757,-0.6217047,-0.31427792,10.69505786895752,-0.24256731569766998,0.4267749786376953,-2.8591744899749756,-124.5078353881836, -35.97248840332031
119,3395736242,0.14330187,-0.70269936,-0.6276573,-0.30286083,10.57558536529541,-0.9784756302833557,-0.4604119062423706,-6.3230180740356445,-126.23787689208984, -34.571632385253906
120,3395752909,0.1302925,-0.70496666,-0.6337063,-0.29062417,10.618699073791504,-0.8334881067276001,-0.7512418031692505,0.42458850145339966,-127.22842407226562, -34.659061431884766
121,3395769576,0.117603585,-0.7066892,-0.6397832,-0.2782757,11.005276679992676,0.09028701484203339,-0.43487560749053955,2.985550880432129,-125.34368896484375, -36.45807647705078
122,3395786243,0.105167076,-0.70824987,-0.64533615,-0.26620218,11.399491310119629,0.19021831452846527,-0.6284494400024414,2.125507116317749,-122.14849853515625, -34.367149353027344
123,3395802910,0.093537465,-0.7098616,-0.6503881,-0.25365895,11.722931861877441,-0.3349224328994751,0.0317406952381134,7.178548336029053,-120.54210662841797, -29.880687713623047
124,3395819577,0.08312801,-0.71144354,-0.6547292,-0.24138726,12.00808048248291,-0.7106215357780457,0.8763271570205688,10.684444427490234,-113.2071533203125, -24.587881088256836
125,3395836244,0.07323895,-0.7129058,-0.6585546,-0.22958075,12.41249942779541,-0.2079344093799591,1.112297534942627,10.331783294677734,-108.06270599365234, -22.00336265563965
126,3395852911,0.064373545,-0.71465737,-0.6616978,-0.21743329,12.493669509887695,-1.2754451036453247,1.5314325094223022,15.665655136108398,-105.18916320800781, -15.555843353271484
127,3395869578,0.056953564,-0.7165081,-0.6644889,-0.20451719,12.043200492858887,-1.0290064811706543,1.9431359767913818,25.672870635986328,-102.36857604980469, -10.870573997497559
128,3395886245,0.051493417,-0.7180855,-0.6670869,-0.19156365,11.072694778442383,-0.47762206196784973,4.0874714851379395,35.321189880371094,-93.12541198730469, -8.386673927307129
129,3395902912,0.049110375,-0.71899474,-0.66981864,-0.17882365,9.267695426940918,0.3006598651409149,5.054221153259277,49.952415466308594,-77.11563873291016, -8.113757133483887
130,3395919579,0.05153034,-0.71921325,-0.6736749,-0.1619854,9.95518970489502,0.9333281517028809,3.936008930206299,94.20710754394531,-74.76036834716797, -9.524698257446289
131,3395936246,0.055135287,-0.71885693,-0.6786286,-0.1402431,13.160500526428223,4.922346591949463,-2.3001620769500732,124.23648071289062,-93.26342010498047, -14.510916709899902
132,3395952913,0.054325547,-0.718129,-0.6835305,-0.118851446,16.431865692138672,9.718006134033203,-5.269286155700684,100.93907928466797,-111.76961517333984, -20.323795318603516
133,3395969580,0.047794458,-0.7193993,-0.6853035,-0.10266279,19.889196395874023,5.3525214195251465,-2.3883957862854004,45.06106185913086,-113.49546813964844, -2.059215784072876
134,3395986247,0.035632506,-0.72136533,-0.6844723,-0.09929775,10.21200180053711,4.108335494995117,6.894563674926758,-45.23606491088867,-76.37043762207031, 5.897521495819092
135,3396002914,0.023446351,-0.72313017,-0.6820857,-0.10626439,8.339646339416504,2.27549409866333,3.755263566970825,-94.964599609375,-24.71293830871582, 10.09317684173584
136,3396019581,0.01698236,-0.72437114,-0.67954475,-0.11496535,10.43970012664795,3.295952320098877,1.9587714672088623,-74.68248748779297,11.202668190002441, 12.272726058959961
137,3396036248,0.0148618305,-0.72504705,-0.6767652,-0.12678689,9.646984100341797,2.667290210723877,3.1334996223449707,-67.74357604980469,47.51689147949219, 13.868947982788086
138,3396052915,0.020204527,-0.7255749,-0.6733935,-0.14026454,7.462124347686768,0.9389380812644958,3.328422784805298,-38.742183685302734,90.69845581054688, 22.452499389648438
139,3396069582,0.035911556,-0.72548807,-0.6701379,-0.15261982,6.150420188903809,0.5933469533920288,2.761709451675415,18.33461570739746,133.70162963867188, 29.18994140625
140,3396086249,0.058483418,-0.72335273,-0.6678467,-0.1652919,6.754927158355713,2.336092472076416,2.72558331489563,52.61452102661133,168.88021850585938, 22.097749710083008
141,3396102916,0.0814326,-0.718807,-0.6654577,-0.18398774,7.774386405944824,2.030750274658203,2.6544272899627686,27.698829650878906,203.38619995117188, 9.557015419006348
142,3396119583,0.10349991,-0.7131075,-0.66158646,-0.20753077,9.61823558807373,0.09111611545085907,0.5856651067733765,-0.06473491340875626,225.60609436035156, 7.801025390625
143,3396136250,0.12639064,-0.7061593,-0.6565083,-0.23315561,11.030570983886719,0.4296322762966156,-0.709532618522644,-6.356210708618164,242.18988037109375, 7.727754592895508
144,3396152917,0.14948224,-0.698202,-0.649713,-0.26084906,11.992339134216309,0.32343220710754395,-2.019155979156494,-16.617761611938477,256.22906494140625, 10.035181045532227
145,3396169584,0.17333862,-0.6892988,-0.6414733,-0.28867477,12.617315292358398,0.7017531394958496,-1.616629958152771,-15.17874813079834,263.4406433105469, 13.972957611083984
146,3396186251,0.19666441,-0.6794084,-0.631417,-0.31786796,13.030596733093262,1.8324767351150513,-1.3907480239868164,-26.165061950683594,271.6839599609375, 15.532447814941406
147,3396202918,0.21959975,-0.6687476,-0.6194307,-0.3476468,13.29525089263916,1.3261789083480835,-1.7296801805496216,-33.71427917480469,276.994384765625, 19.56761360168457
148,3396219585,0.2422702,-0.65745324,-0.6056211,-0.37720543,13.492391586303711,1.291505217552185,-2.107557535171509,-37.389678955078125,279.1136474609375, 24.93466567993164
149,3396236252,0.2638342,-0.64600164,-0.58944273,-0.40697756,14.007633209228516,0.7643556594848633,-2.248412847518921,-49.19317626953125,279.829833984375, 31.767684936523438
150,3396252919,0.2838708,-0.6348039,-0.57014716,-0.43746293,14.936269760131836,-0.07932130992412567,-2.1361398696899414,-68.06997680664062,281.774169921875, 41.04975509643555
151,3396269586,0.30314648,-0.62399757,-0.5482972,-0.46701154,15.932745933532715,-0.12663698196411133,-2.2726783752441406,-76.18849182128906,278.5476989746094, 53.232635498046875
152,3396286253,0.3199531,-0.6138793,-0.5237964,-0.49640688,16.240829467773438,0.9252627491950989,-1.606988549232483,-96.19161987304688,271.96319580078125, 59.55563735961914
153,3396302920,0.33232394,-0.60518414,-0.49655962,-0.52606237,16.188682556152344,1.4528231620788574,-1.748988151550293,-128.33909606933594,258.3253173828125, 60.49129867553711
154,3396319587,0.33972844,-0.5984005,-0.46653205,-0.555742,16.08882713317871,1.5782060623168945,-1.9855008125305176,-163.5616455078125,241.03765869140625, 60.595157623291016
155,3396336254,0.34619227,-0.59202397,-0.4375254,-0.58157563,14.342382431030273,-0.6972160339355469,-4.383361339569092,-152.1573944091797,218.3621063232422, 63.083858489990234
156,3396352921,0.3548455,-0.58400244,-0.41589642,-0.60004663,12.508017539978027,1.5181629657745361,-6.163815498352051,-87.6731185913086,184.1453399658203, 54.35493469238281
157,3396369588,0.36392897,-0.5755517,-0.40271556,-0.61165047,10.010931968688965,2.1758012771606445,-8.400619506835938,-30.4124755859375,139.14515686035156, 37.77098846435547
158,3396386255,0.37018043,-0.5696072,-0.3973219,-0.616968,8.670342445373535,3.4911603927612305,-9.131906509399414,2.2467949390411377,76.619140625, 17.772581100463867
159,3396402922,0.3708064,-0.5683064,-0.39656457,-0.61827767,9.01036262512207,3.8453941345214844,-8.329440116882324,-1.0125732421875,14.269338607788086, -1.285489559173584
160,3396419589,0.36695603,-0.5703562,-0.39879292,-0.61725324,10.03071403503418,2.5986168384552,-6.380892753601074,-8.00403881072998,-28.739513397216797, -16.82257843017578
161,3396436256,0.36090147,-0.5739844,-0.4034425,-0.6144317,10.502519607543945,1.781187653541565,-5.091612815856934,-5.440554141998291,-54.52659225463867, -26.771242141723633
162,3396452923,0.35304156,-0.5787427,-0.40917894,-0.61073005,10.73655891418457,2.0318663120269775,-4.075135231018066,-8.346323013305664,-70.40802001953125, -33.3513298034668
163,3396469590,0.34292886,-0.5847867,-0.41463336,-0.607045,10.963665962219238,2.4365978240966797,-3.6403558254241943,-21.670021057128906,-81.35615539550781, -38.09358596801758
164,3396486257,0.33103344,-0.59171236,-0.41984716,-0.6033424,11.048975944519043,2.7616617679595947,-4.051912784576416,-31.876680374145508,-89.59910583496094, -41.990291595458984
165,3396502924,0.31868976,-0.5988395,-0.4253169,-0.5991107,10.726539611816406,2.708638906478882,-4.303909778594971,-31.572895050048828,-94.44029998779297, -43.08138656616211
166,3396519591,0.30616504,-0.6056912,-0.4320192,-0.5939365,10.807504653930664,4.951490879058838,-5.250047206878662,-23.8854923248291,-100.39515686035156, -47.62355041503906
167,3396536258,0.29290372,-0.61172706,-0.43893147,-0.5893527,13.77292537689209,6.313570499420166,3.4062869548797607,-26.132671356201172,-97.20032501220703, -55.12001419067383
168,3396552925,0.28553325,-0.61593974,-0.44667456,-0.58272713,16.47747230529785,-4.9538187980651855,7.6266889572143555,11.881421089172363,-82.43944549560547, -36.085052490234375
169,3396569592,0.27296388,-0.62146276,-0.4545288,-0.5767828,18.511770248413086,1.0817244052886963,0.6975866556167603,-14.340476036071777,-101.22681427001953, -54.86269760131836
170,3396586259,0.26035067,-0.627205,-0.46475533,-0.56818485,16.30569076538086,-1.2955073118209839,0.1583634316921234,2.773341417312622,-118.11204528808594, -59.55732345581055
171,3396602926,0.24921067,-0.63232523,-0.4782142,-0.55621046,13.886815071105957,0.14725317060947418,-1.146043062210083,33.65150451660156,-131.3959197998047, -63.76687240600586
172,3396619593,0.23523133,-0.63863254,-0.49025458,-0.54448617,11.49840259552002,-0.1861693561077118,0.19392846524715424,13.022486686706543,-141.7940673828125, -65.02664184570312
173,3396636260,0.22190793,-0.6451014,-0.5003706,-0.53313273,7.964345455169678,0.6944418549537659,2.1890156269073486,7.184447288513184,-135.5052032470703, -54.21503448486328
174,3396652927,0.21021007,-0.6504593,-0.5086781,-0.5234129,8.400575637817383,5.506052494049072,0.39182770252227783,3.857452630996704,-115.90843200683594, -46.56060028076172
175,3396669594,0.20080405,-0.6548955,-0.51598394,-0.51434433,10.846831321716309,4.332547664642334,-0.6218868494033813,9.597643852233887,-100.25314331054688, -37.93491744995117
176,3396686261,0.195902,-0.65875906,-0.5231035,-0.50400597,10.457612037658691,0.6319674849510193,-0.43287861347198486,34.537254333496094,-87.75553131103516, -21.419965744018555
177,3396702928,0.19539297,-0.6614041,-0.5302884,-0.49311322,10.142059326171875,0.9998591542243958,-1.2089420557022095,58.3003044128418,-70.3827896118164, -10.167008399963379
178,3396719595,0.19599408,-0.6632112,-0.53671163,-0.48340234,10.844907760620117,0.8812112212181091,-1.1162463426589966,57.57501983642578,-57.13534164428711, -7.6017069816589355
179,3396736262,0.1974494,-0.6642961,-0.5422276,-0.47509336,11.094987869262695,-0.1668759286403656,0.5473775267601013,54.2502555847168,-44.017940521240234, -5.203553199768066
180,3396752929,0.19826522,-0.66557205,-0.5463334,-0.46821454,11.631319046020508,-1.0477944612503052,0.28792813420295715,41.135196685791016,-38.66425323486328, -2.1253530979156494
181,3396769596,0.2003833,-0.667264,-0.55048054,-0.45997465,11.292943000793457,-1.657092809677124,1.2611100673675537,51.750179290771484,-41.48668670654297, 5.247720241546631
182,3396786263,0.20356713,-0.6692717,-0.5551407,-0.44994968,11.16723918914795,-0.18579863011837006,1.483974575996399,64.57513427734375,-47.44841003417969, 9.862005233764648
183,3396802930,0.20655563,-0.6713818,-0.56066006,-0.43845388,10.555769920349121,1.274677038192749,2.148730993270874,71.80535888671875,-56.5853271484375, 7.734195709228516
184,3396819597,0.20864208,-0.6735003,-0.56694555,-0.42595604,9.666313171386719,1.0871447324752808,3.1447811126708984,73.82161712646484,-65.90862274169922, 2.946439504623413
185,3396836264,0.21001749,-0.6757104,-0.5742131,-0.41181016,9.455044746398926,0.2810254693031311,2.190718412399292,79.71727752685547,-78.10379791259766, -0.9445482492446899
186,3396852931,0.21084194,-0.6778585,-0.582985,-0.395199,9.912276268005371,0.6693169474601746,1.5168873071670532,91.24954223632812,-93.82217407226562, -6.171061038970947
187,3396869598,0.21027985,-0.680025,-0.592277,-0.37756658,10.431358337402344,1.0571826696395874,1.4697450399398804,90.27444458007812,-105.03199768066406, -10.788520812988281
188,3396886265,0.2069984,-0.6823235,-0.60099196,-0.36110282,10.622356414794922,1.4368107318878174,2.1680614948272705,71.12474060058594,-110.24588012695312, -16.2799072265625
189,3396902932,0.20041385,-0.68518066,-0.6084213,-0.34667775,10.879194259643555,0.6256469488143921,1.7148330211639404,43.24388122558594,-113.99922943115234, -19.025497436523438
190,3396919599,0.19116129,-0.6883857,-0.6152807,-0.3331849,11.091791152954102,0.5178458094596863,0.5133540630340576,24.948057174682617,-120.92242431640625, -22.533445358276367
191,3396936266,0.17950283,-0.6916516,-0.6219368,-0.32029903,11.315570831298828,-0.496986985206604,0.9429547786712646,10.45993709564209,-128.19322204589844, -27.64333724975586
192,3396952933,0.16539212,-0.69483006,-0.62811524,-0.30875227,10.633840560913086,-0.167313814163208,0.9398087859153748,-7.880490303039551,-131.63958740234375, -32.834556579589844
193,3396969600,0.1489956,-0.6980506,-0.6335997,-0.2984581,10.600022315979004,-0.4234327971935272,0.09682247042655945,-25.72701072692871,-134.9257049560547, -35.658756256103516
194,3396986267,0.13185626,-0.7009344,-0.63878655,-0.28854263,11.104039192199707,-0.2361116260290146,-0.47640547156333923,-31.21456527709961,-135.43601989746094, -37.65903854370117
195,3397002934,0.114080675,-0.70332205,-0.64379454,-0.27902067,11.804450035095215,0.7772533297538757,-0.020342692732810974,-35.91515350341797,-135.2800750732422, -40.65483093261719
196,3397019601,0.096033804,-0.70557463,-0.64792943,-0.27042475,12.102378845214844,0.8208615183830261,0.44170182943344116,-42.87633514404297,-131.17855834960938, -38.33080291748047
197,3397036268,0.080260314,-0.7076226,-0.6518356,-0.26065084,12.383030891418457,0.9472063183784485,-0.13487976789474487,-26.869112014770508,-126.37023162841797, -33.18598556518555
198,3397052935,0.0674755,-0.70934904,-0.6559428,-0.24901831,12.065705299377441,1.187366008758545,0.4636501669883728,-3.4429595470428467,-121.69364929199219, -29.27483367919922
199,3397069602,0.05733404,-0.71067417,-0.6602207,-0.23614407,11.960156440734863,1.1845911741256714,1.4146078824996948,15.550642013549805,-115.36898803710938, -26.84785270690918
200,3397086269,0.05000448,-0.7118206,-0.664313,-0.2224849,11.642810821533203,0.3244090676307678,3.5061392784118652,32.65073776245117,-106.24052429199219, -21.899770736694336
201,3397102936,0.044746973,-0.71278346,-0.66812867,-0.20866618,11.478371620178223,1.2870497703552246,3.2437076568603516,43.17927169799805,-97.36512756347656, -18.176925659179688
202,3397119603,0.04083403,-0.713069,-0.6727053,-0.19321723,10.956050872802734,2.6946420669555664,2.1433143615722656,58.5987548828125,-98.61956024169922, -22.58274269104004
203,3397136270,0.03757062,-0.7121217,-0.67872655,-0.1755035,11.260074615478516,5.470794677734375,1.028694748878479,74.59640502929688,-105.64363861083984, -33.832496643066406
204,3397152937,0.034721926,-0.7106526,-0.6854782,-0.15455401,13.77227783203125,5.015993595123291,-4.565676212310791,92.88558959960938,-119.2688980102539, -38.443206787109375
205,3397169604,0.032204665,-0.7090837,-0.6920625,-0.1311976,16.535186767578125,7.0984787940979,-4.013951301574707,105.79901885986328,-129.5064239501953, -37.10227966308594
206,3397186271,0.028235486,-0.70832044,-0.6961076,-0.1136624,14.363388061523438,3.212412118911743,4.988924026489258,68.70648956298828,-108.4673080444336, -23.43762969970703
207,3397202938,0.024952237,-0.70929754,-0.6968803,-0.1031136,10.183939933776855,0.6616615653038025,5.179485321044922,35.78463363647461,-72.1543960571289, 0.020970873534679413
208,3397219605,0.020179072,-0.7104257,-0.6963411,-0.09998643,10.574943542480469,4.82900333404541,2.0353293418884277,-8.008594512939453,-43.12168884277344, 4.792597770690918
209,3397236272,0.012043974,-0.71163166,-0.69421047,-0.107272856,10.314759254455566,3.2460520267486572,3.232269048690796,-75.30304718017578,-8.319443702697754, 9.120285987854004
210,3397252939,0.007978108,-0.71321917,-0.6905408,-0.120035216,8.206598281860352,-0.2264806479215622,3.5699734687805176,-82.65414428710938,37.612613677978516, 20.91756248474121
211,3397269606,0.011732741,-0.7150435,-0.6860145,-0.13401337,6.7293195724487305,-0.3421965539455414,2.986823081970215,-50.85963439941406,80.5316162109375, 32.5485725402832
212,3397286273,0.022672895,-0.7160498,-0.6814812,-0.14947248,6.089580535888672,0.07473290711641312,2.8884024620056152,-22.5361270904541,122.54541015625, 35.21018981933594
213,3397302940,0.03846382,-0.71538824,-0.6770303,-0.16843392,6.224998950958252,0.3738086223602295,2.93316912651062,-14.781675338745117,164.36766052246094, 31.459192276000977
214,3397319607,0.057220887,-0.7130142,-0.6721817,-0.1910714,7.720522403717041,0.22968865931034088,2.5663046836853027,-17.355783462524414,198.5156707763672, 27.950023651123047
215,3397336274,0.07742503,-0.7089522,-0.66655105,-0.21703008,9.078818321228027,-0.04808065667748451,1.479579210281372,-26.014873504638672,224.15518188476562, 24.605449676513672
216,3397352941,0.09899393,-0.7033175,-0.6597806,-0.2454268,10.348822593688965,0.06452218443155289,0.06881433725357056,-31.444780349731445,245.3746337890625, 23.7089900970459
217,3397369608,0.12258717,-0.6966522,-0.65132606,-0.2746319,11.520251274108887,-1.2350503206253052,-0.7634880542755127,-27.505659103393555,261.4699401855469, 30.054950714111328
218,3397386275,0.14766568,-0.6887696,-0.6415128,-0.30373162,12.25400447845459,0.055809251964092255,-0.5738277435302734,-21.530847549438477,271.1650085449219, 33.999794006347656
219,3397402942,0.17161024,-0.6797951,-0.6295657,-0.33477706,12.901130676269531,1.1126235723495483,-0.6934117078781128,-38.874267578125,279.9194641113281, 34.94772720336914
220,3397419609,0.19485377,-0.670113,-0.61513126,-0.36687055,13.430428504943848,0.7691306471824646,-1.187932014465332,-51.58915710449219,286.44500732421875, 40.65456008911133
221,3397436276,0.21871006,-0.6596316,-0.59850806,-0.39854798,14.146282196044922,0.31761452555656433,-1.676069736480713,-51.486968994140625,292.17437744140625, 49.45598220825195
222,3397452943,0.24250175,-0.64848644,-0.57926846,-0.43023995,14.960062980651855,0.21915632486343384,-1.8240070343017578,-58.052242279052734,297.84716796875, 58.37339401245117
223,3397469610,0.26613554,-0.63695085,-0.55746835,-0.46118832,16.2442569732666,0.15401606261730194,-2.4054129123687744,-62.772342681884766,299.44549560546875, 68.98973846435547
224,3397486277,0.2895912,-0.62503797,-0.53368956,-0.49055073,17.258258819580078,0.6188324093818665,-2.736016273498535,-63.08855438232422,296.7678527832031, 78.51105499267578
225,3397502944,0.31184673,-0.6128293,-0.50861645,-0.51817113,17.755130767822266,1.888073205947876,-2.0952513217926025,-65.6607894897461,288.5964660644531, 82.3862533569336
226,3397519611,0.33008707,-0.6013046,-0.48131323,-0.54572254,17.953996658325195,2.5841574668884277,-1.7621709108352661,-91.79399108886719,276.7528381347656, 80.02278900146484
227,3397536278,0.34348008,-0.59131634,-0.4518448,-0.5728901,17.910890579223633,2.427769660949707,-2.864280939102173,-122.18140411376953,258.43505859375, 76.74507141113281
228,3397552945,0.35488337,-0.58256805,-0.42292327,-0.5964966,16.333972930908203,0.1022411584854126,-6.324217796325684,-120.01802062988281,231.7960205078125, 78.95372009277344
229,3397569612,0.36769548,-0.5730147,-0.4016882,-0.6124547,14.009981155395508,2.352583885192871,-8.234110832214355,-58.64838409423828,190.08932495117188, 70.24738311767578
230,3397586279,0.37929478,-0.5640133,-0.38954577,-0.6215133,10.79616641998291,3.816528081893921,-11.415420532226562,-7.517051696777344,134.57870483398438, 48.359493255615234
231,3397602946,0.38547018,-0.55890524,-0.385982,-0.62454426,9.324505805969238,6.166482925415039,-11.977338790893555,14.068142890930176,58.0743408203125, 18.187667846679688
232,3397619613,0.38304165,-0.560222,-0.38632232,-0.62464833,9.835894584655762,6.103673934936523,-10.308019638061523,-11.531826972961426,-13.542182922363281, -8.78279972076416
233,3397636280,0.3747362,-0.5656555,-0.38920942,-0.622995,10.97150993347168,4.212794303894043,-8.077597618103027,-29.440229415893555,-59.9830207824707, -28.119064331054688
234,3397652947,0.3638938,-0.5726932,-0.39487314,-0.6194183,11.57551383972168,3.082585096359253,-6.5375075340271,-26.428316116333008,-88.0405044555664, -40.44244384765625
235,3397669614,0.3514649,-0.5806237,-0.40261778,-0.6142049,11.584670066833496,3.3256635665893555,-5.830123424530029,-21.622575759887695,-107.62918090820312, -48.81596755981445
236,3397686281,0.3378936,-0.5892385,-0.41105267,-0.607998,11.391599655151367,3.651735305786133,-5.537214756011963,-22.188039779663086,-119.18394470214844, -52.04301071166992
237,3397702948,0.32449606,-0.5976988,-0.41965353,-0.60112363,11.579412460327148,4.439784526824951,-4.862253665924072,-18.55670928955078,-121.02894592285156, -50.81767654418945
238,3397719615,0.31087086,-0.6056558,-0.42860153,-0.5940045,11.494205474853516,6.410233974456787,-5.518068313598633,-16.23229217529297,-121.31331634521484, -54.02507400512695
239,3397736282,0.30020887,-0.61199594,-0.43615913,-0.587453,14.549365997314453,-1.9139838218688965,8.800606727600098,-7.791173934936523,-100.56149291992188, -42.007381439208984
240,3397752949,0.2917442,-0.616615,-0.4428705,-0.58183944,15.221616744995117,-2.298215389251709,4.555642604827881,-1.177986979484558,-81.65377807617188, -36.79512023925781
241,3397769616,0.27791587,-0.6232731,-0.44946098,-0.576436,17.935426712036133,0.13557694852352142,-1.3379470109939575,-29.117656707763672,-105.22116088867188, -52.08195877075195
242,3397786283,0.26600817,-0.6294044,-0.45996463,-0.56702936,14.572744369506836,-1.5213024616241455,0.6873081922531128,7.996208190917969,-121.89271545410156, -55.29164123535156
243,3397802950,0.25420535,-0.63560086,-0.47195634,-0.55556136,12.838438034057617,-0.04523636773228645,-0.006102457642555237,20.650890350341797,-133.5672149658203, -57.448795318603516
244,3397819617,0.24209878,-0.64223355,-0.4833262,-0.5434337,9.72230052947998,-0.09036064147949219,2.1954197883605957,18.33005714416504,-138.10015869140625, -53.38236618041992
245,3397836284,0.23089233,-0.64843166,-0.49229482,-0.5327955,7.126097679138184,2.5540575981140137,3.5858142375946045,9.115704536437988,-123.03561401367188, -43.38481521606445
246,3397852951,0.22046289,-0.6532826,-0.49878022,-0.5252012,8.594348907470703,5.190283298492432,1.8073829412460327,-4.636260509490967,-98.09270477294922, -38.83818054199219
247,3397869618,0.21014486,-0.6576614,-0.50413066,-0.518819,10.960319519042969,4.07742977142334,-1.1802668571472168,-11.619406700134277,-88.94140625, -36.72785949707031
248,3397886285,0.20408534,-0.6618018,-0.51048845,-0.5096756,10.69446086883545,-1.1301958560943604,-0.6666405200958252,21.189468383789062,-87.31893920898438, -22.911623001098633
249,3397902952,0.20108558,-0.66474664,-0.5173984,-0.49997553,10.307233810424805,0.5497693419456482,-1.0311906337738037,40.646339416503906,-75.7772445678711, -18.199329376220703
250,3397919619,0.19885506,-0.66708875,-0.52427006,-0.49050012,11.432705879211426,-0.8984806537628174,-0.8808794021606445,44.062442779541016,-69.95402526855469, -17.87778091430664
251,3397936286,0.19836079,-0.66875964,-0.53171825,-0.48030147,11.964129447937012,-1.6168854236602783,-0.2858068346977234,57.4774284362793,-65.62898254394531, -16.173782348632812
252,3397952953,0.19871734,-0.67036444,-0.5394809,-0.46913046,11.792675971984863,-1.6583994626998901,-0.46956342458724976,66.0521240234375,-67.32097625732422, -13.81482982635498
253,3397969620,0.2004738,-0.6719144,-0.547878,-0.45625776,11.566356658935547,-1.2434958219528198,-0.04923808202147484,80.90815734863281,-70.78337860107422, -10.176214218139648
254,3397986287,0.20275174,-0.673575,-0.55675775,-0.4418252,11.548149108886719,0.513060986995697,-0.052885569632053375,90.53421020507812,-77.17227172851562, -8.255565643310547
255,3398002954,0.20452584,-0.67572033,-0.5650995,-0.42688867,11.213080406188965,0.5133272409439087,1.1943542957305908,87.82990264892578,-82.29230499267578, -4.748157501220703
256,3398019621,0.2057819,-0.6782182,-0.5724988,-0.41221294,10.684611320495605,0.8425741195678711,2.193483829498291,81.15361785888672,-82.96904754638672, -0.8868306279182434
257,3398036288,0.20551127,-0.68095374,-0.5788462,-0.39875358,10.6334867477417,1.70738685131073,1.7264007329940796,65.9443130493164,-82.67434692382812, -1.0826914310455322
258,3398052955,0.20403008,-0.68376565,-0.5846235,-0.3860725,10.330387115478516,1.4109444618225098,1.4057703018188477,55.54978561401367,-83.41830444335938, -2.5110299587249756
259,3398069622,0.20143402,-0.6866211,-0.5902505,-0.3736042,9.993327140808105,1.2146550416946411,1.0851014852523804,49.00868225097656,-86.96141052246094, -4.861039161682129
260,3398086289,0.19696853,-0.6896434,-0.59552276,-0.36186773,9.948470115661621,1.3300403356552124,0.982633650302887,36.100704193115234,-91.17252349853516, -8.319084167480469
261,3398102956,0.19027635,-0.69290215,-0.6003659,-0.3510591,9.91858959197998,1.4630961418151855,0.4918323755264282,20.377521514892578,-96.0395278930664, -12.103110313415527
262,3398119623,0.18142365,-0.6963164,-0.605053,-0.34079298,9.811384201049805,1.2145038843154907,0.2879885137081146,7.296831130981445,-102.67547607421875, -16.645830154418945
263,3398136290,0.16970067,-0.69962054,-0.6094834,-0.33205885,9.590643882751465,0.9464548230171204,1.25863516330719,-13.258469581604004,-106.83108520507812, -24.529052734375
264,3398152957,0.15584552,-0.7028028,-0.6131838,-0.32524785,9.843703269958496,0.3990631699562073,0.09502679109573364,-33.07111358642578,-105.53228759765625, -28.678951263427734
265,3398169624,0.14299996,-0.7056686,-0.6172281,-0.31719452,10.892606735229492,-0.316511332988739,-0.7313365340232849,-21.831785202026367,-107.06912994384766, -28.148120880126953
266,3398186291,0.13136977,-0.70804375,-0.6217428,-0.30798092,11.628199577331543,0.6769838929176331,-0.9983962774276733,-9.507951736450195,-107.07711029052734, -28.797119140625
267,3398202958,0.12112107,-0.7101248,-0.6267604,-0.29702523,12.00835132598877,-0.02077467367053032,-0.34278640151023865,6.00518798828125,-109.65287780761719, -28.051246643066406
268,3398219625,0.11260909,-0.7119672,-0.6320788,-0.28442654,11.988911628723145,-0.5306609272956848,0.20977619290351868,22.377920150756836,-110.15658569335938, -25.68616485595703
269,3398236292,0.10512002,-0.7135519,-0.63746053,-0.27099434,12.08866024017334,-1.0081771612167358,0.9965399503707886,31.321903228759766,-109.55764770507812, -24.521833419799805
270,3398252959,0.09857543,-0.7151143,-0.64263093,-0.2567494,12.284399032592773,-1.5760834217071533,0.7074014544487,39.122352600097656,-109.4592056274414, -21.282794952392578
271,3398269626,0.09302629,-0.716612,-0.6476471,-0.24159202,12.71915054321289,-1.6925909519195557,1.364126205444336,47.778446197509766,-109.56205749511719, -18.46599006652832
272,3398286293,0.088994056,-0.71798027,-0.6523579,-0.22586203,12.014449119567871,-1.16509211063385,3.035015106201172,57.338680267333984,-105.43860626220703, -14.66920280456543
273,3398302960,0.08670034,-0.7189989,-0.6563519,-0.21148501,11.369997024536133,0.5044564604759216,6.121891021728516,58.933250427246094,-90.1686782836914, -10.80626392364502
274,3398319627,0.08579145,-0.7190894,-0.6603214,-0.19881131,10.491214752197266,3.13881778717041,3.948561191558838,58.654441833496094,-74.31477355957031, -13.818111419677734
275,3398336294,0.0834201,-0.71892226,-0.66617906,-0.17999303,14.551934242248535,8.474440574645996,-4.620901107788086,82.16377258300781,-112.1857681274414, -22.58881378173828
276,3398352961,0.07436362,-0.71954113,-0.6705236,-0.16470803,16.211448669433594,9.435206413269043,-4.0804853439331055,30.824087142944336,-125.51848602294922, -21.68119239807129
277,3398369628,0.061398856,-0.72077113,-0.6727724,-0.15523021,16.283504486083984,4.2923264503479,1.0829367637634277,-17.74037742614746,-114.54143524169922, -15.852052688598633
278,3398386295,0.04828268,-0.72251964,-0.6713988,-0.15766372,10.260953903198242,1.1949234008789062,13.917805671691895,-77.59716796875,-55.39152145385742, -0.7730160355567932
279,3398402962,0.04118848,-0.7245953,-0.6682967,-0.16323248,8.641790390014648,-1.0669002532958984,7.889943599700928,-64.11731719970703,-11.869059562683105, 14.69725227355957
280,3398419629,0.039316993,-0.72588307,-0.66488624,-0.17168105,9.932126998901367,3.8152005672454834,3.60998797416687,-51.52590560913086,27.499591827392578, 17.57522201538086
281,3398436296,0.039462063,-0.7262097,-0.66053754,-0.18642034,9.648496627807617,2.05061674118042,4.7977614402771,-71.01541137695312,69.55611419677734, 18.499956130981445
282,3398452963,0.04810278,-0.7258228,-0.65582913,-0.20188081,7.888099193572998,-0.3231317698955536,5.323188304901123,-32.126502990722656,112.79936218261719, 27.719141006469727
283,3398469630,0.0665049,-0.7237822,-0.6515747,-0.21717955,7.792965412139893,0.47058552503585815,5.2113871574401855,18.451229095458984,158.23687744140625, 31.629663467407227
284,3398486297,0.09029875,-0.7190468,-0.6480405,-0.23422545,8.520676612854004,1.3534172773361206,5.295902729034424,39.75483322143555,194.85433959960938, 23.3143310546875
285,3398502964,0.114813745,-0.7118472,-0.64377403,-0.2562157,9.806427955627441,0.5683664679527283,3.3300490379333496,21.66259002685547,226.9791717529297, 14.144085884094238
286,3398519631,0.14070064,-0.7027723,-0.6384476,-0.28053388,11.215619087219238,-0.5905435681343079,1.4715702533721924,17.688716888427734,248.620849609375, 11.676992416381836
287,3398536298,0.16679536,-0.6919477,-0.63149995,-0.30756384,12.155355453491211,0.12329187244176865,0.3262510299682617,5.317509651184082,267.6095886230469, 9.650557518005371
288,3398552965,0.19141774,-0.6800881,-0.6217707,-0.33799538,13.099678039550781,-0.3750622570514679,-0.4655616283416748,-21.17481803894043,282.81658935546875, 11.396283149719238
289,3398569632,0.2153783,-0.6676693,-0.60858023,-0.3707559,14.028190612792969,-0.9153773784637451,-1.1393760442733765,-41.56874084472656,296.7817687988281, 20.566015243530273
290,3398586299,0.24050923,-0.65479696,-0.5925347,-0.40286326,14.881609916687012,-1.575057864189148,-1.9705251455307007,-40.12405014038086,304.11981201171875, 35.68662643432617
291,3398602966,0.26592675,-0.6413596,-0.5746145,-0.43331173,15.412362098693848,0.4460197687149048,-2.3158950805664062,-36.393131256103516,302.5574035644531, 45.29758834838867
292,3398619633,0.2881193,-0.6282753,-0.5533863,-0.4647808,15.933138847351074,1.1167813539505005,-2.4033544063568115,-65.19573211669922,299.41436767578125, 49.77278137207031
293,3398636300,0.3075239,-0.61600184,-0.52869695,-0.49643785,16.673200607299805,0.08846352994441986,-3.205172538757324,-90.67317962646484,294.0091552734375, 58.48753356933594
294,3398652967,0.32637814,-0.6041224,-0.502414,-0.5254463,17.261363983154297,-0.09560230374336243,-3.5331597328186035,-89.69689178466797,282.9805603027344, 70.31062316894531
295,3398669634,0.3430006,-0.5927427,-0.47497496,-0.5526351,17.127784729003906,1.4103187322616577,-3.450322389602661,-98.02163696289062,268.7011413574219, 72.77425384521484
296,3398686301,0.35523403,-0.5826252,-0.44602495,-0.5791532,16.763450622558594,2.8106017112731934,-3.185002088546753,-122.4837646484375,250.62994384765625, 67.91276550292969
297,3398702968,0.36219797,-0.5743259,-0.4144713,-0.6059505,16.23453712463379,1.4277716875076294,-4.846100330352783,-159.2879180908203,234.96905517578125, 62.2340087890625
298,3398719635,0.3726268,-0.5652046,-0.38970834,-0.62435603,14.184082984924316,-0.4977370500564575,-6.826355934143066,-91.36060333251953,198.51702880859375, 68.38253784179688
299,3398736302,0.3824714,-0.5561928,-0.37210923,-0.637103,12.047744750976562,3.131403923034668,-8.443214416503906,-48.01451873779297,156.50283813476562, 52.80780792236328
300,3398752969,0.39008316,-0.5490559,-0.36287668,-0.643967,10.38875675201416,4.297665119171143,-9.625349998474121,-9.81574821472168,98.48824310302734, 31.416479110717773
301,3398769636,0.39308673,-0.5460195,-0.35995233,-0.6463591,9.952720642089844,4.880393981933594,-9.372657775878906,0.8290933966636658,35.47111129760742, 9.582762718200684
302,3398786303,0.3914866,-0.5471815,-0.36056027,-0.64600855,10.576087951660156,4.152671813964844,-7.895262241363525,-5.364532947540283,-14.008339881896973, -6.166160583496094
303,3398802970,0.38734514,-0.5504406,-0.36407745,-0.64375997,10.888031005859375,2.8138980865478516,-6.381676197052002,-2.9848122596740723,-44.246826171875, -17.956117630004883
304,3398819637,0.38236523,-0.5544104,-0.37039354,-0.63971454,11.173872947692871,2.5730247497558594,-5.202216148376465,8.803911209106445,-63.47024917602539, -25.60569953918457
305,3398836304,0.3759714,-0.5591479,-0.3781452,-0.63482714,11.328328132629395,3.0335452556610107,-4.618571758270264,9.828063011169434,-77.21581268310547, -33.054134368896484
306,3398852971,0.3673623,-0.5651928,-0.38606453,-0.6297271,11.163137435913086,3.7683191299438477,-4.847105026245117,-0.8087356090545654,-89.75689697265625, -39.3420524597168
307,3398869638,0.35637656,-0.5725527,-0.3933703,-0.62485135,11.096545219421387,3.6821720600128174,-5.462104320526123,-16.640779495239258,-99.17572784423828, -44.233985900878906
308,3398886305,0.34403652,-0.58073044,-0.40038365,-0.61974514,11.182239532470703,3.9580130577087402,-5.784893989562988,-24.629762649536133,-106.38501739501953, -46.04449462890625
309,3398902972,0.32966694,-0.58959955,-0.40709513,-0.61478907,11.52481460571289,5.987219333648682,-6.336090564727783,-36.089256286621094,-113.46070861816406, -51.857933044433594
310,3398919639,0.31728005,-0.59721905,-0.4113249,-0.6111258,14.749588966369629,-3.317593574523926,13.07911205291748,-39.34637451171875,-91.61966705322266, -39.718528747558594
311,3398936306,0.30954108,-0.60178256,-0.41444796,-0.60850227,13.773270606994629,-3.854738712310791,7.2360758781433105,-21.11979866027832,-59.40963363647461, -26.719350814819336
312,3398952973,0.29627278,-0.6092708,-0.41743478,-0.605607,19.061315536499023,-0.5416147112846375,-3.0691895484924316,-49.99562454223633,-88.50071716308594, -40.54066848754883
313,3398969640,0.28632653,-0.6153265,-0.42632303,-0.5980293,15.129973411560059,-1.9799829721450806,1.3162200450897217,4.831526756286621,-104.59933471679688, -46.08008575439453
314,3398986307,0.27579582,-0.6213568,-0.4365415,-0.589308,13.028853416442871,-0.18867622315883636,-0.8668906688690186,11.230132102966309,-113.76289367675781, -52.03901290893555
315,3399002974,0.2652408,-0.62796485,-0.44741654,-0.57890075,11.305353164672852,-1.815479040145874,1.3900460004806519,17.739843368530273,-124.65636444091797, -50.058597564697266
316,3399019641,0.25734046,-0.6342703,-0.45820695,-0.56703055,8.193069458007812,0.7540866732597351,4.597068786621094,33.9165153503418,-121.54633331298828, -37.47174835205078
317,3399036308,0.25049132,-0.63942784,-0.46676126,-0.5572432,8.566822052001953,3.8096046447753906,4.12774658203125,25.278446197509766,-100.88846588134766, -30.928951263427734
318,3399052975,0.24295312,-0.6438708,-0.47321305,-0.54997605,9.994709968566895,5.911121368408203,1.8502744436264038,7.391729831695557,-85.81007385253906, -30.89750099182129
319,3399069642,0.23478392,-0.6482913,-0.47773826,-0.5443906,9.851258277893066,2.285949468612671,0.34645533561706543,-8.066937446594238,-77.20767974853516, -27.53879165649414
320,3399086309,0.22963521,-0.65198547,-0.48259282,-0.53785425,10.081720352172852,-0.33281224966049194,-0.5304560661315918,10.941187858581543,-69.39407348632812, -18.54648780822754
321,3399102976,0.22705205,-0.65465516,-0.48888925,-0.52996355,11.349084854125977,-0.4092502295970917,-1.2489110231399536,33.88271713256836,-65.48123931884766, -16.841432571411133
322,3399119643,0.22739129,-0.65677106,-0.4971834,-0.5193782,11.707221984863281,-2.851714849472046,-0.13571171462535858,64.2165298461914,-68.9313735961914, -12.894342422485352
323,3399136310,0.2297788,-0.6585375,-0.5066858,-0.50675404,11.07876968383789,-3.0578699111938477,0.2673499584197998,85.26236724853516,-71.8677978515625, -9.147710800170898
324,3399152977,0.23343287,-0.66021174,-0.51704687,-0.49223194,11.056254386901855,-2.8259494304656982,0.8102713227272034,100.70631408691406,-77.1888427734375, -6.03434944152832
325,3399169644,0.23613442,-0.6623101,-0.527479,-0.4768143,10.914777755737305,-0.6960317492485046,0.2522301971912384,99.10096740722656,-86.31092071533203, -6.712922096252441
326,3399186311,0.23651554,-0.6653465,-0.53714854,-0.4613525,10.795144081115723,-0.17076796293258667,1.2041577100753784,84.65646362304688,-96.87064361572266, -7.39036226272583
327,3399202978,0.23536634,-0.6689516,-0.5458421,-0.446277,10.229769706726074,-0.11016354709863663,1.77010977268219,72.20809173583984,-101.10295104980469, -6.312069416046143
328,3399219645,0.23254254,-0.6727234,-0.5542608,-0.43146542,10.275975227355957,1.1192435026168823,1.4153672456741333,62.41082763671875,-106.37945556640625, -9.99097728729248
329,3399236312,0.22819594,-0.6765857,-0.5625254,-0.41680172,10.30573558807373,1.1890581846237183,1.3462464809417725,54.208251953125,-111.65465545654297, -13.654278755187988
330,3399252979,0.22198828,-0.680666,-0.569966,-0.40317988,10.108357429504395,1.24520742893219,1.2815243005752563,38.844451904296875,-113.46916961669922, -15.92668342590332
331,3399269646,0.21403085,-0.6850457,-0.5766837,-0.39030686,10.122867584228516,0.9683638215065002,0.3982357382774353,25.278579711914062,-116.67811584472656, -17.343645095825195
332,3399286313,0.20387445,-0.6894486,-0.5828965,-0.37858647,9.787310600280762,1.4977598190307617,1.0410720109939575,8.98021125793457,-119.39692687988281, -22.46918487548828
333,3399302980,0.19032645,-0.69395816,-0.5881867,-0.36909947,10.021743774414062,1.7900973558425903,0.2898159623146057,-18.559391021728516,-121.50723266601562, -29.63466453552246
334,3399319647,0.1750866,-0.69826454,-0.5927631,-0.361114,10.440715789794922,0.5405466556549072,-0.1103750616312027,-34.217098236083984,-119.84590148925781, -33.319190979003906
335,3399336314,0.16083339,-0.7019797,-0.5976008,-0.35246366,10.412127494812012,0.5590609312057495,-0.585250198841095,-25.395729064941406,-117.97604370117188, -33.78162384033203
336,3399352981,0.1467424,-0.70505303,-0.6026468,-0.3437787,10.578512191772461,1.815552830696106,-0.40312516689300537,-23.242185592651367,-116.25968170166016, -37.04231262207031
337,3399369648,0.13290124,-0.7076324,-0.60759246,-0.33529878,11.111381530761719,1.4641836881637573,-0.38581615686416626,-22.576793670654297,-113.0823974609375, -38.25080108642578
338,3399386315,0.12161851,-0.7098264,-0.6128873,-0.3251539,11.921299934387207,0.3100011646747589,-0.7487766742706299,-1.984193205833435,-110.06614685058594, -34.17776107788086
339,3399402982,0.11347766,-0.71150684,-0.6187716,-0.3130535,12.214836120605469,-0.2396213859319687,0.2046298235654831,23.344783782958984,-105.87857818603516, -30.61342430114746
340,3399419649,0.10761585,-0.71306777,-0.6246851,-0.29953665,12.955121994018555,-0.51395583152771,0.11665822565555573,40.67182159423828,-103.07768249511719, -25.297792434692383
341,3399436316,0.10227639,-0.7144837,-0.63068444,-0.28511387,13.034735679626465,-0.7497783899307251,0.9748653173446655,47.39678192138672,-105.2664566040039, -24.635557174682617
342,3399452983,0.09728555,-0.7159749,-0.6362878,-0.27028382,12.84194564819336,-1.4940451383590698,1.8907084465026855,50.03569030761719,-105.87316131591797, -21.430957794189453
343,3399469650,0.09351137,-0.71748614,-0.64143205,-0.255018,12.11262321472168,-1.5629374980926514,2.858741283416748,57.037139892578125,-102.68939208984375, -16.56191635131836
344,3399486317,0.09159444,-0.7187982,-0.6455021,-0.24138513,11.86274242401123,-0.2196226418018341,6.057311534881592,57.216861724853516,-85.6629638671875, -9.9528169631958
345,3399502984,0.09202654,-0.71920615,-0.6494898,-0.22899158,10.502157211303711,2.2634987831115723,3.784963846206665,63.786285400390625,-67.86735534667969, -10.424038887023926
346,3399519651,0.093545064,-0.7193024,-0.6556614,-0.20967044,13.396905899047852,6.649649620056152,-3.5035345554351807,103.81578063964844,-98.39685821533203, -16.43183708190918
347,3399536318,0.091394715,-0.719589,-0.6615504,-0.1902367,17.072399139404297,9.639538764953613,-6.110393047332764,85.81188201904297,-115.79383850097656, -19.241052627563477
348,3399552985,0.08262251,-0.7204842,-0.6647213,-0.1795042,15.948821067810059,5.212536334991455,-3.499546766281128,9.778104782104492,-102.23233032226562, -17.053600311279297
349,3399569652,0.07231259,-0.7219821,-0.6641394,-0.1800885,11.64268970489502,3.186270236968994,14.245847702026367,-54.408138275146484,-52.09485626220703, -4.083897590637207
350,3399586319,0.0687946,-0.72351176,-0.6619006,-0.18353717,6.763310432434082,-2.2361929416656494,6.971722602844238,-35.716796875,-6.451616287231445, 11.177458763122559
351,3399602986,0.07471604,-0.72383034,-0.6601781,-0.1861501,9.291205406188965,2.9349074363708496,4.067214012145996,16.18956756591797,33.516910552978516, 15.347824096679688
352,3399619653,0.08259927,-0.7227736,-0.6579872,-0.19449586,8.17696475982666,2.853160858154297,3.865884304046631,0.10851667076349258,72.78184509277344, 11.032258987426758
353,3399636320,0.09693013,-0.72020626,-0.65563077,-0.20507589,7.193872451782227,1.0929542779922485,3.87259578704834,22.752416610717773,115.0395278930664, 12.427818298339844
354,3399652987,0.11637357,-0.7156175,-0.65336233,-0.21786834,7.667191028594971,1.2591016292572021,4.4609198570251465,39.596893310546875,151.7357940673828, 8.69450569152832
355,3399669654,0.13501298,-0.70924234,-0.65032846,-0.23626256,7.728424072265625,1.124794840812683,3.1160264015197754,10.799988746643066,178.8506622314453, -1.1617313623428345
356,3399686321,0.15189382,-0.70181453,-0.6455471,-0.2601035,9.164957046508789,0.9325027465820312,1.1103157997131348,-23.950239181518555,200.7836456298828, -5.223400592803955
357,3399702988,0.167815,-0.6937385,-0.63846123,-0.28797993,10.162724494934082,-0.3668001890182495,-0.12818646430969238,-49.906883239746094,219.46749877929688, -2.9288742542266846
358,3399719655,0.18424617,-0.68477416,-0.6295299,-0.31753713,10.58211898803711,-0.3848322927951813,-0.2844592332839966,-57.48765563964844,233.5224151611328, 0.969696044921875
359,3399736322,0.20161015,-0.6749061,-0.61837023,-0.34853038,11.151387214660645,-0.5437131524085999,-0.45481398701667786,-63.042884826660156,249.0356903076172, 7.680943012237549
360,3399752989,0.2209874,-0.664022,-0.60505,-0.37967646,12.28895092010498,-0.5203900337219238,-1.0551552772521973,-58.13584518432617,263.6583251953125, 17.90583038330078
361,3399769656,0.24186541,-0.6520377,-0.5901018,-0.41003415,12.850300788879395,0.14516586065292358,-1.0460690259933472,-50.62052917480469,271.59783935546875, 25.79819107055664
362,3399786323,0.26230633,-0.63934165,-0.5728077,-0.44082788,13.518994331359863,0.498831182718277,-1.1764867305755615,-59.78861999511719,277.6979064941406, 31.388721466064453
363,3399802990,0.2823166,-0.62616736,-0.55307275,-0.4715107,14.519099235534668,0.1348077356815338,-1.3496646881103516,-67.82598876953125,281.4285888671875, 39.065547943115234
364,3399819657,0.30194566,-0.6127482,-0.53131354,-0.50107336,15.274687767028809,0.07325243949890137,-2.04966402053833,-71.34723663330078,279.99365234375, 47.69826889038086
365,3399836324,0.32084277,-0.5991071,-0.5079946,-0.5292184,15.770341873168945,0.7332789301872253,-1.7596113681793213,-74.22264862060547,275.53936767578125, 53.78574752807617
366,3399852991,0.3374215,-0.5858933,-0.48259982,-0.5567525,15.945026397705078,0.9347931146621704,-1.5410196781158447,-90.20557403564453,268.1793212890625, 56.664188385009766
367,3399869658,0.35121542,-0.57400733,-0.45506027,-0.5831668,15.92294979095459,0.0990566611289978,-1.9811034202575684,-109.04757690429688,254.5995635986328, 61.55892562866211
368,3399886325,0.36286417,-0.56381744,-0.42629832,-0.60721457,16.0087833404541,0.3182244896888733,-1.8745503425598145,-119.16169738769531,235.03981018066406, 68.68519592285156
369,3399902992,0.3720158,-0.5551095,-0.39560843,-0.63004094,15.710843086242676,-0.07921385765075684,-3.427880048751831,-137.08836364746094,221.98951721191406, 73.02039337158203
370,3399919659,0.3839141,-0.54478705,-0.3711129,-0.6466008,14.406220436096191,0.6061733961105347,-4.756087303161621,-78.62627410888672,197.13340759277344, 72.84732818603516
371,3399936326,0.39731967,-0.53316677,-0.35440305,-0.6574716,12.711528778076172,1.6012836694717407,-7.399683952331543,-20.47603416442871,165.3682861328125, 62.1402473449707
372,3399952993,0.4097732,-0.52279204,-0.34606305,-0.662582,11.027111053466797,3.460869550704956,-9.598982810974121,24.443111419677734,113.98755645751953, 46.06926345825195
373,3399969660,0.41706607,-0.5171714,-0.34363875,-0.66370344,10.36773681640625,5.321963310241699,-10.7294921875,28.857467651367188,49.649269104003906, 24.057453155517578
374,3399986327,0.4187741,-0.51638544,-0.34624678,-0.661882,10.881572723388672,5.748963832855225,-10.591883659362793,24.96641731262207,-9.8849515914917, 0.789314866065979
375,3400002994,0.4154956,-0.5194099,-0.35254312,-0.65824795,11.798826217651367,6.0576276779174805,-9.705071449279785,17.302867889404297,-55.567562103271484, -20.474502563476562
376,3400019661,0.40713075,-0.5262469,-0.36014715,-0.6539135,12.252245903015137,5.83414363861084,-9.241312980651855,-4.211959362030029,-90.86893463134766, -36.70493698120117
377,3400036328,0.39406216,-0.5359645,-0.36882618,-0.6491721,12.851835250854492,6.550006866455078,-9.075865745544434,-23.52454948425293,-119.48502349853516, -53.281917572021484
378,3400052995,0.376465,-0.5479107,-0.377961,-0.64437073,14.134797096252441,7.742815971374512,-8.79090690612793,-44.13215637207031,-141.9560089111328, -69.16343688964844
379,3400069662,0.3544645,-0.5620313,-0.38450354,-0.64080644,16.239334106445312,3.6329288482666016,-1.647414207458496,-81.1077880859375,-151.29556274414062, -76.23401641845703
380,3400086329,0.33862653,-0.57122564,-0.38950938,-0.6382131,12.349845886230469,-7.617583751678467,15.790165901184082,-54.63325500488281,-105.7103271484375, -58.45943832397461
381,3400102996,0.3198858,-0.581681,-0.38830614,-0.63917035,13.523181915283203,-3.690058708190918,-0.1643471121788025,-105.63479614257812,-91.18036651611328, -52.00917434692383
382,3400119663,0.3071518,-0.5900262,-0.3937705,-0.6344068,17.647241592407227,-3.697442054748535,-4.100502014160156,-32.40383529663086,-103.39444732666016, -45.48915481567383
383,3400136330,0.2986843,-0.5962974,-0.40374547,-0.6262641,13.18374252319336,-0.35352832078933716,-0.3681294322013855,18.07395362854004,-105.89346313476562, -43.82353591918945
384,3400152997,0.28974035,-0.6022672,-0.4124083,-0.61906743,11.901932716369629,2.1567165851593018,0.30265191197395325,8.453008651733398,-99.35218048095703, -43.324684143066406
385,3400169664,0.28101358,-0.60808986,-0.4207348,-0.61175203,11.17763614654541,1.4716964960098267,1.3733700513839722,8.545744895935059,-97.96961975097656, -41.16132354736328
386,3400186331,0.2749721,-0.6132765,-0.4295357,-0.603143,10.143595695495605,2.285487651824951,2.9122188091278076,26.73832130432129,-93.93517303466797, -31.18760108947754
387,3400202998,0.26922542,-0.61823624,-0.4373084,-0.5950321,10.480939865112305,3.4346461296081543,1.6216174364089966,22.71889877319336,-88.21122741699219, -27.218059539794922
388,3400219665,0.2653891,-0.6231202,-0.445278,-0.5856769,10.671306610107422,0.004769495222717524,0.5614867806434631,35.54228973388672,-87.90646362304688, -18.107812881469727
389,3400236332,0.26413786,-0.6270488,-0.4534283,-0.57571167,9.695454597473145,0.49731382727622986,1.3413665294647217,50.958831787109375,-79.1580581665039, -10.333016395568848
390,3400252999,0.2623234,-0.6306737,-0.46037656,-0.5670015,10.409184455871582,0.48253947496414185,-0.11867167055606842,40.41412353515625,-72.21522521972656, -10.63079833984375
391,3400269666,0.26184833,-0.6337573,-0.4683992,-0.55712616,11.768129348754883,-0.5370885133743286,-0.10128875076770782,55.081520080566406,-72.91178131103516, -9.709769248962402
392,3400286333,0.26371607,-0.63607156,-0.47737253,-0.54587746,11.556309700012207,-2.2490673065185547,1.146270990371704,74.72795104980469,-70.19583892822266, -4.942409992218018
393,3400303000,0.26801094,-0.6378258,-0.48742926,-0.53269243,10.766366958618164,-2.136082649230957,0.6346033811569214,96.7517318725586,-70.69414520263672, 1.0060279369354248
394,3400319667,0.27359065,-0.63932014,-0.49867627,-0.51743597,10.200400352478027,-0.7870205044746399,0.6950100064277649,114.16007995605469,-76.82897186279297, 3.3575687408447266
395,3400336334,0.2778324,-0.64134777,-0.5094309,-0.50195867,9.740867614746094,0.7370135188102722,1.6070361137390137,106.26419067382812,-83.47445678710938, 2.9828615188598633
396,3400353001,0.27868366,-0.64462566,-0.51814264,-0.48818195,9.537352561950684,0.8745728731155396,2.7240076065063477,75.92498016357422,-88.40208435058594, 1.4422112703323364
397,3400369668,0.2761119,-0.64888245,-0.5250465,-0.476487,9.277532577514648,0.5829311609268188,2.485522508621216,45.4040412902832,-91.36275482177734, -2.51314640045166
398,3400386335,0.27147818,-0.65350705,-0.53186524,-0.46513182,9.597688674926758,0.3811601996421814,1.6195696592330933,34.02139663696289,-98.49158477783203, -8.200196266174316
399,3400403002,0.2648287,-0.6583701,-0.5387217,-0.45408532,10.120789527893066,0.547964334487915,2.0786139965057373,23.518186569213867,-105.4465103149414, -14.522229194641113
400,3400419669,0.25562176,-0.6635508,-0.5450167,-0.44420126,10.635544776916504,1.5150443315505981,2.087435722351074,5.315196514129639,-109.78936767578125, -20.90960693359375
401,3400436336,0.24385412,-0.66916835,-0.55049616,-0.43554932,10.95737075805664,1.0762321949005127,1.554786205291748,-14.206941604614258,-113.8358383178711, -25.534809112548828
402,3400453003,0.23082519,-0.67484856,-0.5558947,-0.42694318,11.257492065429688,0.6148812174797058,0.6902931332588196,-20.501853942871094,-118.61436462402344, -28.801647186279297
403,3400469670,0.21673192,-0.68035245,-0.56150085,-0.4181684,11.513402938842773,0.010825740173459053,0.8778641223907471,-23.889925003051758,-123.42472839355469, -33.33844757080078
404,3400486337,0.20364723,-0.68554056,-0.567422,-0.40815967,11.362555503845215,-1.2139389514923096,0.3690706789493561,-13.025338172912598,-125.02985382080078, -31.353395462036133
405,3400503004,0.1916475,-0.69005597,-0.5743322,-0.39653093,11.462977409362793,-0.01933910697698593,0.27713027596473694,2.1079723834991455,-128.08924865722656, -33.41302490234375
406,3400519671,0.17890988,-0.6942383,-0.5815059,-0.3845455,11.168363571166992,0.05486948788166046,0.31463006138801575,1.176616907119751,-132.3020782470703, -37.57242202758789
407,3400536338,0.16606063,-0.69825643,-0.58888483,-0.37158656,12.421387672424316,-0.9819614291191101,0.9289714097976685,5.28657865524292,-137.38389587402344, -38.3572998046875
408,3400553005,0.15381013,-0.70181996,-0.5965015,-0.35773873,13.228635787963867,-0.7189164161682129,1.3851227760314941,12.877251625061035,-138.56497192382812, -38.875762939453125
409,3400569672,0.14211398,-0.7050773,-0.60412675,-0.3430755,13.727991104125977,-0.3731118142604828,2.5991809368133545,19.24227523803711,-139.7498321533203, -38.02482986450195
410,3400586339,0.13120215,-0.7082018,-0.61116207,-0.3282029,13.770367622375488,-0.4994564950466156,3.264261484146118,22.66595458984375,-136.93869018554688, -33.727996826171875
411,3400603006,0.1217675,-0.7110977,-0.6179591,-0.3124734,13.843565940856934,-0.16041216254234314,3.6007802486419678,33.143699645996094,-134.517578125, -29.48640251159668
412,3400619673,0.11539929,-0.71380323,-0.6241537,-0.29597357,12.83232593536377,-0.3195137083530426,4.8547515869140625,50.294891357421875,-124.70240020751953, -20.15480613708496
413,3400636340,0.1114916,-0.7153484,-0.628738,-0.2837869,11.824665069580078,3.230746269226074,7.052022933959961,41.52759552001953,-89.69699096679688, -15.668110847473145
414,3400653007,0.10697694,-0.7156441,-0.63570005,-0.2688772,9.456177711486816,7.494101524353027,-2.0424234867095947,56.0576171875,-105.47896575927734, -31.803768157958984
415,3400669674,0.10021667,-0.71638167,-0.64312965,-0.2512732,14.937931060791016,7.806291103363037,-6.687289714813232,57.53263854980469,-129.82522583007812, -34.18611145019531
416,3400686341,0.09262102,-0.717443,-0.6487195,-0.23634787,15.014459609985352,5.993902683258057,-2.049375295639038,38.36068344116211,-119.81999206542969, -26.879371643066406
417,3400703008,0.084358424,-0.71878844,-0.6506089,-0.2300759,13.917555809020996,4.905360698699951,12.210470199584961,-9.557403564453125,-78.5142593383789, -13.940104484558105
418,3400719675,0.07909975,-0.72058016,-0.6484263,-0.2324884,7.531919002532959,-2.289177894592285,8.264504432678223,-40.05197525024414,-21.018156051635742, 7.822118759155273
419,3400736342,0.080180876,-0.72139376,-0.64626557,-0.23559062,8.89703369140625,2.3371636867523193,3.0519397258758545,-11.208992004394531,11.994170188903809, 12.995551109313965
420,3400753009,0.08321867,-0.7213496,-0.6423113,-0.24528737,8.520099639892578,1.8633873462677002,4.109131813049316,-33.18214797973633,55.59749221801758, 17.570262908935547
421,3400769676,0.09257096,-0.7201142,-0.6372181,-0.25849494,5.941440105438232,-0.5016623735427856,4.7969794273376465,-18.568233489990234,103.38921356201172, 26.571603775024414
422,3400786343,0.109451324,-0.7169969,-0.6314273,-0.27429113,6.011437892913818,-0.21451199054718018,4.647683620452881,7.295749664306641,152.91590881347656, 33.51786804199219
423,3400803010,0.13028255,-0.71121705,-0.6253919,-0.29339713,6.795839309692383,0.4048802852630615,4.324049949645996,13.931821823120117,191.5489959716797, 28.18670654296875
424,3400819677,0.15171023,-0.70285034,-0.6180352,-0.31783336,8.302693367004395,0.5056087374687195,2.904980182647705,-6.40480375289917,226.5508270263672, 20.01966094970703
425,3400836344,0.17333151,-0.69243073,-0.60852677,-0.3466861,10.177021980285645,-0.48662707209587097,0.6224210262298584,-26.774654388427734,255.43637084960938, 17.53977394104004
426,3400853011,0.19655566,-0.68019253,-0.59727955,-0.3767775,11.686037063598633,-1.1273958683013916,-0.5045075416564941,-26.324066162109375,274.46417236328125, 20.54848861694336
427,3400869678,0.22006291,-0.6665234,-0.58347934,-0.40849853,12.745196342468262,-0.6918759942054749,-0.790751039981842,-36.40525436401367,290.45166015625, 25.09687042236328
428,3400886345,0.24265546,-0.652188,-0.5665985,-0.44128853,13.630108833312988,-0.44131842255592346,-1.3756054639816284,-52.56498336791992,298.2777099609375, 32.300537109375
429,3400903012,0.26433435,-0.6374079,-0.5468497,-0.4741246,14.416791915893555,0.6336899399757385,-1.753918170928955,-64.8238296508789,301.1705627441406, 40.49595642089844
430,3400919679,0.2856326,-0.6221195,-0.5246397,-0.5060977,15.07716178894043,0.8667046427726746,-1.7566826343536377,-70.40412902832031,302.2347412109375, 49.65422439575195
431,3400936346,0.30585563,-0.606511,-0.5002228,-0.5370049,15.616754531860352,1.4847487211227417,-1.6465026140213013,-78.23058319091797,299.4345397949219, 56.22745895385742
432,3400953013,0.32478863,-0.590863,-0.4737194,-0.56655407,16.411909103393555,0.9996793866157532,-2.1784861087799072,-86.59429168701172,294.09051513671875, 62.84075164794922
433,3400969680,0.3426548,-0.5752132,-0.44599557,-0.5939745,16.987577438354492,1.0405113697052002,-2.6427526473999023,-88.80487823486328,284.9755554199219, 68.33184051513672
434,3400986347,0.35844502,-0.5601962,-0.4171208,-0.61944157,16.82047462463379,1.2505191564559937,-2.4335286617279053,-97.26192474365234,271.3463439941406, 70.89189910888672
435,3401003014,0.3709373,-0.54677415,-0.38649404,-0.6434796,16.49881362915039,1.335673213005066,-2.3810949325561523,-117.32286834716797,254.27734375, 71.63939666748047
436,3401019681,0.38204548,-0.5347553,-0.35530683,-0.664707,15.489073753356934,-0.3785078823566437,-4.435975551605225,-121.14292907714844,235.65655517578125, 78.48323822021484
437,3401036348,0.39539522,-0.52164936,-0.3322521,-0.6790827,13.391018867492676,1.952151894569397,-5.499209403991699,-56.19074249267578,200.00714111328125, 74.12594604492188
438,3401053015,0.40822616,-0.5085556,-0.31817493,-0.68810415,10.883167266845703,3.0970547199249268,-8.703435897827148,-3.985410690307617,155.63563537597656, 54.20620346069336
439,3401069682,0.41751492,-0.4988735,-0.31275034,-0.69209397,9.506227493286133,4.683839797973633,-9.623950004577637,25.939346313476562,90.42975616455078, 28.971759796142578
440,3401086349,0.42001757,-0.49610382,-0.311325,-0.6932121,9.635441780090332,4.599348545074463,-9.34622573852539,7.929317951202393,22.187294006347656, 6.291855812072754
441,3401103016,0.41745737,-0.49804896,-0.31324735,-0.6924976,10.47791576385498,4.206172466278076,-7.8385725021362305,-3.1618335247039795,-26.494667053222656, -13.680451393127441
442,3401119683,0.4112609,-0.50269014,-0.31791815,-0.69072086,11.024715423583984,3.827338218688965,-6.171134948730469,-8.053271293640137,-58.21522521972656, -31.38734245300293
443,3401136350,0.40089554,-0.5105352,-0.32311767,-0.6886449,11.474940299987793,4.25406551361084,-5.686731815338135,-28.422645568847656,-84.67781829833984, -45.02909469604492
444,3401153017,0.3864065,-0.5211688,-0.32808572,-0.6866098,11.732275009155273,4.569248676300049,-5.651301383972168,-51.83566665649414,-105.9059829711914, -57.52141571044922
445,3401169684,0.36780918,-0.53372806,-0.3338513,-0.68439347,11.913247108459473,6.833982944488525,-6.269140243530273,-67.56976318359375,-126.70771789550781, -74.81016540527344
446,3401186351,0.3437397,-0.5487742,-0.34047243,-0.6817393,14.80586051940918,8.382346153259277,-3.0422329902648926,-88.99039459228516,-154.43002319335938, -96.67862701416016
447,3401203018,0.32044837,-0.5632396,-0.3473405,-0.6778117,18.639177322387695,-4.828623294830322,4.854953765869141,-80.59083557128906,-155.07794189453125, -92.0689926147461
448,3401219685,0.29864517,-0.57630515,-0.35674238,-0.6718768,16.359519958496094,-2.902447462081909,-1.148857593536377,-55.11399841308594,-158.4633026123047, -94.08280944824219
449,3401236352,0.2813344,-0.5878416,-0.36993748,-0.66214776,14.987007141113281,-2.7879419326782227,-2.90209698677063,-7.354513645172119,-163.12750244140625, -84.46538543701172
450,3401253019,0.2680148,-0.5973777,-0.38538593,-0.6502198,11.467022895812988,1.5002256631851196,-1.9143534898757935,28.474777221679688,-157.01205444335938, -76.38036346435547
451,3401269686,0.25373775,-0.6069061,-0.39694625,-0.64009064,9.419721603393555,2.5928144454956055,-0.3232094943523407,2.373903274536133,-144.91249084472656, -68.02452850341797
452,3401286353,0.23979224,-0.6156058,-0.4041154,-0.6326297,8.146942138671875,2.9502837657928467,0.5484497547149658,-21.40789794921875,-121.58195495605469, -55.11815643310547
453,3401303020,0.2294539,-0.62282914,-0.4115805,-0.624529,11.965903282165527,3.1115453243255615,-4.075002670288086,-0.6448820233345032,-108.39241027832031, -43.677650451660156
454,3401319687,0.2241096,-0.62834144,-0.42154327,-0.61421776,13.157135963439941,1.8255141973495483,-1.1760752201080322,40.39728927612305,-100.24235534667969, -34.261810302734375
455,3401336354,0.22150286,-0.6322762,-0.43061808,-0.60475755,11.099449157714844,-1.0980995893478394,-1.339806079864502,48.43586349487305,-80.64628601074219, -24.78767204284668
456,3401353021,0.22256024,-0.63401824,-0.4403053,-0.5954991,11.060237884521484,0.17883498966693878,-1.8883026838302612,69.64481353759766,-60.78179168701172, -19.130762100219727
457,3401369688,0.22365116,-0.63504314,-0.4487541,-0.58763963,11.501551628112793,1.07340407371521,-1.3439140319824219,61.55706787109375,-49.78847122192383, -17.977523803710938
458,3401386355,0.225471,-0.6357488,-0.45671237,-0.58000016,11.177062034606934,0.42910823225975037,-0.3494897782802582,62.58279037475586,-44.59270477294922, -14.264965057373047
459,3401403022,0.22892706,-0.63664573,-0.4647535,-0.5712084,11.820796966552734,0.44236499071121216,-0.900725781917572,73.3829574584961,-45.484256744384766, -5.778070449829102
460,3401419689,0.23661463,-0.6375111,-0.47440615,-0.5590457,12.793220520019531,-0.9274801015853882,1.4055665731430054,109.06301879882812,-49.22378921508789, 8.926214218139648
461,3401436356,0.24556716,-0.63788843,-0.4838271,-0.5465405,12.570383071899414,2.0822713375091553,1.9272562265396118,115.625244140625,-44.539466857910156, 13.66689682006836
462,3401453023,0.25453687,-0.6383596,-0.49282444,-0.53369665,11.932300567626953,1.72832453250885,2.13102126121521,115.12748718261719,-45.805580139160156, 16.4670467376709
463,3401469690,0.2621715,-0.6395186,-0.5002955,-0.5215234,11.053459167480469,0.8707242012023926,2.7636497020721436,100.21644592285156,-47.44451904296875, 19.428390502929688
464,3401486357,0.26886237,-0.64107955,-0.50736856,-0.5092224,10.06297779083252,0.5563706159591675,2.634049415588379,94.3813705444336,-52.19288635253906, 19.398887634277344
465,3401503024,0.27331892,-0.6431015,-0.51453197,-0.4969651,9.326539039611816,1.549023985862732,2.166260242462158,83.86652374267578,-61.77421188354492, 12.700716018676758
466,3401519691,0.2740752,-0.64608216,-0.5213077,-0.48548847,9.00800895690918,1.7775731086730957,2.2579662799835205,61.6324577331543,-74.1327133178711, 3.733576536178589
467,3401536358,0.27042314,-0.6500801,-0.5274001,-0.47551745,8.732956886291504,1.4715001583099365,2.2262134552001953,32.48421096801758,-85.51960754394531, -7.100397109985352
468,3401553025,0.26302084,-0.65473056,-0.5332353,-0.46669933,8.815446853637695,0.5182055234909058,2.2484309673309326,9.526037216186523,-95.78099060058594, -17.973590850830078
469,3401569692,0.25329843,-0.6597951,-0.5391243,-0.4581,9.45022201538086,-0.4784803092479706,0.47437629103660583,-2.2795467376708984,-104.89289093017578, -24.553634643554688
470,3401586359,0.24200296,-0.6650074,-0.5455256,-0.4490008,10.398635864257812,-0.7031917572021484,0.05521887540817261,-6.211067199707031,-114.4681625366211, -30.468170166015625
471,3401603026,0.22903359,-0.67053103,-0.55146235,-0.44025144,10.836889266967773,-1.048983097076416,0.4431437849998474,-17.145063400268555,-119.46405029296875, -32.993064880371094
472,3401619693,0.21604826,-0.67600304,-0.55710196,-0.43125474,10.92955207824707,-1.585008144378662,-0.09799254685640335,-17.110797882080078,-120.19578552246094, -31.565547943115234
473,3401636360,0.20282298,-0.68128365,-0.5625202,-0.42224014,11.255035400390625,-0.8064581751823425,-0.5026861429214478,-18.56110191345215,-120.44908905029297, -32.058509826660156
474,3401653027,0.18951803,-0.686482,-0.5674711,-0.41328248,11.561066627502441,-1.2982820272445679,-0.8621424436569214,-20.415285110473633,-119.7498550415039, -30.587818145751953
475,3401669694,0.17773002,-0.6912038,-0.573049,-0.40282077,11.976516723632812,-0.6962313055992126,0.25073546171188354,-5.021039962768555,-120.54927825927734, -29.236431121826172
476,3401686361,0.16674238,-0.69565475,-0.5788657,-0.3913769,11.816290855407715,-0.9322923421859741,1.2707339525222778,3.6304867267608643,-121.81627655029297, -28.104957580566406
477,3401703028,0.15658428,-0.69979763,-0.58491445,-0.3789987,11.784660339355469,-0.1580454707145691,1.7351938486099243,12.278732299804688,-122.66834259033203, -27.218963623046875
478,3401719695,0.14685398,-0.7037444,-0.5909169,-0.3660534,12.218703269958496,0.09796452522277832,1.7294453382492065,16.713579177856445,-123.38370513916016, -26.118106842041016
479,3401736362,0.13825059,-0.70740414,-0.596554,-0.3529726,11.881272315979004,0.4655524790287018,3.1835858821868896,22.098936080932617,-118.65414428710938, -22.596660614013672
480,3401753029,0.13072361,-0.7099522,-0.6000363,-0.34472582,10.987648963928223,1.7830610275268555,5.309042930603027,3.3683090209960938,-86.29708099365234, -18.70676040649414
481,3401769696,0.12430687,-0.71186286,-0.60464805,-0.3349628,9.53637409210205,3.5830488204956055,0.030018731951713562,18.38470458984375,-88.96195983886719, -22.86993980407715
482,3401786363,0.11727236,-0.71522135,-0.6101655,-0.3200059,11.685380935668945,4.249520778656006,-5.053901672363281,37.88679885864258,-121.2189712524414, -18.205612182617188
483,3401803030,0.11057963,-0.7194823,-0.6158444,-0.3014187,15.375182151794434,6.790449619293213,-4.303055763244629,54.47135543823242,-139.8506317138672, -11.451839447021484
484,3401819697,0.10269572,-0.7237781,-0.6196563,-0.2857007,14.911280632019043,3.6572422981262207,-0.7810735702514648,32.65721130371094,-129.57550048828125, -6.626692771911621
485,3401836364,0.09480084,-0.7289096,-0.61861855,-0.2775155,12.469806671142578,3.2369425296783447,11.063457489013672,-9.552057266235352,-90.628173828125, 15.718905448913574
486,3401853031,0.0880567,-0.7356405,-0.6128164,-0.2748367,9.049813270568848,-1.4046889543533325,4.79495096206665,-37.234806060791016,-58.5099983215332, 44.9483528137207
487,3401869698,0.08778573,-0.7422168,-0.60580313,-0.27278307,9.782715797424316,-0.2818739116191864,3.2414090633392334,-9.435017585754395,-27.214113235473633, 62.179439544677734
488,3401886365,0.093281135,-0.7470315,-0.5987297,-0.27343285,8.73902416229248,1.0998170375823975,4.262353420257568,9.588562965393066,13.786945343017578, 64.2993392944336
489,3401903032,0.10465349,-0.7496887,-0.5913716,-0.2780192,6.838939666748047,2.1432840824127197,4.058704376220703,24.389352798461914,62.308074951171875, 65.43184661865234
490,3401919699,0.11724049,-0.7498704,-0.58310914,-0.289712,6.824944496154785,2.177422285079956,3.64886736869812,1.8187335729599,109.20765686035156, 57.30778884887695
491,3401936366,0.13105308,-0.74697155,-0.5752793,-0.30645156,8.119372367858887,3.1258504390716553,2.8888204097747803,-8.716608047485352,145.89956665039062, 41.15592956542969
492,3401953033,0.14142272,-0.7409548,-0.56717616,-0.3306011,9.535919189453125,5.3774518966674805,1.9763977527618408,-53.379573822021484,177.12649536132812, 16.315189361572266
493,3401969700,0.1483232,-0.7327801,-0.5570969,-0.36149248,10.991975784301758,2.5563805103302,0.9489742517471313,-99.57091522216797,204.75587463378906, 3.529505491256714
494,3401986367,0.15721641,-0.72249794,-0.5463486,-0.3934251,11.380453109741211,0.6610451340675354,0.3153819739818573,-92.91771697998047,223.54322814941406, 2.6307179927825928
495,3402003034,0.16879594,-0.709873,-0.534834,-0.42607626,11.67700481414795,1.5121073722839355,0.35818976163864136,-81.73931121826172,244.3873748779297, 4.018971920013428
496,3402019701,0.18342282,-0.6950004,-0.5218077,-0.45939928,12.427667617797852,0.4526890218257904,0.11182302236557007,-71.05944061279297,267.2477111816406, 11.22162914276123
497,3402036368,0.20371151,-0.67790675,-0.50805414,-0.4907396,13.279565811157227,-1.1616421937942505,-0.8644207715988159,-36.31937789916992,286.057373046875, 27.076513290405273
498,3402053035,0.22913533,-0.6585352,-0.4945452,-0.518897,13.861027717590332,-0.4164157211780548,-0.6045411229133606,2.7828593254089355,296.5679016113281, 39.739898681640625
499,3402069702,0.2555629,-0.6376222,-0.47947323,-0.54610556,14.764437675476074,-0.03564109280705452,-0.5943145155906677,7.422273635864258,303.71392822265625, 46.691341400146484
500,3402086369,0.28157526,-0.6159544,-0.46192726,-0.57265973,16.1734676361084,-0.7008268237113953,-0.9438446760177612,-0.20214053988456726,306.74517822265625, 54.689456939697266
501,3402103036,0.30658644,-0.594307,-0.4419905,-0.59787023,17.064441680908203,-0.4693228602409363,-1.9048728942871094,-9.656810760498047,302.5433044433594, 63.55238342285156
502,3402119703,0.32786742,-0.57404715,-0.41805944,-0.6230566,17.19158363342285,-0.011433770880103111,-1.5013693571090698,-44.20603942871094,294.0255432128906, 68.79316711425781
503,3402136370,0.34453046,-0.5562689,-0.38963762,-0.6481102,17.229793548583984,-0.5204336643218994,-1.7495195865631104,-86.90374755859375,279.9651184082031, 74.12374114990234
504,3402153037,0.35726616,-0.5410142,-0.357963,-0.6719579,17.316741943359375,0.40390723943710327,-1.5482730865478516,-119.24027252197266,261.591552734375, 78.58299255371094
505,3402169704,0.36617938,-0.52759945,-0.3234251,-0.6949447,16.620162963867188,0.458592027425766,-2.8450045585632324,-149.1060791015625,247.86866760253906, 78.13855743408203
506,3402186371,0.37780434,-0.51339877,-0.2956198,-0.7115439,14.53019905090332,-0.8924070000648499,-5.112476348876953,-90.91514587402344,217.92247009277344, 80.96922302246094
507,3402203038,0.39154953,-0.4984242,-0.27695417,-0.7221905,12.676798820495605,1.650546669960022,-6.8171610832214355,-24.633760452270508,181.70664978027344, 72.9694595336914
508,3402219705,0.4051896,-0.4848189,-0.26782915,-0.7273514,10.112104415893555,2.871091365814209,-8.319781303405762,29.10105323791504,130.6942901611328, 57.272708892822266
509,3402236372,0.4157356,-0.47518516,-0.26628664,-0.7283232,8.88344955444336,4.4249067306518555,-8.60053825378418,53.28499221801758,70.52705383300781, 35.69813537597656
510,3402253039,0.42165035,-0.4706902,-0.26842195,-0.7270569,8.901878356933594,3.758927822113037,-7.669506549835205,45.88190841674805,18.958681106567383, 16.510969161987305
511,3402269706,0.42376384,-0.4700384,-0.27216733,-0.72485423,9.535058975219727,2.3882312774658203,-6.523828029632568,32.13413619995117,-14.536360740661621, 2.277843475341797
512,3402286373,0.4236677,-0.471574,-0.27738142,-0.7219305,9.953675270080566,1.960324764251709,-5.23465633392334,27.221832275390625,-35.794639587402344, -7.176513195037842
513,3402303040,0.4211347,-0.47500783,-0.2823811,-0.71921796,10.285684585571289,2.666172504425049,-4.2035746574401855,12.270078659057617,-48.216365814208984, -15.48214054107666
514,3402319707,0.4159896,-0.48037246,-0.2866204,-0.71696883,10.425564765930176,3.6609601974487305,-4.161897659301758,-6.574848175048828,-58.8224983215332, -23.40980339050293
515,3402336374,0.40792835,-0.48799148,-0.28944796,-0.7153175,10.317490577697754,4.324897766113281,-4.268956184387207,-30.863889694213867,-69.38458251953125, -30.266101837158203
516,3402353041,0.39766678,-0.4972576,-0.2917189,-0.71379036,10.470255851745605,4.6968770027160645,-4.68278694152832,-45.935665130615234,-79.6126480102539, -36.151737213134766
517,3402369708,0.38670143,-0.50678957,-0.29524755,-0.7116569,10.573711395263672,4.391262054443359,-4.685359477996826,-41.74641799926758,-87.56971740722656, -41.558170318603516
518,3402386375,0.37508255,-0.51621497,-0.3005307,-0.7088843,11.101964950561523,5.576198577880859,-5.275554656982422,-33.93405532836914,-95.01483154296875, -49.247920989990234
519,3402403042,0.36131477,-0.52693886,-0.3050215,-0.70622206,13.882895469665527,2.0109193325042725,2.2160544395446777,-49.08025360107422,-103.08999633789062, -54.33571243286133
520,3402419709,0.3514232,-0.5347958,-0.31043723,-0.70293987,16.87971305847168,-7.208258628845215,11.12163257598877,-22.143253326416016,-85.56623077392578, -43.28461837768555
521,3402436376,0.33782938,-0.54508466,-0.31672153,-0.6988863,18.403074264526367,-1.5180739164352417,-0.430314302444458,-35.70907211303711,-110.4381332397461, -57.57215118408203
522,3402453043,0.32356575,-0.55582416,-0.32743326,-0.6922085,17.32516098022461,-1.5389478206634521,-0.3873310387134552,-12.290241241455078,-134.06517028808594, -70.38021087646484
523,3402469710,0.31105542,-0.5656361,-0.3426983,-0.68253845,13.444051742553711,-1.0318909883499146,-0.43932706117630005,24.853391647338867,-147.18893432617188, -74.9552993774414
524,3402486377,0.2995803,-0.57558304,-0.35789642,-0.67146575,9.940682411193848,-0.7091028690338135,-0.5804036259651184,31.55840492248535,-150.65365600585938, -66.59033966064453
525,3402503044,0.29037303,-0.5846319,-0.37123832,-0.6603571,6.355690956115723,1.711350679397583,2.2460427284240723,33.873382568359375,-137.2304229736328, -50.96465301513672
526,3402519711,0.28220728,-0.5919515,-0.38008273,-0.65229595,6.696741104125977,5.601406097412109,2.7700958251953125,13.31068229675293,-105.58698272705078, -38.62385177612305
527,3402536378,0.27320865,-0.5980666,-0.38503212,-0.64762974,10.291424751281738,6.549947261810303,0.6867373585700989,-14.084478378295898,-81.09996795654297, -36.089805603027344
528,3402553045,0.26520556,-0.60331696,-0.38917002,-0.6436007,11.52236557006836,2.1265170574188232,-2.2298848628997803,-13.65766716003418,-70.51311492919922, -31.647315979003906
529,3402569712,0.26292205,-0.6076186,-0.39678594,-0.6357932,11.331343650817871,-2.139540433883667,-3.600517749786377,37.28019332885742,-72.98588562011719, -16.410280227661133
530,3402586379,0.2634483,-0.6107108,-0.40585852,-0.62682265,11.342231750488281,0.5568510293960571,-1.5058664083480835,60.72040939331055,-67.45329284667969, -11.551527976989746
531,3402603046,0.2634727,-0.61344856,-0.41432822,-0.61854315,11.245951652526855,-0.8193073868751526,0.05759526044130325,54.71904754638672,-63.33933639526367, -13.48167610168457
532,3402619713,0.26434842,-0.6154606,-0.42284483,-0.61035305,10.909651756286621,-0.13020889461040497,0.5123952627182007,59.57482147216797,-57.605316162109375, -12.391397476196289
533,3402636380,0.2655124,-0.6174763,-0.43068826,-0.602274,11.237789154052734,0.18338030576705933,0.34606489539146423,57.64631271362305,-55.18126678466797, -8.599992752075195
534,3402653047,0.2685649,-0.61932284,-0.4398696,-0.59230685,12.497748374938965,-0.8231112360954285,0.021693408489227295,77.09535217285156,-59.442665100097656, -3.579430341720581
535,3402669714,0.2737457,-0.620528,-0.45102754,-0.58015776,12.330270767211914,0.8782549500465393,1.384042739868164,101.99929809570312,-63.43362045288086, -1.347091555595398
536,3402686381,0.27913496,-0.6218646,-0.46138656,-0.56788296,11.845794677734375,0.23731505870819092,2.254473924636841,99.86471557617188,-62.496490478515625, 3.4897661209106445
537,3402703048,0.2840376,-0.62364215,-0.4705655,-0.5558432,11.224031448364258,-0.07298418879508972,1.3725459575653076,91.59105682373047,-62.682498931884766, 7.529494762420654
538,3402719715,0.28805557,-0.6259722,-0.47940895,-0.5434614,10.716009140014648,-0.253601998090744,1.3972461223602295,86.55935668945312,-68.62251281738281, 7.987006664276123
539,3402736382,0.2907961,-0.62895954,-0.4878271,-0.53091687,10.157953262329102,0.14424103498458862,1.5884487628936768,78.70743560791016,-75.30606842041016, 7.485786437988281
540,3402753049,0.29086027,-0.6329122,-0.49553847,-0.5189072,10.032227516174316,0.7397910952568054,1.661743402481079,60.83123016357422,-84.24337768554688, 2.9154059886932373
541,3402769716,0.28775096,-0.63780624,-0.50279886,-0.50753963,9.42849063873291,0.9123021960258484,2.4012181758880615,41.355220794677734,-94.88338470458984, -4.526050567626953
542,3402786383,0.28045794,-0.64357966,-0.5095537,-0.49749795,9.05755615234375,1.8559558391571045,1.6914353370666504,14.929048538208008,-105.78794860839844, -16.48511505126953
543,3402803050,0.26895526,-0.6502468,-0.51584256,-0.48861971,9.599032402038574,1.901019811630249,1.0324516296386719,-11.067502975463867,-117.7039566040039, -27.907140731811523
544,3402819717,0.2551551,-0.65718013,-0.5217165,-0.48043984,9.74019718170166,1.0471144914627075,1.254019021987915,-25.67948341369629,-123.00215911865234, -34.09770202636719
545,3402836384,0.24046153,-0.6638412,-0.5276376,-0.4723263,10.00402545928955,0.45066598057746887,0.25850942730903625,-29.302738189697266,-125.25128936767578, -38.37161636352539
546,3402853051,0.22649832,-0.66984046,-0.5339644,-0.46356753,11.309317588806152,0.37252506613731384,0.09300687909126282,-21.21014404296875,-124.2064208984375, -39.22840118408203
547,3402869718,0.21330158,-0.6752537,-0.5402861,-0.4545616,12.146771430969238,0.8996420502662659,-0.8401703834533691,-15.868172645568848,-120.8196029663086, -38.586692810058594
548,3402886385,0.20155025,-0.68048126,-0.54638803,-0.4447284,12.44355297088623,0.06877731531858444,-0.8880125284194946,-6.494063377380371,-118.55126953125, -32.5723991394043
549,3402903052,0.19226524,-0.6852551,-0.5530779,-0.43308753,12.224706649780273,-0.3070465922355652,-0.16113267838954926,14.254264831542969,-117.35213470458984, -27.05516242980957
550,3402919719,0.18412985,-0.6895878,-0.5596673,-0.42111534,12.285358428955078,-0.33977317810058594,0.8443199992179871,21.205171585083008,-113.30904388427734, -24.476924896240234
551,3402936386,0.17810027,-0.6933564,-0.56673235,-0.40786302,12.61205768585205,-1.683762788772583,0.6683077812194824,38.200416564941406,-110.50605010986328, -21.255537033081055
552,3402953053,0.17390338,-0.6965603,-0.57435256,-0.3932951,12.630805969238281,-1.3120797872543335,2.1614890098571777,54.280025482177734,-109.01071166992188, -19.4510440826416
553,3402969720,0.17044502,-0.6994675,-0.5818044,-0.37841526,12.29592227935791,-0.6580509543418884,3.444978952407837,58.932491302490234,-106.9195327758789, -17.519166946411133
554,3402986387,0.16798255,-0.7018252,-0.58813673,-0.3651288,11.803731918334961,0.32279694080352783,6.313429355621338,55.08686828613281,-92.90168762207031, -13.654071807861328
555,3403003054,0.16638608,-0.70274377,-0.5940444,-0.35437065,10.2014741897583,3.2800300121307373,4.146913051605225,49.69596481323242,-73.53691101074219, -18.182262420654297
556,3403019721,0.16327979,-0.7041669,-0.6033232,-0.33688313,14.073111534118652,8.955521583557129,-5.624847888946533,77.64230346679688,-117.64900970458984, -28.29991912841797
557,3403036388,0.15441366,-0.70746785,-0.61006665,-0.32165974,16.36857795715332,8.797104835510254,-4.1682329177856445,32.57131576538086,-132.26121520996094, -23.920001983642578
558,3403053055,0.1425367,-0.7115569,-0.6140761,-0.31029218,15.981613159179688,3.9862618446350098,1.025742769241333,-4.9270219802856445,-125.26361846923828, -17.955873489379883
559,3403069722,0.13160595,-0.71573997,-0.612591,-0.30842975,10.704370498657227,0.2565571665763855,11.178778648376465,-52.132503509521484,-69.99577331542969, 1.9568308591842651
560,3403086389,0.12892428,-0.7184471,-0.61099577,-0.30642635,8.9276762008667,1.3177871704101562,5.082104206085205,-9.776811599731445,-33.22207260131836, 13.772610664367676
561,3403103056,0.12838346,-0.7195719,-0.6084808,-0.3090076,9.576334953308105,4.248424530029297,4.218631267547607,-18.947641372680664,2.26357102394104, 12.057743072509766
562,3403119723,0.1301641,-0.7191183,-0.60412467,-0.3177421,7.679807186126709,1.8100662231445312,4.769403457641602,-35.588470458984375,47.0997314453125, 14.054490089416504
563,3403136390,0.13925333,-0.7164121,-0.59956706,-0.32845405,6.301989555358887,0.7298204898834229,3.956731081008911,-6.0141777992248535,92.08634185791016, 19.86308479309082
564,3403153057,0.15399839,-0.7109126,-0.5948766,-0.34206778,6.716811656951904,1.0251051187515259,4.729608058929443,12.301661491394043,135.94186401367188, 19.014957427978516
565,3403169724,0.17060444,-0.7028743,-0.5889129,-0.3606161,7.06535005569458,0.8981044888496399,3.7000486850738525,0.9806307554244995,174.7744140625, 14.049978256225586
566,3403186391,0.18712182,-0.6928521,-0.5809111,-0.38403687,8.798856735229492,0.9584493041038513,1.6505790948867798,-21.826871871948242,205.08734130859375, 9.948768615722656
567,3403203058,0.2045317,-0.68105537,-0.5708717,-0.41041005,10.182055473327637,-0.5518209934234619,1.0362344980239868,-32.39383316040039,229.86537170410156, 11.116362571716309
568,3403219725,0.22309206,-0.667319,-0.5593154,-0.438272,10.621819496154785,-0.21427930891513824,0.589787483215332,-34.36272430419922,248.8017120361328, 11.691082000732422
569,3403236392,0.2412422,-0.6520356,-0.54499817,-0.46864662,11.317638397216797,0.08755584806203842,0.0707191526889801,-51.80080795288086,267.5287170410156, 13.24512004852295
570,3403253059,0.25989017,-0.6353603,-0.52760243,-0.5004107,12.52390193939209,-0.6665897369384766,-0.5464891791343689,-62.33695983886719,285.1295166015625, 21.04808807373047
571,3403269726,0.28059286,-0.617109,-0.5079804,-0.53141403,13.63966178894043,-0.9889229536056519,-1.0653376579284668,-55.40916061401367,298.6222839355469, 33.374576568603516
572,3403286393,0.30344608,-0.59729266,-0.4868961,-0.56044173,14.729260444641113,-0.42405059933662415,-1.6609578132629395,-41.70719528198242,306.30950927734375, 45.69035339355469
573,3403303060,0.32582226,-0.5766539,-0.46381068,-0.5883796,15.628438949584961,0.9172885417938232,-1.7812836170196533,-45.98798370361328,307.6817626953125, 51.526344299316406
574,3403319727,0.34658933,-0.5559798,-0.43843296,-0.61525583,16.586498260498047,0.7848776578903198,-2.0928971767425537,-58.20387268066406,303.78497314453125, 56.352813720703125
575,3403336394,0.36606196,-0.53553283,-0.41136816,-0.64029706,17.43796157836914,0.6845406293869019,-2.0827488899230957,-65.31609344482422,296.1794738769531, 62.34975051879883
576,3403353061,0.38341042,-0.5159532,-0.38248953,-0.6636952,17.617595672607422,0.9413642287254333,-1.9315425157546997,-78.7299575805664,285.1855773925781, 66.21597290039062
577,3403369728,0.39801276,-0.49834126,-0.3509634,-0.68561465,17.487459182739258,-0.24085068702697754,-2.440413475036621,-101.8876953125,271.1144714355469, 72.10211181640625
578,3403386395,0.4109726,-0.48311907,-0.31829432,-0.70454735,17.476268768310547,0.074811190366745,-2.6040122509002686,-112.28636169433594,249.2485809326172, 82.1214828491211
579,3403403062,0.42107093,-0.47035846,-0.28318974,-0.721988,17.069486618041992,0.6699231863021851,-3.628574848175049,-137.34877014160156,233.52561950683594, 85.87491607666016
580,3403419729,0.4326886,-0.4564786,-0.25581917,-0.73414266,15.204950332641602,1.7306103706359863,-5.117305755615234,-80.53343963623047,203.12890625, 81.53106689453125
581,3403436396,0.4440187,-0.4422579,-0.23803528,-0.7420211,12.692633628845215,3.247709035873413,-8.096613883972168,-24.566089630126953,162.9996795654297, 62.23667907714844
582,3403453063,0.4526048,-0.4315197,-0.22944677,-0.74585176,10.656706809997559,4.5445637702941895,-10.178781509399414,9.898791313171387,101.01329803466797, 38.54182052612305
583,3403469730,0.45586002,-0.42801034,-0.22658871,-0.74676454,10.227876663208008,4.918002128601074,-10.510798454284668,5.451767444610596,29.72096824645996, 14.923700332641602
584,3403486397,0.45467243,-0.42991874,-0.2288381,-0.7457055,10.421764373779297,4.8348069190979,-8.781006813049316,4.563216209411621,-26.16389274597168, -8.070584297180176
585,3403503064,0.44969052,-0.4356196,-0.23385076,-0.7438607,10.938436508178711,4.278906345367432,-7.135347366333008,-3.2311837673187256,-61.95557403564453, -27.06472396850586
586,3403519731,0.44142082,-0.44455647,-0.23954138,-0.74171305,11.392404556274414,3.617586135864258,-6.274792671203613,-19.242971420288086,-86.2835922241211, -39.59691619873047
587,3403536398,0.4304723,-0.4559492,-0.24527805,-0.7393534,11.615148544311523,3.3144278526306152,-5.679401874542236,-34.40743637084961,-103.54585266113281, -48.56601333618164
588,3403553065,0.41764146,-0.4687923,-0.25115082,-0.7367046,11.776415824890137,3.9337985515594482,-5.5534186363220215,-43.51361083984375,-114.98780822753906, -55.12169647216797
589,3403569732,0.4037305,-0.48225352,-0.25700298,-0.7337462,11.677050590515137,4.136966705322266,-5.674404621124268,-48.44722366333008,-120.54020690917969, -58.41571807861328
590,3403586399,0.3891876,-0.4958709,-0.26289573,-0.73043257,11.689733505249023,4.834746360778809,-5.392370700836182,-50.2402458190918,-123.38294219970703, -60.3112678527832
591,3403603066,0.37388802,-0.50938404,-0.2680988,-0.7272274,12.901857376098633,3.9906632900238037,1.5738035440444946,-56.29632568359375,-121.70249938964844, -62.05004119873047
592,3403619733,0.36540312,-0.51682085,-0.2738068,-0.7241599,12.256732940673828,-6.472851753234863,15.721365928649902,-14.605551719665527,-79.51451110839844, -41.15875244140625
593,3403636400,0.35443053,-0.5257145,-0.2759343,-0.7224017,15.584893226623535,-1.9268484115600586,0.4605390429496765,-47.30792999267578,-78.27360534667969, -41.592430114746094
594,3403653067,0.34536368,-0.53470325,-0.2849443,-0.71667564,17.744142532348633,-1.0730814933776855,-2.383903741836548,1.0726659297943115,-106.13365936279297, -47.21793746948242
595,3403669734,0.33712846,-0.5432869,-0.2983051,-0.70865965,13.3694429397583,-0.19710753858089447,0.4684334397315979,31.002973556518555,-121.05010223388672, -54.52275848388672
596,3403686401,0.3270729,-0.55280733,-0.31063986,-0.7006647,11.146505355834961,-0.3232685327529907,1.2574741840362549,16.967445373535156,-126.84432220458984, -57.71656036376953
597,3403703068,0.3171769,-0.5625664,-0.32142904,-0.69253296,8.712398529052734,-0.40431538224220276,2.281827688217163,9.854047775268555,-124.71734619140625, -50.289947509765625
598,3403719735,0.30865625,-0.57109797,-0.33005476,-0.6853052,8.176643371582031,2.238093137741089,3.0516393184661865,5.549564361572266,-107.69718170166016, -40.08796691894531
599,3403736402,0.3009021,-0.57798064,-0.3367247,-0.67971593,9.730481147766113,4.183516025543213,1.65388023853302,-0.8649810552597046,-87.71318054199219, -35.9604377746582
600,3403753069,0.29418963,-0.5836403,-0.342874,-0.67472565,10.74865436553955,4.054520130157471,-0.9821239709854126,1.943314790725708,-76.19058990478516, -32.991512298583984
601,3403769736,0.29079247,-0.58838975,-0.35048702,-0.6681295,10.427998542785645,0.4022665321826935,-1.6300193071365356,27.65535545349121,-73.5277099609375, -22.293256759643555
602,3403786403,0.28973654,-0.59190875,-0.35856095,-0.66115946,10.296143531799316,0.7439825534820557,-0.6442992687225342,42.6008415222168,-64.63196563720703, -15.659232139587402
603,3403803070,0.2888545,-0.5950381,-0.3659972,-0.65462947,10.893529891967773,-0.46700382232666016,-0.7211359143257141,40.09059143066406,-59.37911605834961, -14.14239501953125
604,3403819737,0.28900263,-0.5974735,-0.37383825,-0.6478801,11.216614723205566,-0.9426590800285339,-0.3603382110595703,48.057334899902344,-55.37933349609375, -12.545344352722168
605,3403836404,0.29124647,-0.5992664,-0.38276458,-0.639959,11.577713966369629,-2.14237642288208,0.07447142899036407,65.80359649658203,-54.13188552856445, -7.0836310386657715
606,3403853071,0.2962734,-0.60059404,-0.39387098,-0.6295836,11.771974563598633,-1.7510747909545898,-0.4077548384666443,94.25736999511719,-59.300987243652344, -0.2632203698158264
607,3403869738,0.30240554,-0.60222256,-0.40692398,-0.6166788,11.5768461227417,0.12237827479839325,0.5353306531906128,113.48616027832031,-72.0755615234375, 2.3291819095611572
608,3403886405,0.30741563,-0.60463005,-0.41973522,-0.60310984,10.798677444458008,1.0496494770050049,2.366492509841919,108.06915283203125,-80.85494995117188, 2.076061487197876
609,3403903072,0.31033003,-0.60785663,-0.4310371,-0.59026587,10.087777137756348,0.942866861820221,2.623229503631592,89.27716827392578,-84.24948120117188, 0.47809281945228577
610,3403919739,0.31147853,-0.61179084,-0.44163767,-0.5776246,9.940872192382812,0.22995507717132568,1.9654791355133057,76.95391845703125,-90.1714096069336, -2.0998713970184326
611,3403936406,0.31178287,-0.61591834,-0.45252475,-0.5644985,9.966948509216309,-0.0018578432500362396,1.9035276174545288,75.60417175292969,-96.29627227783203, -5.053691387176514
612,3403953073,0.30985042,-0.62042093,-0.46302128,-0.55198103,10.2472562789917,1.1208553314208984,1.8881025314331055,61.92752456665039,-101.4348373413086, -12.24314022064209
613,3403969740,0.30519134,-0.6257341,-0.4724571,-0.5404631,10.39011001586914,1.0263774394989014,1.8478503227233887,41.3724250793457,-106.80854034423828, -17.603492736816406
614,3403986407,0.29588878,-0.6324262,-0.48023677,-0.53090537,10.823712348937988,1.9750103950500488,1.6014291048049927,5.989897727966309,-115.24911499023438, -27.35626983642578
615,3404003074,0.2827674,-0.6402967,-0.48629802,-0.52304685,11.157761573791504,0.15343578159809113,1.4062646627426147,-24.880659103393555,-121.41024780273438, -33.35849380493164
616,3404019741,0.26840892,-0.64844114,-0.4917903,-0.5153872,11.493053436279297,-0.6778374314308167,0.9772732853889465,-33.56629180908203,-124.68655395507812, -34.7996711730957
617,3404036408,0.25496438,-0.656203,-0.49783337,-0.5065113,11.942859649658203,-1.6764938831329346,-0.1979224979877472,-22.730871200561523,-126.8076171875, -33.120784759521484
618,3404053075,0.24354708,-0.6631846,-0.5050575,-0.49577102,12.054285049438477,-1.136584758758545,0.1806146651506424,-1.7386445999145508,-127.73945617675781, -30.877540588378906
619,3404069742,0.23340845,-0.669594,-0.5130111,-0.4837199,12.957406044006348,-0.4259271025657654,-0.04629303514957428,12.08043384552002,-128.67654418945312, -29.708126068115234
620,3404086409,0.22326018,-0.6756027,-0.5214166,-0.4710007,13.030411720275879,0.10681410878896713,1.5558711290359497,16.522584915161133,-131.32513427734375, -32.21057891845703
621,3404103076,0.21254371,-0.68143994,-0.5295959,-0.45825103,13.231330871582031,-0.12658190727233887,2.413666248321533,13.527961730957031,-132.79893493652344, -33.60460662841797
622,3404119743,0.20275053,-0.68685806,-0.53763247,-0.4450515,13.611828804016113,-1.5337251424789429,2.912200927734375,19.671329498291016,-130.24169921875, -30.946067810058594
623,3404136410,0.19550437,-0.6913988,-0.5466291,-0.43005028,13.843620300292969,-1.081702709197998,3.4165055751800537,42.51944351196289,-128.24232482910156, -28.50082015991211
624,3404153077,0.19002524,-0.6953751,-0.55549085,-0.41445705,13.305085182189941,-0.14127837121486664,4.6239166259765625,53.50436019897461,-122.8442611694336, -24.01510238647461
625,3404169744,0.18572788,-0.6983954,-0.56201124,-0.40235963,12.104602813720703,2.1858294010162354,8.242128372192383,40.40727233886719,-96.12864685058594, -17.699996948242188
626,3404186411,0.18060502,-0.70009583,-0.56965375,-0.39082357,9.757938385009766,6.948003768920898,-0.78590327501297,39.155094146728516,-94.76435089111328, -31.157814025878906
627,3404203078,0.17277502,-0.7033139,-0.578577,-0.37516427,15.27841854095459,8.641308784484863,-7.037506103515625,43.94874954223633,-130.9739532470703, -33.38090515136719
628,3404219745,0.1632007,-0.7067165,-0.58563656,-0.36186773,15.667068481445312,6.904079437255859,-2.5165793895721436,21.20043182373047,-124.8056411743164, -30.79751205444336
629,3404236412,0.15432563,-0.7097326,-0.5891902,-0.3540047,13.246402740478516,4.869076251983643,9.980133056640625,-5.451534748077393,-90.86610412597656, -19.609039306640625
630,3404253079,0.14825575,-0.71263343,-0.5874302,-0.35369563,7.55325174331665,-2.017387628555298,8.137612342834473,-35.02587127685547,-37.12117385864258, 4.6664276123046875
631,3404269746,0.14975551,-0.71399283,-0.58598363,-0.35272032,8.241209030151367,2.142690658569336,3.878338098526001,7.077725887298584,-6.607187747955322, 15.896904945373535
632,3404286413,0.15211599,-0.7142452,-0.5818717,-0.3579678,7.960978984832764,2.920069932937622,3.5835676193237305,-19.053028106689453,32.69559860229492, 20.207931518554688
633,3404303080,0.1585227,-0.71285725,-0.5758639,-0.3675419,6.192958831787109,0.8081502318382263,3.7286996841430664,-19.40227699279785,76.03005981445312, 28.416852951049805
634,3404319747,0.1699602,-0.70913297,-0.5683236,-0.38112122,5.708574295043945,0.2736964225769043,3.6514716148376465,-11.914813041687012,123.08211517333984, 35.016056060791016
635,3404336414,0.1858419,-0.7025755,-0.5598958,-0.39795503,5.892732620239258,-0.3466951847076416,3.6155850887298584,-1.9796631336212158,164.72491455078125, 36.12415313720703
636,3404353081,0.2031716,-0.6929163,-0.5504286,-0.41906813,7.058151721954346,1.2088552713394165,2.5948307514190674,-10.345176696777344,200.73892211914062, 27.704187393188477
637,3404369748,0.21989863,-0.68083376,-0.53870386,-0.4448705,8.83303165435791,1.2472903728485107,0.6250308752059937,-34.058921813964844,230.9077911376953, 21.023664474487305
638,3404386415,0.23759024,-0.6663841,-0.52511483,-0.47301048,10.644922256469727,-0.2362934798002243,-0.1079743504524231,-40.30570983886719,255.4901123046875, 20.405540466308594
639,3404403082,0.25649884,-0.64983636,-0.50995165,-0.5018682,11.587512969970703,-0.6949974894523621,-0.2988182008266449,-39.0081787109375,272.5829772949219, 22.79197883605957
640,3404419749,0.27496606,-0.6319777,-0.49188212,-0.5320257,12.92270565032959,-0.17838270962238312,-1.352927327156067,-53.260704040527344,286.5254211425781, 27.314132690429688
641,3404436416,0.29425058,-0.61315143,-0.47180468,-0.56112725,14.376118659973145,-0.6921642422676086,-2.4388439655303955,-51.645103454589844,292.1080627441406, 37.70393753051758
642,3404453083,0.31454474,-0.5930358,-0.45067927,-0.5884387,14.906865119934082,0.4595218002796173,-1.4478676319122314,-43.02848434448242,295.04815673828125, 45.40403366088867
643,3404469750,0.33397737,-0.5724321,-0.42725086,-0.6150113,14.975683212280273,0.6374971270561218,-1.7510764598846436,-52.52340316772461,296.44036865234375, 51.376251220703125
644,3404486417,0.35433257,-0.55086446,-0.40298423,-0.6392199,16.186939239501953,0.043455321341753006,-1.7376726865768433,-43.28123092651367,296.0069580078125, 61.16905212402344
645,3404503084,0.37504083,-0.52847147,-0.37839052,-0.66097236,16.898670196533203,0.47816744446754456,-1.8110123872756958,-34.566650390625,292.295654296875, 67.64856719970703
646,3404519751,0.39397502,-0.50634944,-0.35202944,-0.6815209,17.475309371948242,0.8096611499786377,-1.7873692512512207,-46.6552848815918,286.8537292480469, 69.82234191894531
647,3404536418,0.40994495,-0.48589304,-0.3233753,-0.70091593,17.549394607543945,0.6603710651397705,-2.465129852294922,-69.47035217285156,274.32806396484375, 71.08240509033203
648,3404553085,0.42213944,-0.4685177,-0.29215544,-0.7189828,17.1203670501709,0.5019928216934204,-2.7265000343322754,-100.1889419555664,254.19525146484375, 72.06004333496094
649,3404569752,0.4312862,-0.45423627,-0.2591694,-0.73518336,16.01966667175293,0.6136521100997925,-3.7135159969329834,-124.01383209228516,232.2418212890625, 74.3078842163086
650,3404586419,0.43994525,-0.4406326,-0.23175955,-0.7473823,13.81583023071289,1.295379400253296,-5.745389938354492,-92.22492980957031,199.2779083251953, 67.52690887451172
651,3404603086,0.4480186,-0.42763603,-0.2136524,-0.7554872,11.45760440826416,2.3839962482452393,-8.425396919250488,-41.53543472290039,155.072998046875, 49.744972229003906
652,3404619753,0.45351574,-0.41832027,-0.20467457,-0.75989586,9.690206527709961,4.004700183868408,-9.640130996704102,-7.614386558532715,93.60145568847656, 26.43258285522461
653,3404636420,0.45429158,-0.41590843,-0.20093527,-0.7617518,9.47337532043457,4.171982288360596,-9.422544479370117,-11.843454360961914,27.636470794677734, 4.49973726272583
654,3404653087,0.45145047,-0.41881263,-0.20127748,-0.7617593,10.076690673828125,3.913134813308716,-7.966032981872559,-14.938986778259277,-22.82964324951172, -12.868321418762207
655,3404669754,0.4462813,-0.4247453,-0.20464113,-0.7606234,10.725664138793945,3.0484812259674072,-6.73642635345459,-13.717756271362305,-54.21836853027344, -25.90479850769043
656,3404686421,0.43967345,-0.43264785,-0.21019617,-0.7585,10.957231521606445,2.8994386196136475,-6.203850746154785,-11.172226905822754,-75.82307434082031, -33.92348861694336
657,3404703088,0.4318133,-0.44210193,-0.2171481,-0.7556,10.926589965820312,3.169590711593628,-6.054267883300781,-11.248143196105957,-91.95207214355469, -39.9296760559082
658,3404719755,0.42312822,-0.4527247,-0.22559306,-0.7517394,10.908930778503418,4.108785629272461,-6.019228935241699,-8.106877326965332,-106.32071685791016, -44.06245422363281
659,3404736422,0.4135943,-0.46422544,-0.23482004,-0.7471918,11.315852165222168,4.94021463394165,-5.787246227264404,-8.274003982543945,-116.31935119628906, -47.40620040893555
660,3404753089,0.4022321,-0.47668254,-0.24436437,-0.7424759,12.083630561828613,7.202205181121826,-5.877608776092529,-15.025864601135254,-125.37026977539062, -55.65449142456055
661,3404769756,0.3920787,-0.48845625,-0.25273106,-0.73743695,15.608843803405762,-3.0184059143066406,9.465127944946289,-14.753673553466797,-117.40019226074219, -45.6806755065918
662,3404786423,0.3851167,-0.49652302,-0.26250315,-0.7322867,14.55508041381836,-3.0295121669769287,8.767528533935547,13.314403533935547,-97.36736297607422, -40.43906021118164
663,3404803090,0.37238264,-0.509055,-0.27004147,-0.72751164,17.377893447875977,-0.2369292676448822,-2.0867156982421875,-30.109588623046875,-123.22731018066406, -54.89213943481445
664,3404819757,0.36116186,-0.5207118,-0.28307733,-0.71992373,15.331151962280273,-0.8462917804718018,0.03230077028274536,10.131975173950195,-139.7900390625, -60.99098587036133
665,3404836424,0.35075432,-0.53192157,-0.29763237,-0.71094817,11.436257362365723,-0.3465385138988495,0.4954058527946472,24.370349884033203,-144.66177368164062, -59.870262145996094
666,3404853091,0.34057713,-0.5430962,-0.31029433,-0.7019777,9.074644088745117,0.17607244849205017,1.23801589012146,16.01986312866211,-139.423583984375, -51.93952178955078
667,3404869758,0.33105776,-0.5530978,-0.32030788,-0.6941814,7.483499526977539,2.765001058578491,2.1875791549682617,5.912171840667725,-121.81283569335938, -44.1444206237793
668,3404886425,0.3216545,-0.56144756,-0.32838446,-0.688099,8.91200065612793,6.400056838989258,-0.7328864932060242,-2.9201812744140625,-102.8322982788086, -43.70198440551758
669,3404903092,0.3133277,-0.5697322,-0.3369274,-0.68096435,11.538483619689941,2.349684953689575,-3.1890504360198975,5.919888019561768,-105.17987060546875, -38.074317932128906
670,3404919759,0.31058875,-0.57640636,-0.34846503,-0.670719,10.270265579223633,-1.05465567111969,-1.717813491821289,52.485984802246094,-103.24678802490234, -20.65806007385254
671,3404936426,0.30990836,-0.5813569,-0.3593518,-0.6609454,10.1870698928833,0.5394575595855713,-0.6430085301399231,60.198848724365234,-87.08013916015625, -13.8232421875
672,3404953093,0.30834365,-0.585306,-0.36793306,-0.6534277,11.14011287689209,0.945728600025177,-0.42901232838630676,42.76519012451172,-70.79694366455078, -15.960951805114746
673,3404969760,0.30655926,-0.58835286,-0.37590203,-0.6469632,11.780242919921875,0.07269756495952606,-1.0864858627319336,38.3670654296875,-61.792572021484375, -19.039077758789062
674,3404986427,0.30677074,-0.59020615,-0.38515982,-0.63968885,12.362261772155762,-1.0248483419418335,-1.8546677827835083,56.80131912231445,-57.32896041870117, -16.82413101196289
675,3405003094,0.31008595,-0.5911106,-0.39511514,-0.63112634,12.528468132019043,-2.9881606101989746,-1.554457187652588,77.8731460571289,-51.6312370300293, -5.917907238006592
676,3405019761,0.31690735,-0.5914227,-0.4061534,-0.62034655,12.917195320129395,-0.958223283290863,-0.47696584463119507,104.1186294555664,-50.87260437011719, 7.826286315917969
677,3405036428,0.32354212,-0.5922597,-0.41530672,-0.6099759,12.505986213684082,0.7827776670455933,1.0679895877838135,93.05789184570312,-47.91590118408203, 15.138448715209961
678,3405053095,0.3301907,-0.59354776,-0.42319077,-0.59965485,11.85447883605957,1.3400797843933105,1.802932858467102,86.67233276367188,-46.85042953491211, 21.475679397583008
679,3405069762,0.33625436,-0.5952808,-0.43057758,-0.5892181,10.989775657653809,1.4027234315872192,2.4760541915893555,81.58537292480469,-49.86369323730469, 22.6132755279541
680,3405086429,0.3407424,-0.5977656,-0.43765524,-0.57881796,10.172618865966797,1.0712285041809082,2.4084789752960205,72.07220458984375,-56.86427688598633, 19.612733840942383
681,3405103096,0.34354073,-0.60103124,-0.44515803,-0.5679585,9.740945816040039,1.0889602899551392,2.359774351119995,66.3790512084961,-68.09475708007812, 14.5487642288208
682,3405119763,0.34300095,-0.6054604,-0.45254233,-0.5576512,9.305577278137207,1.9004020690917969,2.6992835998535156,47.713294982910156,-80.44542694091797, 4.250962734222412
683,3405136430,0.3379854,-0.61143124,-0.45915103,-0.5487253,9.183348655700684,2.0770609378814697,2.7265219688415527,18.181415557861328,-92.86566925048828, -8.111493110656738
684,3405153097,0.32909057,-0.61872184,-0.4653589,-0.54067105,9.521985054016113,1.6618589162826538,1.8000597953796387,-5.44655704498291,-105.65982055664062, -18.876365661621094
685,3405169764,0.3169253,-0.6270128,-0.47171047,-0.53282624,9.67150592803955,0.5502873063087463,1.3925721645355225,-21.750629425048828,-119.41899108886719, -28.884143829345703
686,3405186431,0.30206385,-0.63580567,-0.47819048,-0.5252083,9.73083782196045,-0.4322229325771332,1.5588756799697876,-34.7354736328125,-129.4398193359375, -38.180259704589844
