PacketCounter,SampleTimeFine,Quat_W,Quat_X,Quat_Y,Quat_Z,Acc_X,Acc_Y,Acc_Z,Gyr_X,Gyr_Y,Gyr_Z 
1,1945475762,0.91442955,0.11509186,-0.29641613,0.25041994,-0.01624811254441738,-0.07316245138645172,-0.0021944772452116013,-0.13578251004219055,-0.011839203536510468, -0.19767481088638306
2,1945492429,0.91961384,0.11520473,-0.27708703,0.25349805,5.012660503387451,1.197593092918396,8.092310905456543,6.523909568786621,128.52976989746094, 16.77324676513672
3,1945509096,0.9259163,0.115433276,-0.252161,0.25645468,3.969128370285034,1.558698058128357,9.260055541992188,13.245394706726074,137.2803497314453, 11.939314842224121
4,1945525763,0.93358725,0.11117737,-0.22162528,0.25872168,3.7503409385681152,1.493395447731018,9.200986862182617,-8.77711296081543,144.6321563720703, 10.814006805419922
5,1945542430,0.9404627,0.10390361,-0.19167364,0.26075932,3.6194071769714355,1.902403473854065,9.375486373901367,-22.719730377197266,152.7792205810547, 9.352530479431152
6,1945559097,0.9460166,0.09261945,-0.16613673,0.26243612,4.356935977935791,0.9408794641494751,7.326939105987549,-57.41748809814453,145.60023498535156, 14.431636810302734
7,1945575764,0.9496974,0.08336086,-0.14556013,0.26445845,4.934104919433594,-0.41443294286727905,4.888204097747803,-41.73224639892578,143.89785766601562, 11.88594913482666
8,1945592431,0.95202035,0.077994026,-0.12870194,0.26647717,3.3409957885742188,0.04137558117508888,6.974337577819824,-6.898409843444824,145.00457763671875, 3.8478190898895264
9,1945609098,0.9538009,0.07494458,-0.11152523,0.26871824,2.597687005996704,-0.8032889366149902,7.2894368171691895,14.68224811553955,142.6526336669922, 2.4361233711242676
10,1945625765,0.9549459,0.074015215,-0.0939489,0.27161348,2.252613067626953,-1.9425578117370605,6.751639366149902,38.108177185058594,137.0681610107422, 4.475722789764404
11,1945642432,0.9554802,0.075474925,-0.07680175,0.27470452,1.6559265851974487,-1.8868013620376587,6.23378849029541,63.116458892822266,126.87603759765625, 3.993866443634033
12,1945659099,0.9557192,0.07726022,-0.060677286,0.27739865,0.5854609608650208,-1.232380986213684,6.632630348205566,68.18077087402344,116.17754364013672, 2.2238433361053467
13,1945675766,0.95586044,0.07815954,-0.045383867,0.27957523,-0.17402228713035583,-0.6848076581954956,6.396164417266846,61.09348678588867,106.70693969726562, 1.0109678506851196
14,1945692433,0.956122,0.07682787,-0.031447485,0.28096125,-0.45903998613357544,0.050436269491910934,5.990922451019287,41.75740432739258,96.6324691772461, -1.4640021324157715
15,1945709100,0.95655465,0.0724706,-0.019310284,0.2817414,-0.8752223253250122,0.08022414147853851,6.325880527496338,14.666571617126465,86.94602966308594, -2.78033447265625
16,1945725767,0.95713484,0.06498405,-0.009439586,0.2821009,-1.124509572982788,-0.08467497676610947,6.004183292388916,-13.062192916870117,75.0185546875, -3.266646385192871
17,1945742434,0.9577435,0.056075092,-0.0017623688,0.28209898,-1.4360365867614746,-0.17978449165821075,4.60953950881958,-28.58708381652832,61.11681365966797, -3.9836578369140625
18,1945759101,0.95824736,0.048430845,0.0041940077,0.28177804,-1.7739875316619873,-0.29859983921051025,4.402801990509033,-25.29076385498047,45.621673583984375, -4.8305511474609375
19,1945775768,0.9585424,0.04330055,0.008820712,0.2815029,-1.9259016513824463,-0.8825086951255798,4.301809310913086,-12.561824798583984,30.566173553466797, -3.3469786643981934
20,1945792435,0.9585766,0.04204135,0.012508599,0.28143787,-2.0017197132110596,-1.2984800338745117,3.944082498550415,10.855143547058105,15.871614456176758, -0.7686253190040588
21,1945809102,0.9583669,0.044189673,0.014970907,0.28170243,-2.0296456813812256,-1.318501591682434,3.8579869270324707,31.083105087280273,0.55497145652771, 2.6876840591430664
22,1945825769,0.9580179,0.04842905,0.016077532,0.2821312,-2.463186502456665,-0.4950304329395294,4.384800910949707,42.2588996887207,-12.85536003112793, 4.818659782409668
23,1945842436,0.9575943,0.0542777,0.01580496,0.28251955,-2.3168394565582275,-0.4039616584777832,4.653904438018799,49.34542465209961,-25.79408073425293, 5.50706672668457
24,1945859103,0.95721734,0.060466606,0.014769816,0.28259677,-2.4773356914520264,0.43498241901397705,6.769277572631836,49.36164093017578,-31.937170028686523, 3.8243489265441895
25,1945875770,0.95682865,0.06553023,0.013207591,0.28286132,-2.50955867767334,-0.07378588616847992,7.362579345703125,39.79505920410156,-33.485103607177734, 5.312489986419678
26,1945892437,0.95626974,0.06937971,0.010002138,0.2839622,-2.0503721237182617,-2.5253241062164307,4.367938041687012,28.18039894104004,-41.811485290527344, 11.849577903747559
27,1945909104,0.95577925,0.06795171,-0.0012237657,0.28612474,-0.24315941333770752,-4.7043938636779785,-6.677676677703857,-21.154451370239258,-83.59911346435547, 21.94594955444336
28,1945925771,0.9555636,0.06724461,-0.021346001,0.28621835,11.177814483642578,-0.5855029821395874,-3.539311647415161,-32.717323303222656,-142.89141845703125, 11.234258651733398
29,1945942438,0.95326984,0.078809716,-0.04153881,0.28868726,5.509829044342041,0.15592613816261292,10.872710227966309,47.81364059448242,-158.18218994140625, 27.755817413330078
30,1945959105,0.95036334,0.090508305,-0.0630577,0.2909323,5.119149684906006,4.0352253913879395,8.0081787109375,45.81007766723633,-164.564697265625, 27.430667877197266
31,1945975772,0.94686425,0.10362113,-0.08493085,0.29239944,2.552346706390381,0.788414716720581,3.9506516456604004,51.662986755371094,-168.3375244140625, 22.899085998535156
32,1945992439,0.94312334,0.1177187,-0.1045452,0.29279855,1.7059423923492432,2.0494418144226074,5.883670806884766,61.268253326416016,-155.85015869140625, 13.995768547058105
33,1946009106,0.93944097,0.12883721,-0.121561386,0.29338455,2.350654363632202,0.14692269265651703,8.963881492614746,46.0873908996582,-132.97511291503906, 15.204025268554688
34,1946025773,0.93611866,0.13510425,-0.13791169,0.2939544,3.1937315464019775,-1.3415125608444214,9.951542854309082,15.845521926879883,-118.98695373535156, 17.664770126342773
35,1946042440,0.9328519,0.13935092,-0.15272398,0.29503298,3.809347629547119,-0.728874921798706,7.885446071624756,7.1212639808654785,-104.7603988647461, 20.900428771972656
36,1946059107,0.9299501,0.14032622,-0.16743037,0.29575112,4.358003616333008,0.6163554191589355,8.445220947265625,-14.137791633605957,-97.26480865478516, 20.8709774017334
37,1946075774,0.9267046,0.14081568,-0.182551,0.2967575,5.9679975509643555,1.3609474897384644,8.437567710876465,-19.31156349182129,-99.37491607666016, 25.08999252319336
38,1946092441,0.9231401,0.14201388,-0.19791076,0.29744914,5.819497108459473,0.8766733407974243,8.789276123046875,-17.723712921142578,-103.42656707763672, 24.154443740844727
39,1946109108,0.9197611,0.14339867,-0.21192281,0.29759875,5.730988025665283,2.059781789779663,7.843224048614502,-15.678535461425781,-95.89805603027344, 19.2818603515625
40,1946125775,0.91713506,0.1419591,-0.22548664,0.29642338,6.502671718597412,2.326834201812744,9.191368103027344,-35.70241928100586,-87.65819549560547, 13.274267196655273
41,1946142442,0.9150883,0.13857046,-0.23816904,0.2944273,6.934194564819336,1.0685555934906006,9.215569496154785,-48.15855407714844,-78.11610412597656, 9.161944389343262
42,1946159109,0.9135384,0.13476694,-0.24967733,0.29145613,6.843212604522705,1.2996617555618286,9.487927436828613,-50.47343444824219,-70.0401840209961, 1.593234896659851
43,1946175776,0.9135632,0.12911677,-0.26030144,0.2845602,6.685950756072998,1.339522361755371,9.54448127746582,-54.8942985534668,-59.3821907043457, -2.8776659965515137
44,1946192443,0.9128941,0.12298386,-0.26991683,0.2804362,6.677844524383545,0.6898435950279236,9.671744346618652,-63.09208297729492,-53.13499450683594, -3.7605206966400146
45,1946209110,0.9119733,0.11646351,-0.27920896,0.277098,6.977212429046631,0.6229258179664612,9.94212818145752,-69.1377944946289,-50.881507873535156, -6.4783759117126465
46,1946225777,0.9105787,0.11033201,-0.288643,0.27451524,6.979140758514404,-0.047769978642463684,9.413459777832031,-70.10652160644531,-53.108123779296875, -8.215166091918945
47,1946242444,0.9098276,0.10400961,-0.29824567,0.26915675,7.123207092285156,0.5197161436080933,11.007091522216797,-67.63688659667969,-53.77490997314453, -12.331130027770996
48,1946259111,0.9089078,0.0972081,-0.3082938,0.26342428,7.722162246704102,0.1346157193183899,10.906706809997559,-72.10734558105469,-56.303619384765625, -13.051895141601562
49,1946275778,0.90816575,0.08906185,-0.31715715,0.25829154,8.073063850402832,-0.8690294623374939,12.931510925292969,-77.21347045898438,-45.69084930419922, -7.568614482879639
50,1946292445,0.90769756,0.08011538,-0.32298878,0.25562683,7.182170867919922,-1.9222896099090576,12.75420093536377,-71.60182189941406,-23.249576568603516, 7.2383527755737305
51,1946309112,0.9055999,0.07592715,-0.33181947,0.25302136,3.6077160835266113,0.4027760922908783,6.4082159996032715,-46.134605407714844,-53.93744659423828, 1.5448509454727173
52,1946325779,0.90272933,0.0717888,-0.34511602,0.24661985,5.975874423980713,-0.6151768565177917,8.362677574157715,-61.867210388183594,-85.57804870605469, -18.51884651184082
53,1946342446,0.8991924,0.0695766,-0.358649,0.24079686,6.561375617980957,-2.675205707550049,8.151264190673828,-48.61267852783203,-91.60243225097656, -18.251285552978516
54,1946359113,0.8954021,0.069571115,-0.37121367,0.23582955,7.159986972808838,-1.7018139362335205,12.426790237426758,-31.116361618041992,-89.47818756103516, -18.463939666748047
55,1946375780,0.892192,0.06993793,-0.3815502,0.23134711,5.405210494995117,-2.1825318336486816,15.022245407104492,-24.25106430053711,-74.68470764160156, -18.43791389465332
56,1946392447,0.88937765,0.06962628,-0.39031774,0.22762129,5.406871318817139,-4.157153606414795,13.838027954101562,-24.120271682739258,-62.6511116027832, -13.409173011779785
57,1946409114,0.8868512,0.07154319,-0.3970126,0.22529453,6.047149181365967,-3.0255801677703857,11.965158462524414,-3.6121699810028076,-52.066226959228516, -12.303991317749023
58,1946425781,0.8850156,0.071093656,-0.4027455,0.22246167,6.100236892700195,-2.989638328552246,12.036293029785156,-18.267393112182617,-40.90927505493164, -10.481727600097656
59,1946442448,0.8839401,0.070069894,-0.406418,0.22037366,5.7633538246154785,-3.7628297805786133,12.846875190734863,-16.914798736572266,-25.03786849975586, -6.534257411956787
60,1946459115,0.8836616,0.06777149,-0.40852764,0.21829894,5.111990928649902,-2.789525270462036,13.434098243713379,-22.629961013793945,-11.399906158447266, -4.864823818206787
61,1946475782,0.8839909,0.06450207,-0.40954137,0.21604511,5.068747520446777,-2.927391529083252,11.08373737335205,-27.67388916015625,-1.6946303844451904, -4.6501898765563965
62,1946492449,0.88491684,0.06198984,-0.40917024,0.21368036,5.368180274963379,-2.8759095668792725,9.687397956848145,-21.59071922302246,7.225684642791748, -8.9605073928833
63,1946509116,0.8860679,0.05923938,-0.4083726,0.21120186,5.569916248321533,-2.409174919128418,9.039637565612793,-22.825702667236328,10.769342422485352, -9.495383262634277
64,1946525783,0.88703054,0.05655023,-0.40797925,0.20864385,5.568457126617432,-2.9551241397857666,7.838183403015137,-23.18783187866211,7.672616481781006, -9.710232734680176
65,1946542450,0.8876479,0.056964777,-0.40743467,0.20696183,6.015092372894287,-3.6505627632141113,6.914485454559326,-1.445197343826294,3.5396835803985596, -12.640348434448242
66,1946559117,0.8880823,0.058700956,-0.40685126,0.20575744,6.55943489074707,-2.898101568222046,7.81293249130249,8.098851203918457,1.6010961532592773, -13.191052436828613
67,1946575784,0.8885515,0.060162697,-0.40651616,0.20396437,7.7066874504089355,-2.3648877143859863,9.585257530212402,4.413949012756348,0.35120803117752075, -15.966190338134766
68,1946592451,0.88882345,0.06375748,-0.40632033,0.20206898,10.157687187194824,-4.0654425621032715,7.9577317237854,17.040863037109375,-4.081010818481445, -22.213224411010742
69,1946609118,0.8889095,0.07163523,-0.40554303,0.20060776,10.909363746643066,-3.954374313354492,7.391324996948242,45.3358154296875,-6.762287616729736, -31.533740997314453
70,1946625785,0.88871557,0.08025011,-0.40496907,0.19936086,10.048748016357422,-3.78179669380188,7.40064001083374,50.30990982055664,-9.648543357849121, -31.805755615234375
71,1946642452,0.8884261,0.08590885,-0.40488175,0.19846877,9.586071014404297,-4.0157575607299805,8.0023193359375,32.63357162475586,-8.612112045288086, -21.018640518188477
72,1946659119,0.88821304,0.08738792,-0.40519345,0.19813965,9.601639747619629,-4.519213676452637,8.947378158569336,8.095159530639648,-4.790703773498535, -5.829017162322998
73,1946675786,0.8882143,0.08714562,-0.40464088,0.1993666,9.885679244995117,-4.693274974822998,9.63611125946045,2.987036943435669,4.360083103179932, 7.638368606567383
74,1946692453,0.88864905,0.08701937,-0.4024093,0.20198339,10.070425987243652,-3.34848952293396,9.53254508972168,9.62354850769043,16.483844757080078, 14.183938026428223
75,1946709120,0.88940406,0.088658,-0.3981423,0.20635617,9.88451099395752,-2.2289986610412598,8.845598220825195,27.903465270996094,28.400739669799805, 18.367395401000977
76,1946725787,0.89038265,0.092140965,-0.39199227,0.21229884,9.327427864074707,-1.323946475982666,8.406408309936523,46.006587982177734,38.87074661254883, 21.465757369995117
77,1946742454,0.8915146,0.09704123,-0.38417548,0.2195313,8.762834548950195,-0.687205970287323,8.547406196594238,60.48167419433594,48.23931121826172, 24.282175064086914
78,1946759121,0.89298475,0.10218958,-0.37480402,0.22728306,8.403386116027832,0.11854155361652374,9.222997665405273,65.47759246826172,58.63151931762695, 25.2836856842041
79,1946775788,0.8950712,0.10651533,-0.36375147,0.23491934,8.212357521057129,0.7084826827049255,10.125297546386719,62.302608489990234,71.7341537475586, 24.577007293701172
80,1946792455,0.8979849,0.10861506,-0.3511375,0.24192697,7.769841194152832,1.185939073562622,10.162385940551758,48.923240661621094,86.52892303466797, 23.822269439697266
81,1946809122,0.9018176,0.1084052,-0.33661196,0.24832575,7.3301167488098145,1.5110582113265991,9.99896240234375,35.662742614746094,103.92118835449219, 22.710567474365234
82,1946825789,0.9064379,0.10603059,-0.3203943,0.25392044,6.805688858032227,1.3533114194869995,9.630021095275879,22.655866622924805,119.32268524169922, 20.152542114257812
83,1946842456,0.912171,0.10149144,-0.30274612,0.2568819,6.289758682250977,1.00757896900177,9.867194175720215,15.585404396057129,133.03640747070312, 18.771533966064453
84,1946859123,0.91820455,0.09420544,-0.28434536,0.25917903,6.207807540893555,1.0549875497817993,9.27095890045166,-2.185307502746582,142.7423553466797, 20.052223205566406
85,1946875790,0.92445755,0.08451373,-0.26479477,0.2609974,5.545447826385498,1.5688730478286743,9.38459300994873,-16.203676223754883,154.3485565185547, 22.262920379638672
86,1946892457,0.9305703,0.07277293,-0.2439708,0.26309985,5.0305023193359375,1.1834007501602173,9.04857349395752,-27.95756721496582,165.8401641845703, 26.379056930541992
87,1946909124,0.93590456,0.060819462,-0.22108528,0.26740423,4.126038074493408,2.1779205799102783,9.36938762664795,-30.404420852661133,179.01414489746094, 26.5140380859375
88,1946925791,0.94085383,0.047879755,-0.1975759,0.2710451,4.204867362976074,0.6878215670585632,8.74376106262207,-36.485382080078125,183.97767639160156, 24.200258255004883
89,1946942458,0.9449132,0.03551869,-0.17426394,0.27479038,4.739419460296631,-0.4621739685535431,7.048545837402344,-32.68063735961914,180.46034240722656, 25.810409545898438
90,1946959125,0.9483221,0.026122626,-0.15028067,0.2782421,4.342370986938477,-0.8476022481918335,5.947213172912598,-12.325613021850586,178.41220092773438, 21.407434463500977
91,1946975792,0.95129615,0.0206398,-0.124881096,0.28109518,3.1977014541625977,-0.1143466979265213,7.2578535079956055,15.381091117858887,179.65170288085938, 14.030376434326172
92,1946992459,0.95372,0.016460162,-0.09944428,0.28329894,2.910578489303589,-0.41480520367622375,7.071916580200195,23.500892639160156,176.8311309814453, 9.719902992248535
93,1947009126,0.9555578,0.013359342,-0.07450132,0.2849222,2.5215811729431152,-0.5051138997077942,6.599867343902588,29.291799545288086,171.0447998046875, 6.368716716766357
94,1947025793,0.95681226,0.010615832,-0.051330697,0.28594244,1.882716178894043,-0.6716265082359314,6.090350151062012,27.92259979248047,158.36424255371094, 3.5251481533050537
95,1947042460,0.95764333,0.009188234,-0.030082138,0.28623414,1.2195770740509033,-1.1829733848571777,5.1031494140625,32.58894729614258,142.94113159179688, -0.7604473829269409
96,1947059127,0.9580957,0.008374697,-0.010291994,0.28614068,0.6756508350372314,-1.3720799684524536,5.685888290405273,33.73081970214844,132.03250122070312, -2.5880634784698486
97,1947075794,0.9581831,0.00663785,0.007146752,0.28599018,0.009445764124393463,-1.093496561050415,4.905147552490234,23.066343307495117,118.32696533203125, -2.044407844543457
98,1947092461,0.9579517,0.0043865885,0.021597615,0.2860821,-1.0422145128250122,-1.0798217058181763,3.7674055099487305,13.82432746887207,99.66835021972656, 0.29111793637275696
99,1947109128,0.957584,0.0013898372,0.03245239,0.2863177,-1.66804838180542,-1.1307623386383057,3.1513724327087402,1.8414958715438843,77.44241333007812, 1.5058214664459229
100,1947125795,0.95720816,-0.0010017301,0.039738692,0.28665754,-1.9743051528930664,-0.82650226354599,2.366704225540161,-1.2044360637664795,52.718849182128906, 2.3818957805633545
101,1947142462,0.9569691,-0.00093675376,0.043908183,0.2868477,-2.268768310546875,-0.7539532780647278,1.7564420700073242,8.87086296081543,27.28455352783203, 1.7798638343811035
102,1947159129,0.9569021,0.002498734,0.04513717,0.28687087,-2.42834210395813,-0.8143564462661743,1.4153649806976318,25.306676864624023,1.191486120223999, 1.3418971300125122
103,1947175796,0.95694256,0.008662314,0.043893926,0.28680882,-2.369173288345337,-0.3046656847000122,2.6183574199676514,38.4122314453125,-20.53782081604004, 1.4615535736083984
104,1947192463,0.9569626,0.016542422,0.04098661,0.28682646,-2.775897264480591,-0.30418896675109863,4.273591041564941,46.399932861328125,-34.902427673339844, 2.6450741291046143
105,1947209130,0.95685434,0.026322529,0.037254464,0.28696546,-2.6340997219085693,-0.22918042540550232,5.399398326873779,57.25661087036133,-44.07390213012695, 4.329221248626709
106,1947225797,0.9566696,0.03552781,0.03270104,0.28714424,-2.392848491668701,0.1946781873703003,6.599400520324707,51.861412048339844,-48.356597900390625, 4.748711585998535
107,1947242464,0.95654404,0.043189444,0.02803502,0.28700617,-2.8396546840667725,1.3197386264801025,7.712846279144287,41.54024124145508,-46.173519134521484, 2.231466054916382
108,1947259131,0.956376,0.048696097,0.023081813,0.2871255,-2.517261266708374,0.46500587463378906,6.655735492706299,26.73946189880371,-43.77067565917969, 3.6820576190948486
109,1947275798,0.9558177,0.05278158,0.015536729,0.28876522,-2.5383334159851074,-4.486268997192383,0.15577054023742676,12.164902687072754,-57.4762077331543, 15.096827507019043
110,1947292465,0.9556126,0.051183525,-0.0018325016,0.29014057,5.3730621337890625,-4.51768159866333,-8.128032684326172,-44.686065673828125,-110.9334716796875, 15.613693237304688
111,1947309132,0.95443046,0.057848115,-0.02240375,0.29191527,9.632183074951172,-4.046701908111572,7.562560081481934,3.646223545074463,-148.1541748046875, 21.1791934967041
112,1947325799,0.95168173,0.076300375,-0.04020701,0.29472643,5.4806132316589355,3.122087001800537,11.402342796325684,87.45206451416016,-153.2152557373047, 28.155847549438477
113,1947342466,0.94906956,0.08769443,-0.061860286,0.29622653,3.9647536277770996,3.2705774307250977,7.260310649871826,32.95280838012695,-164.63917541503906, 23.246170043945312
114,1947359133,0.9454356,0.10294912,-0.08268734,0.29785243,2.2589151859283447,-0.560750424861908,2.9650979042053223,60.41790008544922,-167.40318298339844, 23.99871253967285
115,1947375800,0.94144017,0.1193333,-0.1007042,0.298846,1.3696995973587036,1.6863939762115479,5.122122764587402,73.42262268066406,-152.06715393066406, 17.975204467773438
116,1947392467,0.9378665,0.1304434,-0.11736374,0.29936138,2.396214246749878,0.9016581773757935,9.31471061706543,41.35245895385742,-132.55413818359375, 16.54785919189453
117,1947409134,0.9346863,0.13731097,-0.13312584,0.29964134,3.2253921031951904,-0.31983426213264465,9.06364917755127,15.305472373962402,-117.95036315917969, 16.83110809326172
118,1947425801,0.9316099,0.14293845,-0.14773762,0.29974222,3.533968925476074,0.43842628598213196,7.690090656280518,9.485095977783203,-108.08277893066406, 15.493626594543457
119,1947442468,0.9289797,0.14512153,-0.1626211,0.2991503,4.969323635101318,1.8230820894241333,8.204376220703125,-14.266814231872559,-102.94351959228516, 13.887251853942871
120,1947459135,0.92625165,0.14583771,-0.177591,0.29874906,6.780277252197266,1.8863595724105835,9.270867347717285,-23.525348663330078,-100.36245727539062, 17.02767562866211
121,1947475802,0.92369074,0.14452814,-0.19285761,0.2978475,6.2482380867004395,1.8922938108444214,9.564107894897461,-37.831214904785156,-98.32284545898438, 16.262439727783203
122,1947492469,0.92112345,0.14171015,-0.20879206,0.2964051,5.984053134918213,2.6256179809570312,8.633817672729492,-49.51332092285156,-99.99861145019531, 15.509675979614258
123,1947509136,0.91846967,0.13834919,-0.22479816,0.29451448,6.13613224029541,2.5635435581207275,8.732514381408691,-53.7135009765625,-99.90852355957031, 13.725534439086914
124,1947525803,0.91588503,0.13462892,-0.23992603,0.29234472,6.494888782501221,1.1285297870635986,9.520004272460938,-54.75233840942383,-93.81426239013672, 11.577035903930664
125,1947542470,0.91423464,0.13162135,-0.2540867,0.2868639,6.94708776473999,0.42329317331314087,9.991089820861816,-42.15648651123047,-88.34908294677734, 6.574228763580322
126,1947559137,0.9128188,0.12921208,-0.2664794,0.28116715,6.775388717651367,0.6467025876045227,9.769923210144043,-35.454437255859375,-78.54721069335938, 1.1748403310775757
127,1947575804,0.91179824,0.12520792,-0.27795503,0.27511492,6.704593658447266,0.5914663672447205,9.437169075012207,-44.539005279541016,-69.59318542480469, -0.300175279378891
128,1947592471,0.91067207,0.11979593,-0.28896952,0.26985568,7.258270740509033,-0.020233560353517532,9.549070358276367,-54.10771560668945,-64.2764663696289, 2.0309009552001953
129,1947609138,0.90909684,0.11492019,-0.29966918,0.26558387,7.016388416290283,-1.326076865196228,9.346977233886719,-50.33824157714844,-63.86503601074219, 3.912052869796753
130,1947625805,0.90697783,0.11133521,-0.30977973,0.26274037,7.55402135848999,-0.8602702021598816,10.392252922058105,-44.74808883666992,-63.205177307128906, 1.485548734664917
131,1947642472,0.90491813,0.107372686,-0.31995738,0.2592709,7.941511631011963,-0.46747398376464844,10.625967979431152,-48.5950927734375,-63.32119369506836, -1.6741091012954712
132,1947659139,0.9028686,0.10265105,-0.32997996,0.25574303,7.7856340408325195,-1.0331355333328247,10.649153709411621,-53.179351806640625,-61.0464973449707, -0.4981272518634796
133,1947675806,0.9008022,0.09752435,-0.33983088,0.25211045,6.741673469543457,-0.5470368266105652,10.633733749389648,-55.614112854003906,-59.405128479003906, -0.32467415928840637
134,1947692473,0.898911,0.09127195,-0.3496649,0.2477154,6.541668891906738,-0.38721492886543274,10.983732223510742,-64.46057891845703,-57.489349365234375, -2.728822946548462
135,1947709140,0.89731145,0.084197804,-0.3591165,0.24244244,6.538595199584961,-0.5065318942070007,11.045530319213867,-71.19037628173828,-53.6171989440918, -6.911422252655029
136,1947725807,0.8958952,0.07644316,-0.36834565,0.23632613,6.591641902923584,-0.6939293742179871,10.630661964416504,-77.21442413330078,-51.185001373291016, -10.866495132446289
137,1947742474,0.8944497,0.06908167,-0.3770591,0.2302479,5.985302925109863,-1.3417820930480957,10.890693664550781,-73.84803009033203,-48.73141098022461, -11.849701881408691
138,1947759141,0.89305156,0.061942186,-0.384873,0.22471094,5.9965643882751465,-2.2404274940490723,11.866313934326172,-69.67747497558594,-43.21070861816406, -9.605005264282227
139,1947775808,0.89125055,0.056651376,-0.3921579,0.22062509,6.591555118560791,-3.017961263656616,8.91665267944336,-53.49034118652344,-43.31588363647461, -5.204960346221924
140,1947792475,0.8885941,0.0542817,-0.4009961,0.21600148,7.345049858093262,-2.7186427116394043,5.810766696929932,-39.047279357910156,-59.784080505371094, -14.49360179901123
141,1947809142,0.885199,0.055244543,-0.41026548,0.21225677,6.585291862487793,-2.658642530441284,6.415329456329346,-16.615821838378906,-69.034912109375, -17.06611442565918
142,1947825809,0.8813579,0.056227457,-0.42094785,0.20700178,9.733536720275879,-2.4306070804595947,6.189795017242432,-22.637969970703125,-79.48096466064453, -25.138694763183594
143,1947842476,0.87822175,0.060952596,-0.42892328,0.20257449,5.220366477966309,-1.5974031686782837,10.927986145019531,6.020784378051758,-65.9955825805664, -33.00712203979492
144,1947859143,0.8764153,0.060339145,-0.4351767,0.19717222,5.022385597229004,-1.9311050176620483,11.837851524353027,-27.25661849975586,-44.725608825683594, -25.72352409362793
145,1947875810,0.875679,0.0569258,-0.43900645,0.19292334,6.359894752502441,-3.5285754203796387,12.298908233642578,-37.84001922607422,-22.73055648803711, -12.85993766784668
146,1947892477,0.87563443,0.05723526,-0.43974894,0.19133592,6.056461334228516,-3.282160520553589,11.701027870178223,-3.55574893951416,-6.023252010345459, -10.223109245300293
147,1947909144,0.875815,0.060481347,-0.43946722,0.19015472,5.525079250335693,-1.2884610891342163,9.914280891418457,16.6214542388916,-2.9420347213745117, -17.371658325195312
148,1947925811,0.8765565,0.059027366,-0.4398566,0.18625502,5.879903316497803,-1.5721921920776367,10.45572566986084,-21.01233673095703,-0.31095191836357117, -19.985519409179688
149,1947942478,0.87779015,0.05694455,-0.43910602,0.18283269,5.479809284210205,-2.742953062057495,9.456323623657227,-22.101787567138672,9.00851821899414, -16.29926300048828
150,1947959145,0.8788728,0.05560502,-0.43842632,0.17964725,6.503540992736816,-2.9513838291168213,7.43147611618042,-16.919132232666016,7.257136821746826, -16.91114044189453
151,1947975812,0.87979716,0.057129383,-0.43739644,0.17713794,6.941254615783691,-2.8824844360351562,7.317307472229004,2.9335875511169434,5.632262229919434, -21.410219192504883
152,1947992479,0.8805307,0.062220823,-0.43589455,0.17547205,7.549917221069336,-2.347961664199829,8.749212265014648,27.7125301361084,3.9194486141204834, -26.99774742126465
153,1948009146,0.88127625,0.06658344,-0.434522,0.17352152,8.620328903198242,-2.561555862426758,9.597735404968262,22.294214248657227,3.930407762527466, -26.4973087310791
154,1948025813,0.88203424,0.06961558,-0.43347928,0.17107132,10.371378898620605,-4.067511558532715,8.513973236083984,12.351700782775879,3.326669931411743, -25.420547485351562
155,1948042480,0.88283134,0.07701696,-0.43102023,0.16999683,12.038902282714844,-5.18515682220459,6.293104648590088,44.62808609008789,7.5858001708984375, -30.848928451538086
156,1948059147,0.88352215,0.089862816,-0.4265099,0.1714724,11.284502029418945,-4.799592971801758,6.162532806396484,87.73274230957031,14.791961669921875, -32.50643539428711
157,1948075814,0.88422567,0.1026833,-0.42096606,0.17432398,9.656181335449219,-2.5951480865478516,8.604671478271484,92.86567687988281,22.052907943725586, -24.76032066345215
158,1948092481,0.88490725,0.11009481,-0.41648728,0.17707905,9.767237663269043,-2.9214797019958496,8.262845993041992,58.45441818237305,21.93096923828125, -8.91828727722168
159,1948109148,0.8859124,0.11452635,-0.41128087,0.18135928,9.660575866699219,-3.5821800231933594,8.703716278076172,45.35307312011719,32.07704162597656, 7.934959411621094
160,1948125815,0.88716394,0.117416404,-0.4052103,0.18697178,9.66700553894043,-3.1208367347717285,9.111023902893066,40.645729064941406,41.010372161865234, 19.396221160888672
161,1948142482,0.888775,0.12048879,-0.39728042,0.19424155,9.882211685180664,-2.433574914932251,9.189464569091797,48.502464294433594,54.452999114990234, 27.01840591430664
162,1948159149,0.8910003,0.122208305,-0.38769543,0.20217817,9.41740608215332,-0.8016307950019836,9.417165756225586,43.777259826660156,68.6044921875, 32.5924186706543
163,1948175816,0.8937701,0.122360714,-0.37677014,0.21035048,9.188669204711914,-0.3166864812374115,9.160066604614258,36.208614349365234,80.6382827758789, 36.34983825683594
164,1948192483,0.8969829,0.121364,-0.36464363,0.21846597,8.834287643432617,0.23334816098213196,8.87807559967041,30.357776641845703,90.78373718261719, 37.350677490234375
165,1948209150,0.9005334,0.11980468,-0.35126573,0.2264928,8.481599807739258,0.2123379111289978,9.235488891601562,28.249528884887695,100.12735748291016, 36.692840576171875
166,1948225817,0.9044489,0.11729341,-0.33668536,0.23421678,8.102478981018066,0.9585918188095093,9.68787956237793,23.182971954345703,109.69194030761719, 35.584503173828125
167,1948242484,0.90888184,0.11275219,-0.32110193,0.24106927,7.45975399017334,1.3836148977279663,9.280672073364258,9.717330932617188,119.69320678710938, 33.25692367553711
168,1948259151,0.91372186,0.106628716,-0.30421364,0.24737976,6.959216594696045,1.6562857627868652,9.213269233703613,0.4500631093978882,130.95480346679688, 31.713951110839844
169,1948275818,0.9192919,0.09847485,-0.28646475,0.25128263,6.106010913848877,1.7188758850097656,9.102042198181152,-7.756409645080566,140.1842041015625, 30.363981246948242
170,1948292485,0.9247879,0.09050999,-0.26709014,0.25541753,5.506199836730957,1.9793165922164917,8.860323905944824,-6.2636637687683105,149.8993682861328, 27.305397033691406
171,1948309152,0.92983234,0.08380645,-0.24602449,0.26050097,5.025156497955322,1.666750431060791,9.217673301696777,2.009465217590332,157.91004943847656, 24.2298641204834
172,1948325819,0.93459374,0.076628275,-0.22415441,0.2653632,4.610531330108643,2.0418410301208496,9.649099349975586,1.2050976753234863,163.3520965576172, 25.670082092285156
173,1948342486,0.9387755,0.06663609,-0.20281309,0.27042076,5.142946243286133,2.208077907562256,8.478039741516113,-19.302160263061523,164.1863555908203, 29.091073989868164
174,1948359153,0.9425919,0.057202984,-0.1809703,0.2747691,5.443546295166016,2.1923129558563232,5.721683502197266,-15.630207061767578,165.5839385986328, 24.202932357788086
175,1948375820,0.946043,0.049905542,-0.15826863,0.27832198,4.560261249542236,1.112794041633606,6.506632328033447,-1.0586516857147217,166.42666625976562, 16.75993537902832
176,1948392487,0.9490755,0.04417454,-0.13508505,0.28116998,3.864652633666992,1.8623812198638916,7.956859588623047,9.40722942352295,165.92218017578125, 11.109346389770508
177,1948409154,0.9516768,0.037713382,-0.11258637,0.28322002,3.5790629386901855,1.3737343549728394,8.004663467407227,2.6685662269592285,162.254150390625, 7.6283111572265625
178,1948425821,0.95373994,0.0319111,-0.09067786,0.28484967,2.884460687637329,0.7758774757385254,7.468505382537842,5.618792533874512,156.61827087402344, 5.5713019371032715
179,1948442488,0.9552295,0.028472342,-0.069998376,0.28605294,1.9862191677093506,-0.03444751724600792,6.899326324462891,18.559955596923828,143.50604248046875, 2.6895384788513184
180,1948459155,0.95625633,0.028201671,-0.050458334,0.28676224,1.4097541570663452,-0.44478917121887207,5.902203559875488,36.98888397216797,129.48716735839844, -0.9537752866744995
181,1948475822,0.9569182,0.029336944,-0.03193518,0.28710178,0.524893581867218,-0.3268267810344696,5.9572834968566895,44.190616607666016,119.84214782714844, -2.9619593620300293
182,1948492489,0.95725447,0.02964094,-0.01526812,0.2873194,-0.16829365491867065,-0.3201139569282532,6.051401615142822,35.11370849609375,109.16693878173828, -2.5689191818237305
183,1948509156,0.9573153,0.028675321,-0.0013309268,0.28761655,-0.944313645362854,-0.5544408559799194,4.977381706237793,21.447429656982422,93.67364501953125, -0.8129990696907043
184,1948525823,0.9573426,0.026515704,0.009877107,0.28756678,-1.3403419256210327,-0.29913273453712463,4.975275039672852,8.218466758728027,77.96671295166016, -2.4805667400360107
185,1948542490,0.95737565,0.023504276,0.018897137,0.28726754,-1.5211671590805054,-0.7239450812339783,5.109521865844727,-1.6821777820587158,65.16120910644531, -3.7902884483337402
186,1948559157,0.9574081,0.021177167,0.026214078,0.28676486,-1.7411847114562988,-0.5964450240135193,4.3471550941467285,-0.4875040054321289,52.52418518066406, -4.7617926597595215
187,1948575824,0.95745265,0.020976763,0.03172589,0.28607315,-2.0667059421539307,-0.9891446828842163,3.3358476161956787,10.0066556930542,36.373817443847656, -5.380166530609131
188,1948592491,0.957468,0.023401998,0.03502074,0.28544927,-2.0435540676116943,-1.2970424890518188,2.4521214962005615,22.950178146362305,16.578794479370117, -3.9778811931610107
189,1948609158,0.95743203,0.028416866,0.03573006,0.28502607,-2.2213847637176514,-1.1910022497177124,2.217759132385254,34.920345306396484,-5.530305862426758, -1.510758876800537
190,1948625825,0.95730716,0.03477142,0.033823945,0.28497395,-2.4893739223480225,-1.118142008781433,3.3146121501922607,38.57307434082031,-25.333492279052734, 1.95334792137146
191,1948642492,0.9570645,0.041560106,0.02982422,0.28532615,-2.2776241302490234,-1.1012672185897827,4.624167442321777,37.2957763671875,-39.901302337646484, 5.455030918121338
192,1948659159,0.95656085,0.049564645,0.024403194,0.28625003,-2.3203787803649902,-1.726334571838379,4.552572250366211,42.50205993652344,-51.475284576416016, 10.389325141906738
193,1948675826,0.95568043,0.05605462,0.014594857,0.2886517,-1.756025791168213,-4.7054314613342285,-1.5108481645584106,23.84172248840332,-76.83853149414062, 22.096534729003906
194,1948692493,0.9552976,0.057293963,-0.005701217,0.28998533,7.265389442443848,-0.20317089557647705,-9.093987464904785,-31.436052322387695,-135.8394317626953, 17.5977840423584
195,1948709160,0.95356494,0.06684594,-0.029298432,0.29221123,8.709380149841309,-1.219970464706421,7.1920270919799805,17.113012313842773,-173.54428100585938, 27.08018684387207
196,1948725827,0.950633,0.08086777,-0.05211552,0.29502785,5.61562442779541,4.0130743980407715,9.225822448730469,48.7097053527832,-177.1042938232422, 32.050777435302734
197,1948742494,0.9472983,0.092626534,-0.07712531,0.29681328,3.7247607707977295,2.7522430419921875,4.521862983703613,29.218469619750977,-187.4230194091797, 28.135385513305664
198,1948759161,0.94326615,0.10659272,-0.099378735,0.29834718,1.064743161201477,1.1918333768844604,5.259394645690918,49.45512771606445,-174.4150848388672, 24.983470916748047
199,1948775828,0.939234,0.11893559,-0.1186635,0.29935414,0.9929250478744507,-0.4422589838504791,6.935791969299316,44.631595611572266,-152.23135375976562, 20.493227005004883
200,1948792495,0.9354077,0.12873583,-0.13579719,0.29999843,2.7514724731445312,-0.18486592173576355,8.426057815551758,32.21099090576172,-133.27601623535156, 18.025068283081055
201,1948809162,0.9319271,0.13427787,-0.15309744,0.30007112,3.7123665809631348,-0.7922707796096802,8.435408592224121,3.6786601543426514,-125.75618743896484, 17.734621047973633
202,1948825829,0.9287545,0.13652956,-0.17066485,0.29941353,3.8800578117370605,-0.1794356107711792,6.998719215393066,-18.952011108398438,-121.01760864257812, 16.093727111816406
203,1948842496,0.9257793,0.13615008,-0.18860924,0.29803112,5.123067855834961,1.1008673906326294,7.560271739959717,-37.53843688964844,-118.4317626953125, 14.472668647766113
204,1948859163,0.92300254,0.13325801,-0.20643638,0.2961298,5.832147598266602,0.15290012955665588,10.119454383850098,-54.1610107421875,-112.71587371826172, 13.90076732635498
205,1948875830,0.9193949,0.13329063,-0.22276127,0.29550695,6.707261085510254,0.7488411664962769,9.338130950927734,-29.937891006469727,-109.12540435791016, 18.152090072631836
206,1948892497,0.9154426,0.13560542,-0.2370892,0.2955755,6.67396354675293,2.0115604400634766,8.287242889404297,-10.077347755432129,-100.9860610961914, 17.87908172607422
207,1948909164,0.9114684,0.1374114,-0.250575,0.29589814,7.678208827972412,2.2964706420898438,8.716507911682129,-11.175475120544434,-94.39993286132812, 19.576290130615234
208,1948925831,0.90829515,0.13768457,-0.26378217,0.29404452,8.415098190307617,1.5758082866668701,9.300152778625488,-16.294286727905273,-88.54410552978516, 19.4498233795166
209,1948942498,0.9052873,0.13778062,-0.27566963,0.29236597,8.27813720703125,0.8240960836410522,9.482170104980469,-16.017162322998047,-79.81803894042969, 16.600753784179688
210,1948959165,0.9026043,0.13720663,-0.28640318,0.29060814,7.9153947830200195,1.2692444324493408,9.035552978515625,-20.377601623535156,-71.13851165771484, 12.380228996276855
211,1948975832,0.9006872,0.13279103,-0.29705018,0.28790686,7.883350849151611,1.245717167854309,9.49407958984375,-49.0168342590332,-62.694053649902344, 9.12441635131836
212,1948992499,0.8992202,0.1254908,-0.30755353,0.2847209,8.203737258911133,0.44593560695648193,9.377951622009277,-70.60636901855469,-55.95214080810547, 7.632221698760986
213,1949009166,0.89822185,0.11692301,-0.31774235,0.28029722,8.329401016235352,0.02686195820569992,9.405369758605957,-80.84671783447266,-51.58559036254883, 1.47913658618927
214,1949025833,0.8972328,0.11012827,-0.3273742,0.27508414,8.633451461791992,-0.2623753249645233,10.61411190032959,-70.54737091064453,-52.16233825683594, -7.733121395111084
215,1949042500,0.8964043,0.10504586,-0.33592647,0.26940304,9.468379974365234,0.20353545248508453,10.615510940551758,-59.1075553894043,-48.75102233886719, -15.598291397094727
216,1949059167,0.8956204,0.09842398,-0.34478408,0.2632509,9.090423583984375,0.07097544521093369,11.104447364807129,-70.29147338867188,-48.017364501953125, -14.793862342834473
217,1949075834,0.89458764,0.091796115,-0.35370243,0.25725737,7.707460403442383,-0.21060453355312347,10.414043426513672,-69.90422058105469,-48.89656448364258, -13.29758071899414
218,1949092501,0.89316505,0.08509493,-0.36279237,0.2517876,6.458558082580566,-1.6089297533035278,10.276046752929688,-69.14464569091797,-50.50809860229492, -9.09067153930664
219,1949109168,0.89157,0.07962242,-0.3712358,0.24687478,6.135645866394043,-1.2261579036712646,10.668963432312012,-58.957305908203125,-48.881038665771484, -8.84795093536377
220,1949125835,0.890225,0.07288696,-0.37877494,0.2423148,6.407164096832275,-2.1416962146759033,10.609277725219727,-64.38717651367188,-40.506893157958984, -4.403207778930664
221,1949142502,0.88875836,0.06674802,-0.38581705,0.23832421,6.393239974975586,-2.3083014488220215,9.412959098815918,-58.32667922973633,-38.62813186645508, -2.5680243968963623
222,1949159169,0.8868273,0.06029741,-0.39401162,0.23378743,7.268991947174072,-3.0801401138305664,8.077836990356445,-63.3169059753418,-46.74671936035156, -3.843858480453491
223,1949175836,0.8840811,0.057200566,-0.40264338,0.23023283,7.100059986114502,-3.096813440322876,7.998166561126709,-40.51046371459961,-56.63833236694336, -5.524548530578613
224,1949192503,0.8804543,0.05828075,-0.41218022,0.22696063,9.493366241455078,-2.666961908340454,6.120330810546875,-15.371530532836914,-71.12596893310547, -13.700090408325195
225,1949209170,0.8770173,0.06295149,-0.42030132,0.22410858,5.343024730682373,-2.0545756816864014,10.49959659576416,9.731804847717285,-67.3631591796875, -22.25106430053711
226,1949225837,0.87455046,0.06183906,-0.4268367,0.22169356,5.542129039764404,-2.9996142387390137,12.363652229309082,-21.845199584960938,-46.12324905395508, -5.137097358703613
227,1949242504,0.87318236,0.058762655,-0.4304896,0.22085853,5.998107433319092,-3.700132131576538,13.156733512878418,-25.06040382385254,-22.201644897460938, 7.138449192047119
228,1949259171,0.87265414,0.054653574,-0.43207934,0.22089648,5.577500820159912,-3.0084359645843506,13.028495788574219,-25.835542678833008,-5.73402214050293, 13.216659545898438
229,1949275838,0.87264323,0.050447416,-0.43248594,0.22114457,4.786761283874512,-2.0494773387908936,10.293758392333984,-24.170259475708008,2.7909083366394043, 13.448906898498535
230,1949292505,0.87295663,0.044981435,-0.43312457,0.21983314,5.5067572593688965,-2.417224884033203,8.97355842590332,-36.82822799682617,3.4889605045318604, 7.371813774108887
231,1949309172,0.8735366,0.03915019,-0.43307227,0.21874599,5.796127796173096,-3.2913894653320312,8.602952003479004,-37.370643615722656,8.883832931518555, 9.122966766357422
232,1949325839,0.87418574,0.035365228,-0.4329142,0.21710378,6.6083550453186035,-2.0763397216796875,6.843392848968506,-26.54240608215332,6.3552117347717285, -0.5287882685661316
233,1949342506,0.8753159,0.03097005,-0.43241104,0.21420515,6.173126220703125,-2.27797269821167,8.315871238708496,-33.52950668334961,10.428034782409668, -7.106135368347168
234,1949359173,0.87676615,0.02748543,-0.43128583,0.21099369,5.095513820648193,-2.5172624588012695,9.385894775390625,-28.10830307006836,13.600645065307617, -12.348109245300293
235,1949375840,0.87809306,0.025988387,-0.42994118,0.20839328,7.141539096832275,-2.5268075466156006,9.334059715270996,-13.949136734008789,11.588839530944824, -14.481780052185059
236,1949392507,0.8791389,0.026391163,-0.4291149,0.20561804,6.9757256507873535,-2.7829668521881104,7.959038257598877,-3.66086745262146,4.746700763702393, -20.697208404541016
237,1949409174,0.8802028,0.02973724,-0.4274926,0.20398317,7.0909199714660645,-2.9149067401885986,8.653428077697754,18.66653823852539,5.578432083129883, -22.699378967285156
238,1949425841,0.8811689,0.032952707,-0.42589256,0.20266043,7.927040100097656,-2.252197504043579,9.162899017333984,18.8353271484375,5.2939348220825195, -20.326457977294922
239,1949442508,0.88243014,0.0359098,-0.42373863,0.20117977,9.460540771484375,-3.506009340286255,8.234070777893066,17.54428482055664,9.738009452819824, -21.07525634765625
240,1949459175,0.8839696,0.042646684,-0.42006397,0.20081152,11.021485328674316,-4.759868621826172,6.672796249389648,45.84358215332031,14.817418098449707, -26.144695281982422
241,1949475842,0.885836,0.054166283,-0.41410884,0.20217526,10.62133502960205,-4.4426679611206055,6.537082195281982,83.12843322753906,23.644046783447266, -30.622657775878906
242,1949492509,0.88758403,0.06576489,-0.4074555,0.20457222,9.360505104064941,-3.1797962188720703,7.516342639923096,87.72478485107422,27.939002990722656, -24.708759307861328
243,1949509176,0.8890541,0.07449402,-0.4010207,0.2078842,9.192611694335938,-3.157806873321533,8.001799583435059,72.70865631103516,30.292255401611328, -10.619182586669922
244,1949525843,0.8903798,0.08068279,-0.39433634,0.21263391,9.518168449401855,-3.2159018516540527,9.42197036743164,61.68880081176758,35.779937744140625, 5.213168144226074
245,1949542510,0.89168626,0.085562125,-0.38714787,0.21838374,9.67012882232666,-2.6210222244262695,9.793282508850098,57.24846649169922,41.23033142089844, 14.586374282836914
246,1949559177,0.8932726,0.089964144,-0.37857217,0.22506423,9.67985725402832,-1.983979344367981,8.963326454162598,58.81612014770508,51.68863296508789, 20.304033279418945
247,1949575844,0.89553386,0.09213191,-0.36855698,0.23172523,9.30196475982666,-0.5208433866500854,8.8654146194458,46.934329986572266,65.72692108154297, 24.06792640686035
248,1949592511,0.8983573,0.09113259,-0.35790136,0.23781505,8.921330451965332,-0.056535493582487106,8.338464736938477,26.675518035888672,75.7833251953125, 27.331130981445312
249,1949609178,0.90151507,0.08820208,-0.34666634,0.24354352,8.753478050231934,-0.20279812812805176,8.175371170043945,14.601716995239258,83.15184783935547, 29.006959915161133
250,1949625845,0.90497524,0.08356738,-0.3348274,0.24885152,8.631434440612793,0.12602917850017548,9.301169395446777,3.8777260780334473,90.27284240722656, 29.646818161010742
251,1949642512,0.90874326,0.07722946,-0.322337,0.25361472,8.030247688293457,0.5066434144973755,9.481861114501953,-7.0408196449279785,97.66468048095703, 29.344877243041992
252,1949659179,0.91287404,0.07013047,-0.3083899,0.2581444,7.070958137512207,0.9348496794700623,10.074348449707031,-9.992243766784668,108.79134368896484, 28.250043869018555
253,1949675846,0.9173322,0.06118426,-0.29330155,0.26216862,6.164107322692871,0.48834145069122314,9.080474853515625,-20.844743728637695,119.65509033203125, 27.961807250976562
254,1949692513,0.92204523,0.05313562,-0.27608284,0.26605967,5.3370256423950195,0.7466745972633362,9.00573444366455,-11.752957344055176,131.92327880859375, 24.04249382019043
255,1949709180,0.92680764,0.045279965,-0.2575084,0.2695683,5.3362507820129395,0.4325929880142212,9.274656295776367,-8.845321655273438,140.09396362304688, 20.76692771911621
256,1949725847,0.93128633,0.037605923,-0.23801889,0.2732012,5.8235764503479,0.14262430369853973,8.237504005432129,-5.725975036621094,145.1180877685547, 21.57040786743164
257,1949742514,0.9355543,0.030510826,-0.21778303,0.27636528,5.127262592315674,0.7612057328224182,8.16560173034668,-1.3555182218551636,148.43128967285156, 17.911340713500977
258,1949759181,0.9396021,0.024917848,-0.19608736,0.27942252,3.9067647457122803,0.807906985282898,8.863452911376953,10.902140617370605,154.6924591064453, 15.193699836730957
259,1949775848,0.9433928,0.01813673,-0.17379922,0.28191334,3.374556064605713,0.867017924785614,9.17136001586914,3.567502498626709,160.3701171875, 13.626887321472168
260,1949792515,0.9469504,0.011046025,-0.1506486,0.2836687,3.2005698680877686,0.46280160546302795,8.251651763916016,2.297151565551758,166.197021484375, 9.66316032409668
261,1949809182,0.95005536,0.004700805,-0.12703778,0.2850162,3.7268669605255127,-0.8457515835762024,7.652050495147705,7.602506160736084,167.28431701660156, 7.162142276763916
262,1949825849,0.9526454,0.00096018874,-0.10347657,0.28593448,4.204102039337158,-1.5686227083206177,5.777126789093018,24.189495086669922,161.5136260986328, 3.158080816268921
263,1949842516,0.9547178,0.0014678284,-0.07960643,0.28666106,3.3553543090820312,-1.8469158411026,6.485428810119629,52.57550048828125,155.0280303955078, -0.037090692669153214
264,1949859183,0.9561622,0.0037578125,-0.057025865,0.2872069,2.0659337043762207,-1.637290358543396,6.681978702545166,61.7410774230957,142.86819458007812, -0.8790261149406433
265,1949875850,0.95696247,0.007082904,-0.035507116,0.28794503,1.219694972038269,-1.6307666301727295,6.733689308166504,66.628662109375,133.689208984375, 1.3474750518798828
266,1949892517,0.9572401,0.008149352,-0.016396169,0.2887145,0.375864714384079,-0.7484692335128784,6.706439971923828,47.12250900268555,122.24375915527344, 3.3208167552948
267,1949909184,0.9571661,0.006607491,0.00005497162,0.28946397,-0.09637586027383804,-0.7382112145423889,6.059476852416992,24.72660255432129,109.8848648071289, 4.38686466217041
268,1949925851,0.9569075,0.0040347367,0.014069201,0.29002425,-0.9453811049461365,-0.25439777970314026,5.3174848556518555,13.135618209838867,95.88494873046875, 3.6662659645080566
269,1949942518,0.9565742,0.0018724102,0.02579157,0.29033998,-1.1707042455673218,-0.7113486528396606,4.664351463317871,11.293416023254395,79.93477630615234, 2.3478994369506836
270,1949959185,0.9562741,0.00078104617,0.035738543,0.29027975,-1.6242414712905884,0.10397700220346451,4.652303695678711,14.89226245880127,66.05046081542969, 0.05609911307692528
271,1949975852,0.9559659,0.00039149914,0.04368791,0.29020828,-1.9420714378356934,0.1399591863155365,3.8771817684173584,15.500689506530762,51.434104919433594, 0.20757386088371277
272,1949992519,0.9557219,0.0008191957,0.049320277,0.29010755,-2.0920023918151855,0.49127906560897827,2.9308512210845947,16.23356056213379,34.45126724243164, 0.158178448677063
273,1950009186,0.9556013,0.0037916682,0.052707084,0.28988627,-2.0638561248779297,-0.13951309025287628,2.047938346862793,28.46848487854004,14.461923599243164, 0.007869531400501728
274,1950025853,0.9555688,0.009239008,0.053413752,0.2897413,-1.9001520872116089,-0.5100301504135132,1.8862379789352417,39.352516174316406,-8.22492504119873, 1.3150851726531982
275,1950042520,0.9556213,0.015937926,0.051741693,0.28958043,-2.1861023902893066,-0.024730827659368515,3.1564111709594727,42.860408782958984,-26.480974197387695, 1.6646544933319092
276,1950059187,0.9557207,0.02373168,0.048779827,0.28923243,-2.307213544845581,0.12914283573627472,5.279625415802002,47.54389190673828,-37.28623962402344, 0.8825160264968872
277,1950075854,0.95574534,0.030772492,0.04482255,0.28912792,-2.345648765563965,0.03965847194194794,6.734216213226318,40.54636001586914,-42.37482452392578, 2.548513650894165
278,1950092521,0.95558244,0.036591243,0.038884778,0.28984717,-1.507872462272644,-1.9625308513641357,4.2464494705200195,28.38051986694336,-52.83710479736328, 8.380117416381836
279,1950109188,0.9552248,0.03731683,0.025333649,0.29242313,-0.4648382365703583,-5.049219131469727,-6.588281631469727,-20.56210708618164,-92.25994873046875, 21.4966983795166
280,1950125855,0.9552741,0.03660668,0.0018893337,0.29344195,11.701042175292969,-0.305449515581131,-3.9166369438171387,-49.43376159667969,-154.86221313476562, 12.656272888183594
281,1950142522,0.95354027,0.049293395,-0.020221349,0.29651695,5.167442798614502,-0.5288575291633606,10.255640983581543,41.657779693603516,-171.7179718017578, 29.430622100830078
282,1950159189,0.95109934,0.062174864,-0.042776983,0.29952374,4.880696773529053,4.2750325202941895,8.4928617477417,42.31804275512695,-174.8056640625, 30.42583656311035
283,1950175856,0.9484016,0.07248948,-0.066634774,0.30139655,2.0415267944335938,1.5283937454223633,5.550536632537842,22.348295211791992,-178.3014373779297, 24.765838623046875
284,1950192523,0.94501424,0.08534666,-0.08767041,0.30327913,1.087316870689392,-0.037343040108680725,6.681473731994629,45.02232360839844,-165.39169311523438, 23.615245819091797
285,1950209190,0.9415256,0.09780529,-0.105784334,0.30458757,2.2066376209259033,-0.35838064551353455,7.149341106414795,48.25100326538086,-145.99285888671875, 18.550716400146484
286,1950225857,0.93830246,0.1065825,-0.12246825,0.30533615,3.649629592895508,0.31559672951698303,8.191164016723633,26.86939811706543,-129.17678833007812, 16.004764556884766
287,1950242524,0.93520033,0.11182398,-0.13846532,0.3061424,3.8334264755249023,-0.29707100987434387,8.341129302978516,5.470357418060303,-117.08885192871094, 18.518692016601562
288,1950259191,0.93216157,0.11517697,-0.15341066,0.3070416,4.229186058044434,-0.1528349220752716,8.068270683288574,-4.367452144622803,-106.14427947998047, 19.883142471313477
289,1950275858,0.92883974,0.11740718,-0.1694904,0.3078078,5.87347936630249,1.6117804050445557,9.333826065063477,-13.838767051696777,-111.36283111572266, 21.62359619140625
290,1950292525,0.9248547,0.11945662,-0.18737431,0.30865043,5.905710697174072,0.28848153352737427,9.852557182312012,-18.259868621826172,-123.07640075683594, 25.128963470458984
291,1950309192,0.9204775,0.121607326,-0.20502785,0.30967173,6.299861431121826,1.934539556503296,7.843502521514893,-16.56591796875,-122.08708190917969, 26.693161010742188
292,1950325859,0.9163775,0.122719616,-0.2218066,0.30982992,6.858900547027588,3.016727924346924,8.034571647644043,-22.845882415771484,-114.51484680175781, 21.35377311706543
293,1950342526,0.9129584,0.1212598,-0.23770879,0.30870375,7.385018348693848,2.2781689167022705,8.548260688781738,-39.918148040771484,-103.40116882324219, 15.037641525268555
294,1950359193,0.9099668,0.11831608,-0.25270158,0.3067634,7.68441104888916,0.8076098561286926,9.731992721557617,-49.1495246887207,-94.3821792602539, 10.732173919677734
295,1950375860,0.9070264,0.11716007,-0.26570603,0.3049213,7.983576774597168,0.42221468687057495,9.820696830749512,-33.72029495239258,-85.46080017089844, 6.5296854972839355
296,1950392527,0.904269,0.11586469,-0.2774987,0.30309692,7.891490936279297,0.3331547975540161,9.365691184997559,-32.231895446777344,-77.20189666748047, 5.551799297332764
297,1950409194,0.90180147,0.112666406,-0.2890897,0.30081192,7.550848007202148,1.0139973163604736,9.119813919067383,-44.82378387451172,-71.75336456298828, 5.581847190856934
298,1950425861,0.8993824,0.10834313,-0.30067122,0.2982781,7.63824987411499,0.5984457731246948,9.379749298095703,-52.42045974731445,-69.45511627197266, 6.233036994934082
299,1950442528,0.8969944,0.10319476,-0.31230187,0.29532957,8.249030113220215,-0.4635699391365051,10.027761459350586,-58.59218978881836,-68.32833862304688, 5.404901504516602
300,1950459195,0.8942848,0.10015385,-0.32323644,0.292818,8.597454071044922,-1.3270643949508667,9.91935920715332,-43.05799865722656,-68.72125244140625, 3.7580533027648926
301,1950475862,0.89178824,0.09738319,-0.3337287,0.2895786,9.312820434570312,-0.6183631420135498,10.989887237548828,-42.28512191772461,-66.5967025756836, -2.050494909286499
302,1950492529,0.8894926,0.09321983,-0.3444231,0.28545687,8.880851745605469,-0.4063926637172699,10.396503448486328,-53.43663787841797,-65.2365493774414, -4.497945785522461
303,1950509196,0.8876888,0.086541235,-0.35519326,0.2799233,8.273245811462402,0.7718968391418457,10.862102508544922,-72.6855697631836,-60.554176330566406, -8.049674034118652
304,1950525863,0.8862174,0.07665495,-0.36614317,0.27328038,7.80567741394043,0.2353498488664627,10.520187377929688,-95.61626434326172,-55.420955657958984, -7.437493801116943
305,1950542530,0.88503796,0.065774426,-0.37609366,0.2663367,7.224673271179199,-0.14052033424377441,10.948166847229004,-100.78400421142578,-46.9854621887207, -7.78192663192749
306,1950559197,0.8840683,0.05458336,-0.38542363,0.25863633,7.206160068511963,-1.1265480518341064,10.745565414428711,-103.65278625488281,-42.56928253173828, -12.20197582244873
307,1950575864,0.88307273,0.044644933,-0.39348394,0.25171402,6.399816036224365,-2.6751279830932617,11.797318458557129,-91.74330139160156,-36.96773910522461, -11.207687377929688
308,1950592531,0.88235587,0.036574356,-0.4000882,0.24503057,5.864822864532471,-2.448150157928467,11.797417640686035,-77.32208251953125,-30.690027236938477, -15.771328926086426
309,1950609198,0.8814408,0.029635642,-0.40644065,0.23872556,6.778955936431885,-3.7096526622772217,8.205609321594238,-68.95404815673828,-31.674715042114258, -16.341962814331055
310,1950625865,0.8796802,0.025064629,-0.41350776,0.23355031,7.2792816162109375,-3.901233196258545,5.100460529327393,-52.41854476928711,-42.04153823852539, -14.623546600341797
311,1950642532,0.8773002,0.023880733,-0.4209587,0.22927682,8.328585624694824,-1.9438121318817139,4.504880905151367,-29.83707046508789,-51.333152770996094, -17.775426864624023
312,1950659199,0.874492,0.026621878,-0.4275782,0.22744663,8.786201477050781,-5.367903232574463,7.505512237548828,2.2836594581604004,-53.24595642089844, -13.83670711517334
313,1950675866,0.87245685,0.031089367,-0.4316629,0.22697975,6.124371528625488,-2.4435529708862305,9.954235076904297,20.542001724243164,-38.170982360839844, -12.448001861572266
314,1950692533,0.8711636,0.03200124,-0.4346256,0.2261651,5.106917381286621,-3.2161731719970703,9.43708324432373,-0.25231125950813293,-23.876426696777344, -5.376309394836426
315,1950709200,0.86998445,0.031792797,-0.4369373,0.22627895,5.919421195983887,-4.145298480987549,8.831089973449707,-3.206495761871338,-17.798221588134766, 3.190788745880127
316,1950725867,0.869426,0.033439815,-0.43721238,0.22765267,5.258646488189697,-3.477273464202881,9.796774864196777,14.724916458129883,-6.431432247161865, 3.708895683288574
317,1950742534,0.8693514,0.031702794,-0.43747255,0.22768696,4.879563331604004,-2.7422337532043457,11.7345609664917,-9.620109558105469,0.0046551101841032505, 5.095821857452393
318,1950759201,0.86986846,0.028416041,-0.43666074,0.22770391,5.785991668701172,-2.6033854484558105,10.103250503540039,-17.40943145751953,10.479255676269531, 8.488863945007324
319,1950775868,0.87070084,0.025877679,-0.43527833,0.22747253,5.74314546585083,-2.7475695610046387,7.636330604553223,-12.863097190856934,13.550370216369629, 4.155672550201416
320,1950792535,0.8720775,0.023826962,-0.43284893,0.22705707,7.429215908050537,-2.710134267807007,8.288111686706543,-8.955613136291504,20.64344596862793, 0.5588893890380859
321,1950809202,0.8735145,0.022764517,-0.43013135,0.22680661,7.791377067565918,-3.6184043884277344,8.822134017944336,-2.102613687515259,21.043087005615234, -1.5228054523468018
322,1950825869,0.8748223,0.024052914,-0.42741328,0.22677207,10.124947547912598,-5.129756450653076,7.110935211181641,12.684805870056152,17.035091400146484, -6.981226921081543
323,1950842536,0.87661624,0.028461153,-0.42302915,0.22755326,11.268001556396484,-5.581997394561768,8.12467098236084,36.4091796875,23.829221725463867, -12.293647766113281
324,1950859203,0.8785963,0.035666,-0.4177424,0.22866541,10.009451866149902,-3.719313383102417,8.308165550231934,55.64970016479492,25.56657600402832, -18.920207977294922
325,1950875870,0.8805867,0.041555583,-0.4125183,0.22949754,10.119174003601074,-3.2187552452087402,7.026058197021484,46.815216064453125,27.255048751831055, -16.825571060180664
326,1950892537,0.8822528,0.046969667,-0.40695098,0.23198053,9.812259674072266,-2.8811213970184326,7.623740196228027,49.26673889160156,29.69853401184082, -5.054405212402344
327,1950909204,0.8835666,0.050511237,-0.40153107,0.23565152,9.819916725158691,-2.9187865257263184,8.239242553710938,41.117923736572266,31.232765197753906, 8.014629364013672
328,1950925871,0.8845677,0.054029424,-0.3954186,0.24138185,10.049348831176758,-3.0749216079711914,8.68199348449707,47.89871597290039,35.3609733581543, 20.86515998840332
329,1950942538,0.8854898,0.058162577,-0.3880623,0.24886307,9.923678398132324,-1.7356269359588623,8.598315238952637,58.50259780883789,42.36636734008789, 29.518814086914062
330,1950959205,0.8866114,0.06251577,-0.3792222,0.25729892,9.638235092163086,-0.5917849540710449,8.863308906555176,64.83914947509766,51.96379470825195, 33.83759307861328
331,1950975872,0.88810986,0.06590037,-0.3691522,0.26579142,9.245147705078125,0.8899768590927124,9.453079223632812,61.07038116455078,62.20143508911133, 35.555519104003906
332,1950992539,0.89008534,0.067300245,-0.3581975,0.27370295,8.828191757202148,1.6952333450317383,9.838924407958984,48.8287353515625,72.18697357177734, 35.832664489746094
333,1951009206,0.892746,0.065980084,-0.34627002,0.28062153,8.027563095092773,1.9884501695632935,10.4196138381958,31.19161605834961,84.49093627929688, 34.77891159057617
334,1951025873,0.8962232,0.06286505,-0.33299488,0.2862631,7.632155418395996,2.0025405883789062,10.552448272705078,19.301864624023438,97.58113861083984, 29.086620330810547
335,1951042540,0.9006024,0.05805036,-0.3179566,0.290602,7.132890701293945,1.8368573188781738,10.57502555847168,8.865748405456543,113.28490447998047, 22.466184616088867
336,1951059207,0.905804,0.050619107,-0.3015357,0.29331392,6.846972942352295,2.4436991214752197,9.907488822937012,-8.515381813049316,128.21636962890625, 15.959172248840332
337,1951075874,0.9114279,0.04243646,-0.28343782,0.29523134,6.77119255065918,1.6688694953918457,9.092059135437012,-11.672480583190918,140.7832794189453, 11.17761516571045
338,1951092541,0.91720074,0.034128435,-0.26393494,0.2965071,6.330307483673096,1.7326576709747314,8.947668075561523,-10.94902229309082,149.97293090820312, 6.716794967651367
339,1951109208,0.9229927,0.026152957,-0.24291545,0.2973089,5.84552526473999,1.3707959651947021,8.601324081420898,-6.674022197723389,158.812744140625, 2.753962755203247
340,1951125875,0.9285769,0.018354727,-0.2206328,0.29787454,5.193946361541748,0.8903387784957886,8.611202239990234,-3.365963935852051,166.11050415039062, 1.172131896018982
341,1951142542,0.93368673,0.010432449,-0.19741231,0.29857776,5.02277946472168,0.5718754529953003,8.112428665161133,-2.000213861465454,171.67958068847656, 3.098684072494507
342,1951159209,0.93845403,0.0041156565,-0.17335474,0.29872245,4.554964065551758,0.4172169864177704,7.83589506149292,9.268291473388672,173.29220581054688, -2.021543025970459
343,1951175876,0.9426887,0.00077418576,-0.14829496,0.29890835,4.283457279205322,-1.0808284282684326,7.727531433105469,30.571683883666992,173.0548858642578, -4.238096237182617
344,1951192543,0.94617105,-0.002010198,-0.12317247,0.2993076,4.3972487449646,-0.9111378788948059,8.21562671661377,34.54853057861328,171.59437561035156, -1.8874884843826294
345,1951209210,0.9490376,-0.0052172723,-0.09884608,0.2992154,4.71613073348999,-0.6709732413291931,6.827199459075928,29.746673583984375,166.8213348388672, -3.4808363914489746
346,1951225877,0.95130146,-0.00837858,-0.075690605,0.29870814,3.669330358505249,-0.6239440441131592,6.0543413162231445,27.343015670776367,158.76419067382812, -5.029270648956299
347,1951242544,0.9530813,-0.010431258,-0.053557448,0.29775682,2.023759126663208,-0.5240986347198486,7.04704475402832,32.24748992919922,149.63128662109375, -7.581756114959717
348,1951259211,0.95426285,-0.011438747,-0.03215487,0.2970151,1.5616549253463745,-1.090132474899292,7.202211856842041,37.64415740966797,142.49029541015625, -5.4291558265686035
349,1951275878,0.9549641,-0.011107154,-0.011448972,0.2962926,1.02815580368042,-1.4903013706207275,7.035354137420654,44.996822357177734,135.0945281982422, -4.681721210479736
350,1951292545,0.9553031,-0.008747228,0.007955269,0.29539222,0.4940020740032196,-2.379124402999878,6.442810535430908,55.6549186706543,122.41223907470703, -5.377114772796631
351,1951309212,0.9552123,-0.005166823,0.025844984,0.29474548,-0.26983436942100525,-2.14491868019104,5.674278259277344,60.61049270629883,109.99906921386719, -2.866323232650757
352,1951325879,0.95477724,-0.0042561344,0.041266564,0.294414,-1.4299273490905762,-0.7630120515823364,6.370052337646484,38.056461334228516,99.24053192138672, -0.66233229637146
353,1951342546,0.9540795,-0.0062467414,0.053630956,0.29464704,-1.4098249673843384,-0.5169233083724976,4.432345867156982,12.673013687133789,85.07118225097656, 2.664501190185547
354,1951359213,0.95326555,-0.010076684,0.06369404,0.29517177,-2.130307674407959,-0.28171592950820923,4.457661151885986,-4.153883457183838,73.70269775390625, 4.0385284423828125
355,1951375880,0.95235807,-0.013608982,0.071064465,0.2962748,-1.9937127828598022,-1.3672397136688232,2.3256680965423584,-7.919483184814453,55.408294677734375, 7.963620662689209
356,1951392547,0.95163137,-0.013767233,0.07624468,0.2973127,-2.43615984916687,-0.9874647855758667,0.9884440898895264,9.791889190673828,34.068729400634766, 8.617875099182129
357,1951409214,0.9511692,-0.009513432,0.07870713,0.29831514,-2.606616258621216,-1.2746989727020264,0.17784395813941956,33.16831588745117,7.076135635375977, 9.905607223510742
358,1951425881,0.95096,-0.0010495206,0.078265674,0.2992467,-2.272486925125122,-1.0314233303070068,0.5690163373947144,54.82717514038086,-20.743972778320312, 11.017549514770508
359,1951442548,0.95089555,0.010143511,0.07476072,0.30017626,-2.550481081008911,-0.3760565221309662,1.095069169998169,66.391845703125,-46.518680572509766, 12.159334182739258
360,1951459215,0.9506451,0.019539125,0.06542395,0.30267486,-2.157681465148926,-3.724137306213379,-2.469999313354492,41.8170280456543,-80.78800964355469, 22.288557052612305
361,1951475882,0.9511723,0.023069073,0.045428358,0.30442658,5.73164701461792,1.1420490741729736,-5.860644340515137,-18.392391204833984,-138.76205444335938, 14.587173461914062
362,1951492549,0.9511763,0.02630308,0.020121159,0.30686656,9.049874305725098,1.0435211658477783,8.17332649230957,-31.621532440185547,-172.4788055419922, 20.914268493652344
363,1951509216,0.94958353,0.03968265,-0.0037773072,0.3109697,5.814777374267578,1.6799321174621582,7.370831489562988,37.75312042236328,-183.91102600097656, 36.28774642944336
364,1951525883,0.94765913,0.052900773,-0.02908262,0.3135252,2.0659098625183105,3.8041248321533203,7.1001739501953125,33.71120834350586,-193.04042053222656, 27.259483337402344
365,1951542550,0.9450391,0.064086534,-0.05442228,0.31596267,1.424363136291504,-0.5981402397155762,4.4513044357299805,20.541086196899414,-189.0289764404297, 28.409500122070312
366,1951559217,0.941592,0.080578305,-0.07524886,0.31819695,1.2224087715148926,-0.8321084976196289,6.613842487335205,65.13804626464844,-171.61148071289062, 24.897756576538086
367,1951575884,0.93819743,0.09337988,-0.093864135,0.31977418,2.2723774909973145,0.2412165105342865,7.676417827606201,45.748329162597656,-149.55784606933594, 21.198612213134766
368,1951592551,0.9350832,0.1016596,-0.11050545,0.32105023,3.2494566440582275,-0.6634700894355774,7.403885841369629,20.55569076538086,-126.88345336914062, 20.27835464477539
369,1951609218,0.9321794,0.10619053,-0.12606716,0.3222923,3.7284035682678223,0.5407712459564209,7.9019646644592285,-1.3004415035247803,-111.50324249267578, 21.670114517211914
370,1951625885,0.92908025,0.1074771,-0.1422771,0.32406154,3.8957996368408203,-0.08580511063337326,8.484936714172363,-22.923477172851562,-108.2261962890625, 28.759492874145508
371,1951642552,0.92520106,0.10761082,-0.16102701,0.32633346,5.705377101898193,1.3629153966903687,9.482087135314941,-34.85613250732422,-122.25840759277344, 36.70035171508789
372,1951659219,0.92060584,0.11088868,-0.179313,0.3286875,6.279194355010986,0.3758684992790222,9.607061386108398,-13.203522682189941,-127.04792785644531, 35.00187301635742
373,1951675886,0.91624737,0.114954814,-0.19551867,0.3302252,6.787308692932129,2.569103479385376,7.839504718780518,-4.688203811645508,-115.94233703613281, 26.727275848388672
374,1951692553,0.9125395,0.116091765,-0.21064761,0.33079022,6.557383060455322,2.318645477294922,7.689253807067871,-22.564571380615234,-102.33201599121094, 22.224515914916992
375,1951709220,0.90971655,0.11377188,-0.22415476,0.33049455,6.948544025421143,1.6484606266021729,9.354541778564453,-42.5582389831543,-83.64183807373047, 18.5433292388916
376,1951725887,0.9074519,0.1094146,-0.23662041,0.32950053,7.339491844177246,0.23516547679901123,8.709365844726562,-54.47088623046875,-72.14598083496094, 15.249696731567383
377,1951742554,0.90536535,0.10571374,-0.24755421,0.3284131,7.273323059082031,-0.09809470921754837,9.218822479248047,-47.18307876586914,-63.805877685546875, 12.04699420928955
378,1951759221,0.90338874,0.101995714,-0.25831756,0.3267382,7.2636494636535645,0.5905397534370422,9.019099235534668,-47.97260665893555,-62.911651611328125, 8.05001449584961
379,1951775888,0.9016091,0.09741661,-0.26884627,0.3245504,7.360513210296631,0.6926334500312805,9.547322273254395,-53.8532600402832,-59.49931716918945, 5.799916744232178
380,1951792555,0.8997074,0.092415184,-0.27936503,0.32239953,7.28463077545166,-0.016915038228034973,8.423798561096191,-56.31317901611328,-58.67782974243164, 7.097440242767334
381,1951809222,0.89802444,0.08682633,-0.2893895,0.31979242,7.483813762664795,-0.2888416647911072,9.83946704864502,-59.86799621582031,-54.158203125, 4.618185520172119
382,1951825889,0.89620364,0.08162755,-0.29958582,0.31686634,8.311867713928223,-0.7936050295829773,9.437023162841797,-58.38884353637695,-56.537620544433594, 2.2924606800079346
383,1951842556,0.89444655,0.076335184,-0.3098069,0.3133021,9.069189071655273,-0.5460314750671387,10.602489471435547,-60.36198806762695,-56.686832427978516, -1.5635263919830322
384,1951859223,0.8927221,0.070475295,-0.32001323,0.3093094,8.033281326293945,0.3645302653312683,10.269038200378418,-64.75395965576172,-55.51187515258789, -3.048847198486328
385,1951875890,0.8910141,0.06337993,-0.33044535,0.3047671,7.548055171966553,0.09104365855455399,9.81535816192627,-74.06538391113281,-54.51082992553711, -3.593402147293091
386,1951892557,0.88951916,0.05564239,-0.34064957,0.2993619,7.227165222167969,0.3845120072364807,10.086050033569336,-79.60071563720703,-51.68289566040039, -7.927857875823975
387,1951909224,0.8879993,0.047240045,-0.3508688,0.29345703,6.794836044311523,-0.5771775245666504,9.395581245422363,-84.8984375,-50.69677734375, -9.326854705810547
388,1951925891,0.8863985,0.03958214,-0.36037725,0.2878533,6.796690464019775,-1.9342457056045532,10.376684188842773,-78.18544006347656,-47.99960708618164, -9.32435131072998
389,1951942558,0.88478583,0.033846237,-0.3690192,0.28254795,6.761993408203125,-1.855066180229187,10.522337913513184,-64.01176452636719,-46.5396614074707, -12.481877326965332
390,1951959225,0.88309807,0.029381018,-0.37733448,0.2772962,6.779822826385498,-2.135646343231201,10.463616371154785,-55.49830627441406,-47.27654266357422, -15.310866355895996
391,1951975892,0.881053,0.027165735,-0.38564554,0.27255315,7.218664169311523,-1.8771097660064697,8.632438659667969,-40.439430236816406,-52.446632385253906, -17.386018753051758
392,1951992559,0.87868494,0.026227007,-0.39435464,0.26778612,7.071307182312012,-1.5884392261505127,7.891106128692627,-33.4578742980957,-58.14520263671875, -20.238304138183594
393,1952009226,0.8757452,0.031002304,-0.40272194,0.26443234,8.651472091674805,-2.2030277252197266,6.462250709533691,5.620716094970703,-67.92251586914062, -26.201217651367188
394,1952025893,0.8724803,0.04350758,-0.40782762,0.26563486,6.472039699554443,-3.8184375762939453,9.213098526000977,70.79519653320312,-62.22844696044922, -20.2861385345459
395,1952042560,0.86935467,0.052841973,-0.4123902,0.26714128,5.619531154632568,-2.5729715824127197,11.021724700927734,53.61463928222656,-52.78041076660156, -10.053624153137207
396,1952059227,0.86688316,0.058063313,-0.41608885,0.26835105,6.160959243774414,-3.7817373275756836,12.790958404541016,29.542884826660156,-38.469024658203125, -1.7221735715866089
397,1952075894,0.8651442,0.060659837,-0.41866127,0.2693858,6.43472146987915,-3.1157233715057373,13.347785949707031,15.20944881439209,-25.080476760864258, 2.8741183280944824
398,1952092561,0.8642918,0.059951898,-0.41974604,0.2705898,6.4500732421875,-2.124199867248535,12.98205280303955,-1.5630544424057007,-7.693970680236816, 11.077750205993652
399,1952109228,0.8643003,0.056419376,-0.4200874,0.27079272,6.150601387023926,-0.25509876012802124,8.900008201599121,-20.219831466674805,3.8539316654205322, 11.344161033630371
400,1952125895,0.8642299,0.04952181,-0.4216417,0.2699491,6.7998151779174805,-1.7677251100540161,5.234116554260254,-45.502498626708984,2.1831352710723877, 15.476799011230469
401,1952142562,0.8639994,0.047256436,-0.42271945,0.26940712,7.982058525085449,-3.527557611465454,5.023581027984619,-16.152036666870117,-3.9246249198913574, 3.958465576171875
402,1952159229,0.86359435,0.045239616,-0.42432615,0.26852527,7.592211723327637,-3.7603468894958496,7.939404487609863,-16.531749725341797,-8.09290599822998, 1.66172194480896
403,1952175896,0.8627275,0.04427385,-0.4269354,0.26733398,9.54210376739502,-3.715200424194336,7.031193733215332,-12.859132766723633,-17.46637725830078, -2.1355133056640625
404,1952192563,0.86185235,0.04535531,-0.42946038,0.2659281,8.595420837402344,-2.4080543518066406,10.547255516052246,-1.1427252292633057,-20.788440704345703, -9.473435401916504
405,1952209230,0.8607572,0.047319766,-0.4321844,0.26471612,8.458514213562012,-1.9073805809020996,12.344359397888184,4.361860275268555,-24.263639450073242, -10.485175132751465
406,1952225897,0.8597904,0.050295528,-0.43399742,0.26434258,9.657243728637695,-3.459293842315674,10.934537887573242,14.42867374420166,-20.20870018005371, -9.062371253967285
407,1952242564,0.8593851,0.057664517,-0.43266627,0.26633033,10.444633483886719,-4.487372875213623,9.075483322143555,52.98326873779297,-7.203006744384766, -10.357434272766113
408,1952259231,0.86017656,0.06747824,-0.42789674,0.2691613,10.658604621887207,-2.6857528686523438,9.361318588256836,75.8201904296875,12.509982109069824, -16.25477409362793
409,1952275898,0.862002,0.07659687,-0.4208229,0.2720178,9.276086807250977,-2.4827024936676025,9.643420219421387,75.59309387207031,30.454795837402344, -17.04822540283203
410,1952292565,0.86449426,0.08361701,-0.41223422,0.27517402,9.151865005493164,-2.1379201412200928,9.730731010437012,66.53185272216797,45.3836669921875, -11.254392623901367
411,1952309232,0.86767036,0.08746505,-0.40245092,0.27844477,9.362238883972168,-1.9090981483459473,10.356919288635254,49.89427185058594,60.43102264404297, -3.5705254077911377
412,1952325899,0.8716415,0.08786069,-0.39133653,0.2817402,9.897351264953613,-1.945639967918396,10.889615058898926,31.458786010742188,77.13482666015625, 3.800243377685547
413,1952342566,0.8763362,0.08534793,-0.3788264,0.2850284,10.016355514526367,-1.4094500541687012,10.459525108337402,16.30418586730957,93.02539825439453, 9.329345703125
414,1952359233,0.88158894,0.08088539,-0.3645704,0.28869912,10.173178672790527,-1.228601336479187,9.085951805114746,8.663847923278809,109.02508544921875, 14.598771095275879
415,1952375900,0.8871356,0.07547552,-0.3487317,0.29271165,9.781224250793457,-0.4204173982143402,8.211858749389648,6.77360725402832,121.46648406982422, 17.590911865234375
416,1952392567,0.8926704,0.070302635,-0.33164173,0.29700306,9.489107131958008,-0.17528237402439117,7.323019504547119,11.409550666809082,128.8080596923828, 18.130727767944336
417,1952409234,0.8979687,0.06630847,-0.3133784,0.30174416,8.719386100769043,0.3149465322494507,7.392960071563721,22.172582626342773,133.38320922851562, 18.15810203552246
418,1952425901,0.90296435,0.062725574,-0.29428297,0.30678728,8.2835693359375,0.7868614196777344,8.161208152770996,27.20219612121582,137.24598693847656, 19.434688568115234
419,1952442568,0.9077048,0.05852204,-0.27470443,0.311745,8.266241073608398,0.2883506119251251,7.84043025970459,24.261526107788086,141.080322265625, 20.5446834564209
420,1952459235,0.91231394,0.054342482,-0.254138,0.31645578,7.42946195602417,0.7476506233215332,8.29614543914795,26.09005355834961,146.95326232910156, 18.884437561035156
421,1952475902,0.91700435,0.05082039,-0.23189987,0.32053512,6.142334461212158,1.1816000938415527,8.848755836486816,32.674251556396484,156.0016326904297, 13.017938613891602
422,1952492569,0.92154485,0.046879202,-0.20858654,0.32411334,5.48607873916626,0.8428758382797241,9.03548526763916,31.595136642456055,163.3404541015625, 10.52674388885498
423,1952509236,0.92588854,0.04180002,-0.18471397,0.32690087,5.134274959564209,1.4190047979354858,8.756538391113281,24.511878967285156,168.9263916015625, 7.438591003417969
424,1952525903,0.9299947,0.034084477,-0.16100363,0.32867292,4.672028541564941,1.7201511859893799,8.79491901397705,6.072991847991943,173.28131103515625, 4.934617519378662
425,1952542570,0.9335929,0.023873266,-0.13842387,0.3296562,4.739415645599365,1.4042856693267822,8.170166969299316,-13.275825500488281,171.0008087158203, 4.09398078918457
426,1952559237,0.93646413,0.009929561,-0.117462836,0.3303616,5.50510311126709,1.5671643018722534,6.19431209564209,-41.12028884887695,168.42079162597656, 7.791985988616943
427,1952575904,0.93908674,-0.004288156,-0.096451975,0.32984075,4.854369163513184,3.0769565105438232,6.238282203674316,-43.82014846801758,169.23822021484375, 0.6949025392532349
428,1952592571,0.9411089,-0.015137589,-0.07414674,0.32952625,2.7926230430603027,0.22624965012073517,6.848721504211426,-19.155542373657227,169.696044921875, 1.2139681577682495
429,1952609238,0.94282997,-0.021735743,-0.051586065,0.32853967,2.7421772480010986,0.033764660358428955,6.15287971496582,8.529901504516602,161.70091247558594, -4.6028361320495605
430,1952625905,0.9441808,-0.023873348,-0.028749106,0.3273015,2.5171101093292236,-0.9771201610565186,5.458812236785889,37.906951904296875,153.40660095214844, -6.947468280792236
431,1952642572,0.9450728,-0.024070073,-0.006314995,0.3259115,1.816140055656433,0.0680694505572319,6.380334854125977,49.521453857421875,146.44740295410156, -7.365899085998535
432,1952659239,0.94535726,-0.024257876,0.014877219,0.324792,0.6139086484909058,0.030993971973657608,5.677432537078857,46.69122314453125,138.35391235351562, -4.470263957977295
433,1952675906,0.94531894,-0.022717934,0.034661107,0.32350385,-0.08337660878896713,-0.5770665407180786,5.5072832107543945,54.731101989746094,125.42845153808594, -4.923572063446045
434,1952692573,0.94505006,-0.019617897,0.052222583,0.32213137,-0.5988067388534546,-0.9033706188201904,4.5920796394348145,59.93241882324219,107.5857925415039, -4.953146934509277
435,1952709240,0.94459176,-0.017079243,0.067136556,0.32085428,-0.9038164615631104,-0.8901172876358032,4.699199676513672,50.39897155761719,91.66790008544922, -4.484149932861328
436,1952725907,0.9440413,-0.016009018,0.07873002,0.3198927,-1.6563246250152588,-0.4221492409706116,3.8693580627441406,33.42116165161133,73.32756042480469, -3.305971145629883
437,1952742574,0.94361115,-0.014144687,0.08750655,0.31896833,-2.193190336227417,-0.2672918438911438,2.3709716796875,32.39559555053711,53.17561340332031, -3.212080955505371
438,1952759241,0.9434256,-0.010233052,0.09367284,0.3179133,-2.69020676612854,-0.3439256250858307,1.9822019338607788,40.07172775268555,31.534000396728516, -3.6202218532562256
439,1952775908,0.9435588,-0.0056207334,0.09663215,0.3167453,-2.748006820678711,-0.2843814194202423,2.0229053497314453,37.72145080566406,8.89775276184082, -4.821219444274902
440,1952792575,0.9439778,0.00006520826,0.09681642,0.31548825,-2.490938425064087,-0.6942053437232971,2.3356637954711914,38.73051452636719,-11.735589981079102, -5.407718181610107
441,1952809242,0.9445768,0.0057913945,0.09433321,0.31439272,-2.396926164627075,-0.0026280339807271957,3.670745372772217,33.13419723510742,-29.346532821655273, -4.709580898284912
442,1952825909,0.9452021,0.010102477,0.08957625,0.31379455,-2.381868839263916,0.11568254232406616,4.902034282684326,18.71732521057129,-41.12796401977539, -2.3547587394714355
443,1952842576,0.94569755,0.013117587,0.0832604,0.31392986,-2.3954551219940186,-0.5336713790893555,5.677781581878662,6.500935077667236,-48.39916229248047, 2.0120928287506104
444,1952859243,0.9458388,0.015182038,0.07495443,0.31550044,-2.3792779445648193,-2.957793951034546,4.324772834777832,-4.723016738891602,-59.01963806152344, 11.755348205566406
445,1952875910,0.9456636,0.01422428,0.05936868,0.31936452,0.6257960796356201,-3.930935859680176,-5.830516338348389,-41.177513122558594,-99.4800033569336, 26.583526611328125
446,1952892577,0.9457487,0.016223872,0.036114596,0.3224779,10.872894287109375,-1.2612626552581787,-1.209376573562622,-38.35786056518555,-156.02076721191406, 23.09580421447754
447,1952909244,0.9449946,0.027307982,0.013982741,0.3256441,3.626108407974243,1.8370177745819092,11.209795951843262,23.341259002685547,-168.16702270507812, 27.39964485168457
448,1952925911,0.9435084,0.037862353,-0.009690182,0.32903582,4.549806594848633,2.6955718994140625,6.233283042907715,16.51344108581543,-176.70742797851562, 30.72139549255371
449,1952942578,0.9415638,0.04932177,-0.03369638,0.33149615,2.059906005859375,0.9121930003166199,4.458618640899658,21.590354919433594,-180.9966583251953, 25.72974395751953
450,1952959245,0.9390572,0.06276428,-0.054739885,0.33352074,0.6018531322479248,0.4532996714115143,7.801981449127197,41.24774932861328,-166.53952026367188, 22.716297149658203
451,1952975912,0.93623155,0.07424585,-0.07352592,0.33548835,0.9158685207366943,-1.0584871768951416,7.79905891418457,33.884952545166016,-147.63137817382812, 22.831274032592773
452,1952992579,0.9332917,0.084235534,-0.08969982,0.3373798,2.750361919403076,-0.833903968334198,8.343855857849121,30.401138305664062,-127.49369049072266, 22.003427505493164
453,1953009246,0.93048126,0.09042454,-0.10538228,0.33900288,3.1835849285125732,-0.3341657817363739,7.717145919799805,6.980166912078857,-115.56096649169922, 22.011995315551758
454,1953025913,0.9277018,0.0938361,-0.121315934,0.34036282,3.391174793243408,0.6267358064651489,7.360140800476074,-11.538982391357422,-110.78721618652344, 22.401636123657227
455,1953042580,0.9245601,0.09451758,-0.13896711,0.34196988,4.011743068695068,0.043617140501737595,8.933087348937988,-32.53038024902344,-115.44929504394531, 28.203784942626953
456,1953059247,0.9207978,0.096153475,-0.15674874,0.3439706,6.300311088562012,1.656846284866333,9.881979942321777,-25.960002899169922,-118.81973266601562, 31.322223663330078
457,1953075914,0.9168812,0.0984669,-0.17401466,0.34547377,6.277486324310303,1.1105188131332397,8.436882019042969,-20.920114517211914,-117.54493713378906, 27.47288703918457
458,1953092581,0.9131838,0.10132341,-0.18953842,0.34627193,6.415117263793945,2.987680435180664,7.5799880027771,-14.37143325805664,-107.95454406738281, 20.680286407470703
459,1953109248,0.90995437,0.103200845,-0.20324251,0.34644684,6.787764549255371,2.8573834896087646,7.824027061462402,-17.425046920776367,-93.90628814697266, 15.70339584350586
460,1953125915,0.9069902,0.10370998,-0.21606775,0.3463065,7.224554538726807,1.55492103099823,9.342878341674805,-24.615060806274414,-84.88935852050781, 14.436574935913086
461,1953142582,0.9042704,0.102847464,-0.22829846,0.3458287,7.131479263305664,0.5845500230789185,9.129643440246582,-32.46733474731445,-77.70716094970703, 13.396123886108398
462,1953159249,0.9018144,0.10081863,-0.2400771,0.34486172,7.571890354156494,0.8210130333900452,9.681550025939941,-39.60294723510742,-71.9814224243164, 11.256792068481445
463,1953175916,0.8994441,0.09748736,-0.2520158,0.34348935,8.025683403015137,0.506372332572937,9.577736854553223,-48.80360412597656,-69.96016693115234, 10.83339786529541
464,1953192583,0.89726007,0.092401,-0.26392302,0.34165937,7.943058967590332,0.2855606973171234,10.090788841247559,-60.51071548461914,-65.5311508178711, 10.617654800415039
465,1953209250,0.8950999,0.08627962,-0.2760763,0.33931455,8.002050399780273,-0.2485930472612381,9.592175483703613,-68.43095397949219,-64.85810089111328, 9.45981216430664
466,1953225917,0.8931794,0.07924738,-0.2878486,0.33629397,8.29101848602295,0.09390894323587418,10.108585357666016,-74.56764221191406,-60.28826904296875, 6.281686782836914
467,1953242584,0.8908517,0.072440356,-0.30046824,0.33294857,9.275793075561523,-0.5591758489608765,9.645968437194824,-75.5816650390625,-66.96510314941406, 5.298465728759766
468,1953259251,0.88845104,0.06636535,-0.31271008,0.32933694,9.240737915039062,-0.5572099089622498,11.695807456970215,-70.74627685546875,-66.54326629638672, 2.181217670440674
469,1953275918,0.8859703,0.060139306,-0.32504803,0.32524428,9.280176162719727,-0.914301872253418,10.626961708068848,-72.89987182617188,-67.18539428710938, -0.15354065597057343
470,1953292585,0.883529,0.054246977,-0.33685064,0.32088208,8.341155052185059,-1.3254882097244263,10.7756929397583,-70.29810333251953,-64.6826400756836, -2.8043863773345947
471,1953309252,0.8810262,0.04800242,-0.34862792,0.31614438,7.056359767913818,-1.3359333276748657,10.8941011428833,-73.23108673095703,-64.07591247558594, -4.104841232299805
472,1953325919,0.8786486,0.041355845,-0.35991073,0.31101578,6.758411407470703,-2.336789131164551,10.774237632751465,-75.58429718017578,-60.13832092285156, -5.9145894050598145
473,1953342586,0.87657475,0.0340653,-0.3697908,0.30612305,6.768731117248535,-3.085284948348999,11.440343856811523,-75.9653091430664,-49.5874137878418, -3.9431262016296387
474,1953359253,0.87479174,0.025569001,-0.37845385,0.30142716,6.51276159286499,-3.2864112854003906,10.612133026123047,-80.21672058105469,-39.07626724243164, -0.6097657680511475
475,1953375920,0.8723821,0.01757129,-0.38835806,0.29634246,6.4643168449401855,-3.475374937057495,8.548831939697266,-80.66817474365234,-49.41014862060547, -2.7569355964660645
476,1953392587,0.8694594,0.01130181,-0.39891243,0.29117268,5.9918012619018555,-3.1746914386749268,7.597095966339111,-71.75090789794922,-58.29144287109375, -6.78856897354126
477,1953409254,0.8660796,0.0028237626,-0.41073483,0.28494763,8.100269317626953,-2.1235861778259277,7.205784320831299,-90.3250732421875,-62.858219146728516, -6.053884506225586
478,1953425921,0.8627959,0.000084075196,-0.4205169,0.28062263,7.131350994110107,-4.858963966369629,5.761937618255615,-46.79489517211914,-61.6456413269043, -11.14371109008789
479,1953442588,0.8604979,0.0015731371,-0.42732963,0.2773633,6.179622650146484,-1.168752908706665,10.062567710876465,-12.819646835327148,-49.32826614379883, -19.030765533447266
480,1953459255,0.85952723,0.0025844227,-0.4310306,0.27462536,5.399738311767578,-2.0871999263763428,11.886117935180664,-8.271536827087402,-26.270057678222656, -17.085771560668945
481,1953475922,0.8599479,0.005702973,-0.4310405,0.27324265,5.665341854095459,-2.6935901641845703,12.712930679321289,15.072161674499512,-4.543919086456299, -18.035858154296875
482,1953492589,0.86080605,0.010797256,-0.42911696,0.2734139,5.272065162658691,-2.483792781829834,10.703106880187988,34.91609573364258,4.259740352630615, -15.642062187194824
483,1953509256,0.8614438,0.013287208,-0.42799166,0.27305925,5.630853652954102,-3.337430000305176,9.436339378356934,16.430330276489258,3.529005527496338, -10.633625030517578
484,1953525923,0.862341,0.016592603,-0.42580923,0.27345794,5.9707818031311035,-3.4507627487182617,9.349343299865723,25.441709518432617,8.935995101928711, -9.215909957885742
485,1953542590,0.86319774,0.019540414,-0.42390123,0.2735243,7.111793518066406,-2.740027904510498,7.863391399383545,21.848711013793945,7.6848320960998535, -10.092436790466309
486,1953559257,0.8641091,0.02345501,-0.42174095,0.27367803,8.240391731262207,-2.431741237640381,7.367444038391113,28.318490982055664,7.4792866706848145, -12.553300857543945
487,1953575924,0.8653006,0.026050886,-0.4191619,0.27364153,7.646637439727783,-1.3763689994812012,9.725502967834473,20.681991577148438,13.226783752441406, -10.461865425109863
488,1953592591,0.8664459,0.024761764,-0.41801596,0.27188465,7.72216796875,-1.8007210493087769,10.604436874389648,-10.11602783203125,11.470664978027344, -9.140900611877441
489,1953609258,0.8674659,0.02249458,-0.41725796,0.26998687,8.56563663482666,-3.054877281188965,9.00765323638916,-17.083887100219727,10.482633590698242, -6.8701171875
490,1953625925,0.8687824,0.021490572,-0.41552627,0.26850212,9.48869800567627,-4.3032546043396,8.686848640441895,-6.586198806762695,14.819954872131348, -8.762396812438965
491,1953642592,0.87082344,0.023744326,-0.411099,0.2685155,10.257487297058105,-4.9688825607299805,8.208892822265625,22.0787296295166,27.197900772094727, -10.914955139160156
492,1953659259,0.87349814,0.029892445,-0.40385962,0.27019456,10.289239883422852,-4.256194591522217,6.912519931793213,55.27486038208008,38.94856262207031, -13.645024299621582
493,1953675926,0.87640345,0.037771277,-0.3944951,0.27361277,9.791022300720215,-3.1028809547424316,7.0497636795043945,74.47566986083984,49.58196258544922, -8.914408683776855
494,1953692593,0.8789529,0.044938907,-0.38475347,0.27818578,9.503679275512695,-2.797398328781128,7.262413024902344,74.1703872680664,52.59904098510742, 0.5289624333381653
495,1953709260,0.8812855,0.05075183,-0.37451604,0.28372175,9.150583267211914,-2.604422092437744,8.19649887084961,69.58815002441406,57.97508239746094, 10.179864883422852
496,1953725927,0.88364756,0.05444992,-0.36394173,0.28939366,9.055218696594238,-1.887406587600708,9.425318717956543,57.805641174316406,64.29874420166016, 16.25985336303711
497,1953742594,0.8863422,0.05709853,-0.35239074,0.29488686,8.928460121154785,-0.9126129150390625,9.573665618896484,52.812225341796875,73.09075927734375, 16.774911880493164
498,1953759261,0.88955903,0.05879594,-0.3394548,0.29999742,8.472539901733398,-0.4022323191165924,9.481050491333008,48.676025390625,84.58271789550781, 15.172621726989746
499,1953775928,0.89317137,0.05798231,-0.3259488,0.30436906,8.219106674194336,0.17800480127334595,8.489502906799316,32.5810432434082,93.88461303710938, 15.502118110656738
500,1953792595,0.8970326,0.055608425,-0.3117577,0.30829751,8.190468788146973,0.36333030462265015,8.626091003417969,23.29962730407715,101.78291320800781, 15.527302742004395
501,1953809262,0.9009022,0.05140976,-0.2975001,0.31181118,8.023164749145508,0.2112756371498108,8.547073364257812,11.246658325195312,105.97588348388672, 16.88209342956543
502,1953825929,0.90471846,0.046137806,-0.28278923,0.31525576,7.255029201507568,0.8137018084526062,9.044729232788086,5.407254695892334,111.01766204833984, 18.642221450805664
503,1953842596,0.9085427,0.039731223,-0.26719373,0.3187149,6.3869242668151855,0.6515698432922363,9.640771865844727,0.22658801078796387,119.04286193847656, 20.6859130859375
504,1953859263,0.9124794,0.032893125,-0.25013593,0.32207373,5.83677864074707,0.9922347068786621,9.978617668151855,0.4564138352870941,129.31771850585938, 20.239948272705078
505,1953875930,0.91685367,0.025944104,-0.23070027,0.3247827,5.039073467254639,1.0780442953109741,9.913698196411133,3.7302634716033936,145.09402465820312, 14.882457733154297
506,1953892597,0.9215227,0.018439913,-0.20910503,0.3266972,4.706831455230713,0.82492995262146,10.289029121398926,3.6557700634002686,160.27162170410156, 9.738776206970215
507,1953909264,0.92581815,0.008049535,-0.18700688,0.32836625,5.466070652008057,0.5962491035461426,10.098151206970215,-13.886039733886719,169.37294006347656, 13.122350692749023
508,1953925931,0.9294924,-0.006615342,-0.16577654,0.329421,5.7353034019470215,1.2615517377853394,8.780405044555664,-43.881412506103516,172.7206268310547, 16.16935920715332
509,1953942598,0.93198824,-0.024007706,-0.14578873,0.33100948,5.131723403930664,-0.5618176460266113,6.168031215667725,-63.665340423583984,169.6936798095703, 25.32013511657715
510,1953959265,0.93422824,-0.03965448,-0.12645577,0.33114073,4.7678117752075195,0.629880428314209,5.4735846519470215,-55.48023223876953,161.6341552734375, 14.708765029907227
511,1953975932,0.9362022,-0.05272621,-0.1063594,0.3308068,3.7196407318115234,-0.4032704830169678,6.564408302307129,-37.73453903198242,160.70069885253906, 10.30693531036377
512,1953992599,0.93803006,-0.061964244,-0.08564185,0.33003947,3.246922016143799,-0.44463199377059937,6.562545299530029,-12.038305282592773,156.11866760253906, 5.268904685974121
513,1954009266,0.9394598,-0.0668436,-0.064327486,0.32986253,2.9949610233306885,-2.552133083343506,5.5914130210876465,17.581832885742188,149.67457580566406, 7.659879684448242
514,1954025933,0.94065416,-0.06620246,-0.04275124,0.33009025,2.214962959289551,-2.0072896480560303,6.466166973114014,53.97370147705078,138.64686584472656, 8.467190742492676
515,1954042600,0.9414198,-0.06334858,-0.022476777,0.33047035,1.2532923221588135,-1.2049907445907593,6.415255546569824,65.22294616699219,125.07575225830078, 9.161775588989258
516,1954059267,0.9418945,-0.05866756,-0.0027759813,0.33073458,0.38363897800445557,-0.8692079782485962,6.860905647277832,75.61842346191406,117.2532730102539, 8.514497756958008
517,1954075934,0.9421236,-0.053717703,0.015544301,0.3305692,-0.2121734768152237,-0.5250154137611389,6.891135215759277,74.11930847167969,107.87875366210938, 5.701066017150879
518,1954092601,0.9420488,-0.050218448,0.031722978,0.3301756,-0.7675200700759888,-1.0958682298660278,6.890534400939941,59.76658248901367,97.41268157958984, 3.9337024688720703
519,1954109268,0.9418716,-0.048429016,0.04500783,0.32940426,-0.7440646290779114,-0.7827262282371521,5.1458916664123535,42.19606018066406,82.68109893798828, 0.3302665948867798
520,1954125935,0.9416474,-0.048932645,0.055194672,0.32841974,-1.3929563760757446,-0.559561550617218,4.43021297454834,20.403535842895508,67.8768539428711, -2.7002410888671875
521,1954142602,0.94136274,-0.05122071,0.062450457,0.32758632,-2.0269618034362793,-0.7494272589683533,3.9117612838745117,2.171766996383667,52.85651779174805, -3.254701852798462
522,1954159269,0.9409898,-0.05434305,0.06718767,0.32721695,-2.2977163791656494,-0.9542738199234009,3.6572563648223877,-9.103852272033691,38.2408332824707, -1.303847312927246
523,1954175936,0.9407436,-0.05634531,0.06957338,0.32708788,-2.6445186138153076,-1.26128351688385,3.2252094745635986,-7.17694616317749,20.282440185546875, -0.3946667015552521
524,1954192603,0.94074196,-0.054989163,0.07028528,0.32717097,-2.493695020675659,-1.5658080577850342,2.573047637939453,10.820184707641602,1.6150670051574707, 1.3869473934173584
525,1954209270,0.9409581,-0.049899448,0.06958265,0.32751524,-2.412989854812622,-1.4304068088531494,3.121849298477173,31.80137825012207,-16.222274780273438, 3.858846426010132
526,1954225937,0.9412825,-0.04167987,0.067734286,0.32811943,-2.3314225673675537,-1.1557193994522095,4.685823440551758,49.4350471496582,-30.901033401489258, 6.401747226715088
527,1954242604,0.9414722,-0.031716693,0.06407286,0.3294224,-2.396077871322632,-1.0112884044647217,4.826098442077637,56.30458068847656,-46.770301818847656, 11.522863388061523
528,1954259271,0.94120294,-0.022682125,0.056660358,0.3322832,-2.216169595718384,-3.458263397216797,1.9840366840362549,41.047889709472656,-69.15279388427734, 21.420106887817383
529,1954275938,0.9410865,-0.015860697,0.041766018,0.335202,0.9325004816055298,-2.487598419189453,-4.957211971282959,9.764884948730469,-112.65978240966797, 19.433551788330078
530,1954292605,0.94120175,-0.009226739,0.017713588,0.33725417,11.489253044128418,2.736020803451538,-0.37395116686820984,-12.188042640686035,-171.45314025878906, 12.245197296142578
531,1954309272,0.94015074,0.005016121,-0.006328443,0.34066322,5.042688846588135,3.4672532081604004,9.771836280822754,36.73941421508789,-188.54676818847656, 24.660715103149414
532,1954325939,0.9381296,0.0189036,-0.03153946,0.34432676,3.5678231716156006,4.656382083892822,7.871184349060059,31.62517547607422,-195.12030029296875, 28.636096954345703
533,1954342606,0.93548644,0.030519376,-0.057031825,0.34739214,1.6830785274505615,0.8460042476654053,3.9523823261260986,16.095413208007812,-191.6580352783203, 26.7955265045166
534,1954359273,0.9324247,0.044480447,-0.07920094,0.34976178,0.412148118019104,0.05794806033372879,6.881805419921875,38.91825866699219,-176.1536102294922, 21.71622657775879
535,1954375940,0.9288992,0.058313224,-0.0989919,0.3520606,1.7076380252838135,-1.507699966430664,8.073671340942383,43.932945251464844,-160.90518188476562, 21.723392486572266
536,1954392607,0.9252991,0.06989719,-0.11632922,0.3541235,3.913410186767578,-0.8186691403388977,8.836771011352539,35.45133590698242,-139.94076538085938, 20.928804397583008
537,1954409274,0.9217201,0.07636845,-0.13330396,0.35613227,4.139123916625977,-1.425176978111267,9.056975364685059,3.804197311401367,-125.14309692382812, 24.43631935119629
538,1954425941,0.9178587,0.08268912,-0.14869733,0.35859066,5.451521396636963,0.21219246089458466,7.352951526641846,7.356157302856445,-114.73462677001953, 27.266502380371094
539,1954442608,0.91381556,0.08435554,-0.16688512,0.36052004,6.18295431137085,0.6548504829406738,9.532054901123047,-29.329757690429688,-121.29220581054688, 30.72504234313965
540,1954459275,0.90890795,0.08740823,-0.1863177,0.362673,7.0449981689453125,2.6830458641052246,8.264056205749512,-22.944965362548828,-133.3392333984375, 33.41764831542969
541,1954475942,0.90372264,0.091702625,-0.20583013,0.3640193,7.015397071838379,3.7278621196746826,7.483730792999268,-16.317604064941406,-137.67269897460938, 27.56952476501465
542,1954492609,0.8986298,0.09545194,-0.22501513,0.36430997,7.411930561065674,2.1936206817626953,8.493551254272461,-20.536718368530273,-134.7120361328125, 21.411853790283203
543,1954509276,0.8937767,0.09802075,-0.24272592,0.36419702,8.335774421691895,-0.16792169213294983,10.372699737548828,-24.96786117553711,-122.46260070800781, 19.2272891998291
544,1954525943,0.889276,0.10038493,-0.25799102,0.3640764,8.58537769317627,-1.1563843488693237,9.721536636352539,-20.327598571777344,-106.27938079833984, 17.00387191772461
545,1954542610,0.8852954,0.10077353,-0.27163637,0.36374527,8.477889060974121,-1.0544342994689941,9.614961624145508,-29.03562355041504,-90.59269714355469, 16.79767417907715
546,1954559277,0.88184446,0.09871323,-0.2844122,0.362927,8.276779174804688,-0.42871522903442383,9.250092506408691,-43.003257751464844,-78.48064422607422, 16.482051849365234
547,1954575944,0.8788008,0.09360908,-0.2975471,0.3611265,8.761640548706055,0.07373584806919098,9.223198890686035,-64.53512573242188,-72.90290069580078, 15.731237411499023
548,1954592611,0.875784,0.08699451,-0.31106743,0.3587086,9.244193077087402,-0.38990816473960876,8.901266098022461,-75.90042877197266,-71.79261779785156, 15.319844245910645
549,1954609278,0.8729904,0.08031725,-0.32403997,0.35557735,9.776134490966797,0.10099304467439651,10.389745712280273,-76.58028411865234,-68.24810791015625, 10.327241897583008
550,1954625945,0.8705425,0.073146835,-0.33672455,0.3513149,9.056218147277832,0.23739823698997498,9.845808982849121,-81.56853485107422,-65.15868377685547, 3.6957151889801025
551,1954642612,0.8682302,0.06452971,-0.34917066,0.34654322,10.130603790283203,-0.6596140265464783,10.56772518157959,-90.9287109375,-60.18994140625, 3.622319459915161
552,1954659279,0.86627114,0.055661924,-0.3607772,0.34105146,8.655475616455078,0.17932534217834473,10.076786041259766,-92.32616424560547,-54.06222915649414, -1.22427237033844
553,1954675946,0.8645472,0.045173157,-0.37192485,0.33494765,7.552357196807861,-0.7498785257339478,10.117962837219238,-102.5572280883789,-47.22891616821289, -1.4945168495178223
554,1954692613,0.8640597,0.03376565,-0.3785884,0.33004797,7.638360500335693,-1.8825643062591553,10.807430267333984,-95.02439880371094,-15.007967948913574, 3.8276162147521973
555,1954709280,0.863295,0.024235794,-0.3850514,0.32537675,4.723162651062012,-1.1982110738754272,6.537703990936279,-82.76966857910156,-18.84694480895996, 0.9053230285644531
556,1954725947,0.86086756,0.01483161,-0.39567918,0.31957036,6.848189353942871,-2.2384753227233887,5.1350812911987305,-94.07670593261719,-48.516571044921875, -1.7247377634048462
557,1954742614,0.85761875,0.007988489,-0.40683705,0.31449986,7.304945945739746,-3.4185144901275635,6.846251010894775,-77.96931457519531,-59.43647766113281, -2.4559056758880615
558,1954759281,0.8539375,-0.000002869926,-0.41857544,0.30916926,9.347712516784668,-3.3937690258026123,8.314520835876465,-86.66280364990234,-61.63060760498047, 0.1872042864561081
559,1954775948,0.8519338,-0.0042236694,-0.42581794,0.30474642,6.190456867218018,-1.8989527225494385,13.925559997558594,-52.33511734008789,-38.44535827636719, -8.886487007141113
560,1954792615,0.85080045,-0.0120065985,-0.4322829,0.2985402,6.230303764343262,-1.3577579259872437,12.687129974365234,-76.84634399414062,-24.058786392211914, -10.696035385131836
561,1954809282,0.85014063,-0.017529484,-0.43667167,0.29372016,6.23544454574585,-4.524562835693359,10.359192848205566,-55.28764724731445,-15.462713241577148, -10.084482192993164
562,1954825949,0.85013556,-0.018680003,-0.4381149,0.29150695,6.466170310974121,-4.630931854248047,10.829673767089844,-15.876906394958496,-5.5629563331604, -8.999838829040527
563,1954842616,0.8510257,-0.014939883,-0.4369442,0.2908818,6.077147960662842,-3.290281295776367,10.25402545928955,22.838294982910156,2.2698352336883545, -15.97360610961914
564,1954859283,0.85215485,-0.012666863,-0.43549073,0.28986186,5.934006214141846,-4.165848255157471,9.700521469116211,13.630659103393555,7.4896321296691895, -14.363740921020508
565,1954875950,0.8540096,-0.008849063,-0.43246812,0.2890687,5.343928337097168,-2.8006136417388916,7.728427410125732,26.548139572143555,15.643815994262695, -19.03011703491211
566,1954892617,0.8557996,-0.007415206,-0.4306463,0.28652415,6.042720794677734,-2.888007640838623,6.564026355743408,4.942539691925049,13.167475700378418, -22.20280647277832
567,1954909284,0.85818726,-0.0060508195,-0.42729697,0.28442135,6.050074577331543,-3.7141666412353516,8.296677589416504,8.886467933654785,24.0034236907959, -20.52480125427246
568,1954925951,0.8608023,-0.0047949064,-0.42346445,0.28226674,5.5358567237854,-2.0943150520324707,9.825056076049805,9.057927131652832,27.663908004760742, -20.984935760498047
569,1954942618,0.8632312,-0.0057174074,-0.4208384,0.27873695,6.432190895080566,-3.123220682144165,8.276437759399414,-10.222312927246094,24.138742446899414, -22.478961944580078
570,1954959285,0.86575544,-0.0050567877,-0.41755724,0.2758404,6.5358710289001465,-3.9941494464874268,7.452573776245117,2.2691986560821533,25.184606552124023, -23.48968505859375
571,1954975952,0.8681397,-0.0031425068,-0.41389838,0.27388266,7.056887626647949,-4.446775913238525,7.239436626434326,13.165617942810059,24.587190628051758, -21.271862030029297
572,1954992619,0.8708854,0.0017492196,-0.40851864,0.27325535,8.161579132080078,-5.167611122131348,7.121899604797363,38.016292572021484,30.236629486083984, -22.498268127441406
573,1955009286,0.8740807,0.010451327,-0.40110043,0.2738471,9.532877922058105,-5.522334575653076,6.8178863525390625,68.1405258178711,36.57697677612305, -26.830738067626953
574,1955025953,0.87748057,0.023530716,-0.3917074,0.27575314,10.03785228729248,-5.236353874206543,6.611775875091553,101.85435485839844,40.915924072265625, -31.58579444885254
575,1955042620,0.88077134,0.03768995,-0.3811626,0.27845386,9.966474533081055,-4.260065078735352,8.096771240234375,112.78752899169922,45.724796295166016, -29.731813430786133
576,1955059287,0.88348997,0.04921846,-0.37106803,0.2816589,9.539774894714355,-3.800767421722412,9.216745376586914,97.51658630371094,46.708587646484375, -18.610580444335938
577,1955075954,0.8857752,0.057458263,-0.3610874,0.2858618,9.757088661193848,-4.241228103637695,9.402565002441406,80.05630493164062,51.631893157958984, -3.3194479942321777
578,1955092621,0.8879301,0.06328153,-0.35063508,0.2909135,10.044512748718262,-3.3899757862091064,9.67982292175293,68.48784637451172,59.28678894042969, 7.8703389167785645
579,1955109288,0.89019245,0.06750926,-0.33921131,0.29653943,10.163888931274414,-2.4147701263427734,9.239715576171875,62.07634735107422,68.94579315185547, 14.551569938659668
580,1955125955,0.8926492,0.07046133,-0.32650858,0.302663,9.64837646484375,-1.0714216232299805,9.35148811340332,57.97978973388672,80.10517883300781, 19.567584991455078
581,1955142622,0.8951514,0.07102867,-0.31339183,0.30894127,9.20036506652832,-0.17550277709960938,9.346441268920898,44.535335540771484,87.82633209228516, 25.581071853637695
582,1955159289,0.89760786,0.06939456,-0.3000015,0.31541088,8.73937702178955,0.34387513995170593,9.258065223693848,31.987842559814453,94.22045135498047, 31.483985900878906
583,1955175956,0.9000741,0.06547708,-0.28640863,0.32179138,8.093994140625,1.1436636447906494,9.816052436828613,18.122568130493164,100.43997192382812, 35.5514030456543
584,1955192623,0.9025614,0.059242725,-0.27290964,0.32770985,7.8670830726623535,1.223333716392517,9.179146766662598,2.611053228378296,104.84459686279297, 37.2830696105957
585,1955209290,0.905228,0.052082542,-0.25859636,0.33313325,7.3632941246032715,1.7929195165634155,9.061553001403809,-2.3468399047851562,112.15975952148438, 35.24951171875
586,1955225957,0.90813977,0.043395292,-0.24354936,0.33776176,6.485182285308838,2.02846622467041,8.954450607299805,-11.73464298248291,120.417236328125, 32.232879638671875
587,1955242624,0.9112913,0.03414494,-0.22735083,0.34160507,5.681998252868652,2.06317138671875,8.570019721984863,-14.034695625305176,129.11412048339844, 27.410213470458984
588,1955259291,0.9146247,0.024508478,-0.2095887,0.34486806,4.862204551696777,2.062343120574951,9.151728630065918,-13.806480407714844,139.9944305419922, 23.61420249938965
589,1955275958,0.91803235,0.013497798,-0.1902201,0.34763646,4.090978622436523,2.740077018737793,10.267231941223145,-19.445833206176758,153.3916473388672, 22.056346893310547
590,1955292625,0.9210888,-0.0010956654,-0.17078233,0.34989658,4.291128158569336,2.3980555534362793,9.906814575195312,-42.63041305541992,161.87757873535156, 24.392045974731445
591,1955309292,0.9236733,-0.01652272,-0.15085717,0.35184795,4.796964645385742,1.5547406673431396,7.786367416381836,-47.19950866699219,166.43141174316406, 24.568429946899414
592,1955325959,0.92589664,-0.029021733,-0.1301262,0.35346934,4.586519241333008,0.6054830551147461,5.3820013999938965,-27.10468864440918,164.18460083007812, 20.405502319335938
593,1955342626,0.92814183,-0.036166098,-0.107419334,0.35455033,3.411184549331665,0.3833219110965729,6.716480255126953,11.27285099029541,163.9564971923828, 12.51003646850586
594,1955359293,0.930241,-0.04017467,-0.084069245,0.35492292,2.8677642345428467,0.28089505434036255,7.577221870422363,32.258541107177734,160.5330047607422, 6.171752452850342
595,1955375960,0.93218195,-0.041196983,-0.060761813,0.35446826,3.0296738147735596,-0.009830739349126816,6.7129011154174805,50.6993522644043,153.14779663085938, -0.5004412531852722
596,1955392627,0.93381125,-0.039462518,-0.037824888,0.35356593,2.4705147743225098,-0.02034531533718109,6.691219329833984,67.17168426513672,144.1033477783203, -3.890660285949707
597,1955409294,0.9350995,-0.034723543,-0.015490674,0.35234004,1.3528623580932617,-0.5385602712631226,7.006171226501465,84.8065185546875,132.9733428955078, -6.119462490081787
598,1955425961,0.93589807,-0.027139055,0.0062959315,0.35116756,0.8653309941291809,-1.1838645935058594,6.232173919677734,101.66897583007812,122.5153579711914, -5.066606044769287
599,1955442628,0.93620116,-0.020483864,0.026091985,0.34989598,-0.039685770869255066,-0.07968836277723312,6.517213821411133,90.82183837890625,112.00184631347656, -4.952348232269287
600,1955459295,0.9361267,-0.01659544,0.04246973,0.3486946,-0.34385040402412415,-0.22174768149852753,5.422410011291504,64.7259292602539,96.70379638671875, -4.6059088706970215
601,1955475962,0.93602896,-0.014784113,0.055798363,0.34715703,-1.3518208265304565,0.15884721279144287,5.645275115966797,44.15486526489258,82.09088134765625, -7.693049430847168
602,1955492629,0.9359585,-0.015639499,0.06547457,0.34561557,-1.852095127105713,-0.4905354678630829,5.382028102874756,18.284440994262695,64.90565490722656, -9.193994522094727
603,1955509296,0.9359198,-0.019231532,0.071520835,0.34433866,-2.0747623443603516,-0.6301564574241638,4.767815113067627,-8.043967247009277,47.96350860595703, -9.194514274597168
604,1955525963,0.9358812,-0.024117919,0.0744324,0.34351793,-2.371335506439209,-1.003333568572998,3.9412336349487305,-23.99120330810547,30.749170303344727, -7.311826705932617
605,1955542630,0.93584365,-0.02780036,0.07535834,0.34313986,-2.5339839458465576,-1.110740065574646,3.4688916206359863,-21.125289916992188,15.000362396240234, -4.171383857727051
606,1955559297,0.9358295,-0.02773358,0.07515113,0.34322944,-2.3581643104553223,-1.6264711618423462,3.3697290420532227,0.12424078583717346,-1.2961946725845337, 0.5133361220359802
607,1955575964,0.93585837,-0.023468764,0.074056484,0.34370628,-2.3887856006622314,-1.492092490196228,3.8686482906341553,24.898408889770508,-17.06157112121582, 4.910796165466309
608,1955592631,0.93581635,-0.016643697,0.07174381,0.34470835,-2.5305404663085938,-0.9005498886108398,4.711714744567871,38.2606086730957,-31.048742294311523, 9.570839881896973
609,1955609298,0.9357618,-0.008626438,0.06867751,0.3457729,-2.4537391662597656,0.3122900426387787,6.169948101043701,44.144283294677734,-38.77536392211914, 10.508299827575684
610,1955625965,0.9355824,-0.0013274823,0.06519795,0.3470349,-2.3185436725616455,1.1821156740188599,7.556281089782715,38.44230651855469,-39.72391128540039, 11.711889266967773
611,1955642632,0.935295,0.004774502,0.06069684,0.34859207,-2.222870111465454,0.9010816812515259,6.1060943603515625,28.155406951904297,-43.43085479736328, 13.323789596557617
612,1955659299,0.93436086,0.004509682,0.048235994,0.35301968,-1.8271758556365967,-4.307332515716553,-4.242522716522217,-33.049930572509766,-79.0338363647461, 30.942167282104492
613,1955675966,0.9341235,0.0041123,0.026016654,0.35597718,12.462899208068848,-0.6940851211547852,-7.416297912597656,-57.01569747924805,-141.74319458007812, 20.089895248413086
614,1955692633,0.9324318,0.016952943,0.0051988796,0.36091077,6.25665283203125,-3.056493043899536,9.823711395263672,31.145843505859375,-164.52743530273438, 38.69414138793945
615,1955709300,0.9303374,0.03170273,-0.015994659,0.3649816,5.75605583190918,5.011586666107178,7.364459037780762,42.62512969970703,-171.60202026367188, 34.288063049316406
616,1955725967,0.92808837,0.043280747,-0.038982682,0.3677761,2.099595069885254,1.4491462707519531,4.680001735687256,17.616714477539062,-175.28546142578125, 27.260744094848633
617,1955742634,0.9255404,0.056604,-0.058261447,0.36983365,1.368100643157959,0.8390411734580994,3.829298496246338,38.00593566894531,-156.28982543945312, 21.75359535217285
618,1955759301,0.9231311,0.06603462,-0.07451403,0.37137052,2.3317296504974365,1.5502177476882935,7.360236167907715,20.660383224487305,-127.26310729980469, 18.47582244873047
619,1955775968,0.9206926,0.07043422,-0.09131666,0.37286118,3.1561741828918457,0.14724744856357574,9.906721115112305,-12.702589988708496,-117.92672729492188, 21.10016632080078
620,1955792635,0.91813785,0.07397571,-0.10710558,0.37427133,3.5355234146118164,0.04853016883134842,9.487518310546875,-15.507220268249512,-109.40448760986328, 20.944101333618164
621,1955809302,0.91549116,0.07606938,-0.12326429,0.37536052,4.314548492431641,0.8551597595214844,8.440530776977539,-25.76405143737793,-108.22520446777344, 20.421432495117188
622,1955825969,0.91286665,0.077951394,-0.13890341,0.3759043,5.493494033813477,1.5750453472137451,8.966440200805664,-26.226612091064453,-104.640869140625, 16.856700897216797
623,1955842636,0.91007215,0.0792558,-0.15429825,0.37640345,5.6592512130737305,-0.15301932394504547,8.954137802124023,-29.18656349182129,-101.75507354736328, 17.458650588989258
624,1955859303,0.90731984,0.08047073,-0.16827324,0.37680164,5.447201251983643,0.40178391337394714,8.90096664428711,-26.176176071166992,-92.61024475097656, 16.05115509033203
625,1955875970,0.9049233,0.08086837,-0.18122008,0.3764748,5.751119613647461,0.5997841358184814,8.393144607543945,-29.636449813842773,-84.04519653320312, 10.998220443725586
626,1955892637,0.9033145,0.078667276,-0.19242202,0.37524408,5.982964992523193,0.8635873794555664,8.293827056884766,-42.85076141357422,-65.96009826660156, 5.620567798614502
627,1955909304,0.90214705,0.07402279,-0.20302202,0.37340814,6.290328502655029,-0.18990229070186615,9.078969955444336,-57.51722717285156,-55.64267349243164, 3.656730890274048
628,1955925971,0.9010985,0.06948152,-0.21236315,0.37161264,6.311100482940674,-1.107982873916626,9.79510498046875,-53.635597229003906,-47.903499603271484, 2.8332836627960205
629,1955942638,0.9001424,0.06636896,-0.22029324,0.3698783,6.011660099029541,-0.6575368046760559,9.508491516113281,-41.104347229003906,-42.65077590942383, 0.22240424156188965
630,1955959305,0.89927405,0.0641663,-0.22740018,0.36807364,6.7610182762146,0.1970738023519516,8.784789085388184,-33.51118087768555,-39.781883239746094, -2.1825811862945557
631,1955975972,0.8985175,0.061472006,-0.23455709,0.3658833,6.698890686035156,-0.035034097731113434,8.607548713684082,-37.33372497558594,-38.838191986083984, -4.043581962585449
632,1955992639,0.8979454,0.05836913,-0.24150811,0.36326465,6.65511417388916,0.09821535646915436,9.632542610168457,-40.10841369628906,-36.423309326171875, -6.56484842300415
633,1956009306,0.89738023,0.05489693,-0.24878982,0.36027628,6.518838882446289,-0.378562867641449,9.921494483947754,-43.84074783325195,-37.69677734375, -8.108335494995117
634,1956025973,0.89679605,0.05129951,-0.25648445,0.35684884,7.5351457595825195,-0.18172580003738403,10.453124046325684,-46.37799835205078,-40.16039276123047, -10.384965896606445
635,1956042640,0.8959794,0.047530636,-0.26496482,0.35320765,6.192842483520508,-0.12124492228031158,10.63502025604248,-49.6634407043457,-45.088382720947266, -10.536032676696777
636,1956059307,0.89513516,0.04331815,-0.27284446,0.34987506,6.251297473907471,-0.23774227499961853,10.359820365905762,-50.37967300415039,-40.30621337890625, -7.950991630554199
637,1956075974,0.89439046,0.036833502,-0.28093398,0.34609997,6.973182201385498,-0.34446585178375244,10.318930625915527,-65.7310562133789,-36.12492752075195, -6.568508625030518
638,1956092641,0.89353544,0.030793061,-0.28844634,0.34270272,6.158001899719238,-1.2623547315597534,8.882357597351074,-60.87757110595703,-33.786136627197266, -4.975351810455322
639,1956109308,0.8921757,0.026989676,-0.29743364,0.33886206,6.113325595855713,-2.4265077114105225,10.25727367401123,-51.37403869628906,-49.2487907409668, -10.634086608886719
640,1956125975,0.8897537,0.029215066,-0.30702445,0.3364833,5.043962478637695,-2.7849795818328857,8.852609634399414,-12.587085723876953,-68.9474105834961, -11.41834545135498
641,1956142642,0.8866755,0.03281586,-0.31780803,0.33425707,6.590108871459961,-2.083418130874634,10.936311721801758,-6.450520038604736,-80.83155059814453, -11.656105041503906
642,1956159309,0.88323396,0.039762694,-0.3264513,0.33428454,5.74236536026001,-1.743642807006836,13.043889045715332,23.881343841552734,-75.80699920654297, -4.897256851196289
643,1956175976,0.8795213,0.0455646,-0.33460507,0.33526948,5.8873724937438965,-3.6864168643951416,14.413018226623535,20.277427673339844,-70.63371276855469, 3.9571666717529297
644,1956192643,0.8751768,0.05114065,-0.34213597,0.33822057,6.633535385131836,-4.568974018096924,12.0277738571167,25.09194564819336,-67.27880096435547, 17.58753776550293
645,1956209310,0.8709893,0.05447869,-0.3504723,0.33996883,7.443173885345459,-1.438523769378662,10.985307693481445,6.910109519958496,-67.03480529785156, 15.492403030395508
646,1956225977,0.867783,0.050943144,-0.36039305,0.3383406,6.860373020172119,-0.5048953890800476,13.255837440490723,-46.46458053588867,-59.397701263427734, 10.12664794921875
647,1956242644,0.865549,0.042100832,-0.3702925,0.33456847,5.973446369171143,-1.8396915197372437,14.911202430725098,-83.75485229492188,-45.34294509887695, 8.21856689453125
648,1956259311,0.8637309,0.032733113,-0.3784466,0.3311733,5.767280578613281,-3.1206247806549072,13.496570587158203,-82.04084777832031,-32.68029022216797, 10.324542045593262
649,1956275978,0.862139,0.024897277,-0.38475817,0.32872167,5.689419269561768,-3.14408278465271,11.119034767150879,-66.34452819824219,-24.508840560913086, 10.985326766967773
650,1956292645,0.86065596,0.018281732,-0.3903941,0.32638887,5.973604679107666,-3.0951943397521973,9.025999069213867,-57.28515625,-23.009187698364258, 8.075761795043945
651,1956309312,0.85905087,0.014339388,-0.39534062,0.32485667,7.0144124031066895,-3.499438762664795,8.602590560913086,-37.7459831237793,-25.18447494506836, 5.807844161987305
652,1956325979,0.8573743,0.014037743,-0.3990282,0.32479072,6.782586097717285,-3.1913342475891113,8.993866920471191,-9.429417610168457,-25.942506790161133, 4.5892767906188965
653,1956342646,0.85564286,0.017948512,-0.4019028,0.32561877,6.895796775817871,-2.6144559383392334,8.721283912658691,19.682537078857422,-30.641103744506836, -1.663770318031311
654,1956359313,0.8537643,0.024633523,-0.40456897,0.3268086,9.000275611877441,-2.8355138301849365,7.543333530426025,37.486629486083984,-36.00265884399414, -6.9040985107421875
655,1956375980,0.8520424,0.03251646,-0.40660447,0.3280845,9.534978866577148,-2.4472835063934326,9.578660011291504,46.157447814941406,-34.52775573730469, -10.18805980682373
656,1956392647,0.8509003,0.03834319,-0.40881768,0.32766885,10.953329086303711,-2.7994134426116943,10.71117877960205,28.848478317260742,-29.68934440612793, -15.615812301635742
657,1956409314,0.8505114,0.04451962,-0.4099522,0.32647818,12.303762435913086,-3.974208116531372,9.41104507446289,30.947969436645508,-22.25601577758789, -23.111486434936523
658,1956425981,0.85107535,0.05287728,-0.4081828,0.325978,11.74909782409668,-2.719463348388672,8.608126640319824,51.8902702331543,-7.252748966217041, -28.257064819335938
659,1956442648,0.8523086,0.060561065,-0.4046966,0.32576582,10.544547080993652,-1.639620065689087,8.498619079589844,52.36977767944336,6.3069939613342285, -26.80000114440918
660,1956459315,0.85379666,0.06594868,-0.40014535,0.3264445,9.454872131347656,-1.1022117137908936,9.04089069366455,43.66876220703125,18.78291130065918, -16.201339721679688
661,1956475982,0.85558665,0.06914119,-0.39456618,0.3278854,9.558065414428711,-1.2681541442871094,9.541655540466309,35.0458869934082,30.917869567871094, -6.825057029724121
662,1956492649,0.85748357,0.0724646,-0.38714835,0.3310392,10.046143531799316,-1.0853044986724854,9.201958656311035,44.551753997802734,42.53950500488281, 1.7820465564727783
663,1956509316,0.85988444,0.07542702,-0.3769249,0.33591247,9.721351623535156,0.340613454580307,9.471475601196289,53.1310920715332,62.1060791015625, 10.338869094848633
664,1956525983,0.8631279,0.0761933,-0.3645912,0.34099573,8.697248458862305,1.524062991142273,9.854116439819336,45.11146545410156,81.95046997070312, 14.242475509643555
665,1956542650,0.86696714,0.076452665,-0.35019287,0.34624827,8.334128379821777,1.5257599353790283,8.80103588104248,47.02914810180664,96.97002410888672, 14.054571151733398
666,1956559317,0.87148035,0.07682194,-0.3336325,0.3511549,8.038383483886719,1.613495111465454,8.786120414733887,51.6225700378418,111.0432357788086, 9.00060749053955
667,1956575984,0.8765517,0.07624012,-0.31583202,0.3550984,8.02454662322998,1.9107764959335327,8.980134010314941,46.38753128051758,121.54927062988281, 3.4148826599121094
668,1956592651,0.8821119,0.07341017,-0.29709056,0.35808766,7.68212366104126,1.1575086116790771,9.0283842086792,32.78322219848633,133.2803497314453, 0.8683730363845825
669,1956609318,0.88808537,0.06756564,-0.27775335,0.3599894,7.312499046325684,1.2548049688339233,9.38896656036377,13.519355773925781,144.6217803955078, -0.8873027563095093
670,1956625985,0.89433974,0.058484036,-0.2577111,0.361,6.893611907958984,0.5907490253448486,9.371953964233398,-6.350940704345703,157.0718231201172, -1.1699875593185425
671,1956642652,0.9006539,0.047190234,-0.23655419,0.36143863,6.46871280670166,0.47420692443847656,8.978424072265625,-18.2372989654541,169.30467224121094, -1.3726351261138916
672,1956659319,0.9067463,0.034502935,-0.21419269,0.36158282,5.966606616973877,0.16511575877666473,8.474544525146484,-24.287946701049805,179.7860107421875, -0.7756681442260742
673,1956675986,0.9123004,0.021619482,-0.19078995,0.36171782,5.819239616394043,0.3534979820251465,7.499904155731201,-22.814470291137695,185.98707580566406, 0.5349042415618896
674,1956692653,0.91720015,0.008062752,-0.16649736,0.3618806,5.378354072570801,-0.3234718441963196,6.718989372253418,-24.695173263549805,192.4130859375, 3.085299253463745
675,1956709320,0.9212982,-0.005757508,-0.14147887,0.3621609,4.64186954498291,-0.7176983952522278,6.394929885864258,-24.370624542236328,196.7621612548828, 6.072134017944336
676,1956725987,0.92462754,-0.0178785,-0.115491085,0.36249995,4.3662800788879395,-0.540980339050293,5.972497940063477,-11.159271240234375,197.943359375, 6.734032154083252
677,1956742654,0.92720246,-0.028581027,-0.08927956,0.36264023,3.7948718070983887,-0.15594124794006348,6.100618839263916,-1.8287237882614136,195.27902221679688, 6.244723320007324
678,1956759321,0.9291714,-0.03787041,-0.06318261,0.36223537,3.2958617210388184,0.5480830669403076,5.823293209075928,6.442197322845459,190.77975463867188, 3.384288787841797
679,1956775988,0.9306672,-0.046550427,-0.0378317,0.3609162,2.7318897247314453,0.7109612822532654,5.772932529449463,7.950338363647461,184.54579162597656, -1.7486997842788696
680,1956792655,0.931883,-0.05090364,-0.012747538,0.35894388,2.462197780609131,-1.0723578929901123,4.374040603637695,34.710384368896484,172.2510223388672, -6.450326442718506
681,1956809322,0.9329387,-0.049978774,0.011727116,0.35635674,2.100788116455078,-1.6621520519256592,4.965574741363525,66.92818450927734,155.53494262695312, -10.684076309204102
682,1956825989,0.93358326,-0.047104742,0.034639172,0.353559,1.082521677017212,-1.320561408996582,4.938881874084473,75.49506378173828,140.85305786132812, -11.411911010742188
683,1956842656,0.9338061,-0.044340443,0.05483385,0.35076123,0.2926316261291504,-1.5021287202835083,3.971259117126465,68.06133270263672,123.78038024902344, -11.302351951599121
684,1956859323,0.9336492,-0.0422797,0.0714793,0.34842896,-0.8212042450904846,-1.3283207416534424,3.3603975772857666,54.708831787109375,102.68704986572266, -8.748885154724121
685,1956875990,0.93326706,-0.04187268,0.0834821,0.3468289,-1.2726507186889648,-1.1646887063980103,2.1610677242279053,32.5606575012207,76.73104095458984, -5.674812316894531
686,1956892657,0.9327669,-0.043369044,0.09106436,0.3460814,-2.668044328689575,-1.1317708492279053,2.0647940635681152,9.298419952392578,52.71133804321289, -2.2932050228118896
687,1956909324,0.9323406,-0.04460508,0.09506723,0.34599674,-2.5376102924346924,-1.5832722187042236,1.3057236671447754,2.072387218475342,28.865642547607422, 0.8790752291679382
688,1956925991,0.93215555,-0.043980647,0.096568234,0.3461596,-2.887363910675049,-1.2669754028320312,2.278165817260742,7.977867603302002,8.143158912658691, 2.3418538570404053
689,1956942658,0.932244,-0.040358525,0.096415706,0.34640533,-2.8083648681640625,-1.2599576711654663,2.3437917232513428,23.29769515991211,-9.82123851776123, 3.710206985473633
690,1956959325,0.93252647,-0.034486763,0.094588645,0.34678236,-2.6289680004119873,-0.899689793586731,2.9784743785858154,33.71027755737305,-26.101491928100586, 5.115753173828125
691,1956975992,0.9328723,-0.02680856,0.091793545,0.34728205,-2.704345226287842,-0.6167949438095093,5.028664588928223,42.93051528930664,-36.7064094543457, 6.697508335113525
692,1956992659,0.93309164,-0.019596765,0.08785746,0.3481915,-2.7876360416412354,-0.055789679288864136,6.461321830749512,36.941707611083984,-42.924129486083984, 9.119935989379883
693,1957009326,0.9332048,-0.013575778,0.08320509,0.34931585,-2.6735994815826416,0.3432939648628235,7.161506175994873,27.446786880493164,-44.64948272705078, 9.938782691955566
