PacketCounter,SampleTimeFine,Quat_W,Quat_X,Quat_Y,Quat_Z,Acc_X,Acc_Y,Acc_Z,Gyr_X,Gyr_Y,Gyr_Z 
2,1332779953,0.8485099,0.096492544,-0.2937641,0.42944485,6.739448547363281,-1.1719825267791748,9.18488597869873,14.667308807373047,-51.87018585205078, 7.364053726196289
3,1332796620,0.84550655,0.10405152,-0.29879105,0.43013486,6.096780300140381,-0.10792754590511322,10.085824966430664,24.462432861328125,-47.32892990112305, 7.988470554351807
4,1332813287,0.8443659,0.112744644,-0.29615372,0.4320046,6.823731899261475,-0.6476057767868042,9.142454147338867,34.26689147949219,-41.760643005371094, 13.131382942199707
5,1332829954,0.8416062,0.12303891,-0.29479605,0.4354949,8.109174728393555,-1.0933302640914917,10.689156532287598,56.78025436401367,-38.71826171875, 17.74240493774414
6,1332846621,0.83785754,0.13400048,-0.2940501,0.43996957,6.872645378112793,-0.5917795300483704,10.362171173095703,74.27921295166016,-37.866851806640625, 16.748126983642578
7,1332863288,0.8344034,0.1432384,-0.29283118,0.44441378,6.546793460845947,0.35104358196258545,11.21950912475586,67.48828887939453,-37.4943962097168, 16.998708724975586
8,1332879955,0.8313414,0.15129367,-0.29089546,0.44873357,6.659545421600342,-1.1650954484939575,9.925921440124512,57.044654846191406,-40.17753219604492, 20.86823844909668
9,1332896622,0.82687277,0.1598357,-0.2902723,0.45439652,6.38577127456665,-2.1377053260803223,11.534729957580566,68.21175384521484,-48.3338737487793, 27.108585357666016
10,1332913289,0.82199955,0.16724527,-0.28997296,0.46071872,6.264232158660889,-0.6280898451805115,11.727655410766602,71.7741928100586,-52.87082290649414, 27.53296661376953
11,1332929956,0.81745154,0.17411451,-0.28963548,0.46644267,5.952785015106201,-0.07825867086648941,11.3856782913208,66.26576232910156,-54.92353439331055, 25.17152976989746
12,1332946623,0.8146211,0.1869031,-0.28102848,0.47168085,6.533109664916992,2.001882314682007,11.950864791870117,120.82178497314453,-26.382129669189453, -2.2433831691741943
13,1332963290,0.8109435,0.19566481,-0.28213978,0.4737967,4.884157180786133,3.186953067779541,9.39968204498291,55.35526657104492,-73.24690246582031, 9.373838424682617
14,1332979957,0.8072618,0.19883092,-0.29076943,0.47354835,6.474845886230469,2.2897043228149414,8.319794654846191,-11.384516716003418,-98.40132141113281, 22.754169464111328
15,1332996624,0.8034934,0.20120865,-0.3011807,0.4724444,6.950189590454102,1.3765015602111816,10.582856178283691,-25.365758895874023,-100.80805969238281, 23.908611297607422
16,1333013291,0.80079937,0.20211981,-0.31066653,0.47048336,5.811295032501221,1.851697564125061,12.282822608947754,-33.30615997314453,-88.44353485107422, 17.033390045166016
17,1333029958,0.79795367,0.20534344,-0.31770363,0.46922126,6.6250104904174805,3.964313507080078,10.88817310333252,-11.226573944091797,-84.95014953613281, 13.532682418823242
18,1333046625,0.79574054,0.20758404,-0.3241817,0.46755978,7.143148422241211,3.038857936859131,9.97624683380127,-19.45065689086914,-77.39974212646484, 13.65343952178955
19,1333063292,0.79294366,0.21243653,-0.3281271,0.46737975,6.383687973022461,1.7690691947937012,11.833555221557617,6.222403049468994,-69.14900970458984, 15.34296703338623
20,1333079959,0.7897559,0.21990845,-0.32854423,0.4690253,5.970781326293945,3.0085642337799072,13.283564567565918,37.341217041015625,-57.60361099243164, 15.183259963989258
21,1333096626,0.7868932,0.22721244,-0.3265069,0.47177,5.426049709320068,2.3920204639434814,12.661871910095215,46.07137680053711,-43.6591911315918, 17.73925018310547
22,1333113293,0.78377724,0.23576494,-0.32217732,0.4757207,5.66092586517334,2.5935821533203125,11.314765930175781,63.815223693847656,-35.45604705810547, 18.93360137939453
23,1333129960,0.7810865,0.2430165,-0.3175429,0.4795972,6.419190883636475,3.5931506156921387,10.301017761230469,57.27079391479492,-28.44061279296875, 19.75922393798828
24,1333146627,0.77962524,0.24716552,-0.31364956,0.48240855,6.180319309234619,3.5890135765075684,10.291242599487305,33.503273010253906,-19.700918197631836, 18.53648567199707
25,1333163294,0.7793434,0.24861814,-0.3103101,0.4842733,6.389367580413818,3.8312227725982666,10.738834381103516,13.078849792480469,-11.583800315856934, 16.419443130493164
26,1333179961,0.7802134,0.2474101,-0.30765548,0.48518413,6.515094757080078,3.373115062713623,10.950767517089844,-7.546520709991455,-4.659005641937256, 14.255446434020996
27,1333196628,0.7814231,0.24477491,-0.3059424,0.48565674,7.42618989944458,2.7970404624938965,9.37267017364502,-19.620445251464844,-4.1859307289123535, 14.865891456604004
28,1333213295,0.7828747,0.24174206,-0.30420968,0.48592654,9.008244514465332,3.02093768119812,9.052647590637207,-22.138309478759766,-0.602540135383606, 12.885746955871582
29,1333229962,0.7841733,0.2383662,-0.30261675,0.4864947,10.114606857299805,2.6697335243225098,8.954998970031738,-23.36532211303711,2.567840099334717, 15.18321704864502
30,1333246629,0.78543776,0.23396137,-0.30245095,0.48669606,11.605621337890625,4.506937026977539,7.211701393127441,-34.07841873168945,0.3968515396118164, 16.904176712036133
31,1333263296,0.78790575,0.22625324,-0.30385467,0.48547572,11.115669250488281,3.694711208343506,8.009716987609863,-62.58878707885742,6.770169258117676, 14.417146682739258
32,1333279963,0.7898749,0.22107555,-0.30405948,0.48453242,10.096701622009277,2.354811191558838,7.91966438293457,-43.63718032836914,6.784551620483398, 10.016936302185059
33,1333296630,0.7917894,0.219904,-0.3019298,0.48327026,9.761646270751953,2.873352289199829,8.429733276367188,-14.307830810546875,7.476706027984619, -4.127349376678467
34,1333313297,0.79436135,0.22081445,-0.29793683,0.4811081,9.817793846130371,3.2848870754241943,9.29065990447998,0.5596833229064941,12.16767406463623, -18.709060668945312
35,1333329964,0.7982972,0.2205389,-0.29309043,0.4776844,9.830790519714355,3.2895665168762207,9.386873245239258,-7.643277168273926,22.660097122192383, -29.22408103942871
36,1333346631,0.8039761,0.21829957,-0.28686512,0.4729441,9.211851119995117,2.124851703643799,9.842144966125488,-19.071863174438477,39.05226516723633, -40.63302993774414
37,1333363298,0.8107038,0.2157035,-0.27802512,0.46790332,8.650419235229492,0.8628000020980835,9.778156280517578,-14.251688003540039,56.770347595214844, -49.58744430541992
38,1333379965,0.8181443,0.21283697,-0.26675865,0.46279615,8.702916145324707,0.40176403522491455,9.48116683959961,-8.385543823242188,72.8079605102539, -56.26939392089844
39,1333396632,0.8259876,0.20956086,-0.253442,0.45781654,9.20033073425293,-0.03870701417326927,9.761944770812988,-3.726346731185913,87.09068298339844, -60.056602478027344
40,1333413299,0.8339073,0.20531215,-0.23854855,0.45336553,9.109353065490723,-0.8002426624298096,10.435505867004395,-2.627309799194336,100.65435028076172, -58.8838005065918
41,1333429966,0.8417377,0.19947697,-0.22241187,0.4496886,8.713041305541992,-1.2108145952224731,10.694731712341309,-5.455904006958008,114.24443054199219, -54.38303756713867
42,1333446633,0.84938544,0.19147724,-0.20518309,0.4469686,7.921498775482178,-1.3061962127685547,10.514593124389648,-11.8641996383667,128.8129425048828, -47.47749710083008
43,1333463300,0.85670155,0.18143488,-0.18707186,0.44513828,7.4478440284729,-1.4350669384002686,9.55837631225586,-18.4276123046875,141.41468811035156, -40.4147834777832
44,1333479967,0.86375463,0.16950633,-0.16859978,0.4435875,6.8997979164123535,-0.821649968624115,8.917218208312988,-26.868572235107422,149.9188995361328, -36.73786544799805
45,1333496634,0.87045175,0.15578607,-0.14973305,0.4422949,6.277042388916016,-0.9347079396247864,8.882308006286621,-34.954917907714844,158.2443084716797, -33.04679489135742
46,1333513301,0.8765394,0.14130834,-0.12991828,0.44139773,6.0313215255737305,-0.7250277996063232,8.609487533569336,-34.94161605834961,166.5839080810547, -29.495563507080078
47,1333529968,0.88183516,0.12689964,-0.10927942,0.44081914,5.288865089416504,-0.4386117458343506,8.025965690612793,-30.482728958129883,171.55059814453125, -26.353958129882812
48,1333546635,0.8863133,0.112890095,-0.0881626,0.44037712,4.705220699310303,-0.09142398089170456,7.06276798248291,-25.4411563873291,173.29542541503906, -23.973859786987305
49,1333563302,0.8898953,0.099405594,-0.066863075,0.44015276,4.131911277770996,0.12089945375919342,7.0672712326049805,-20.641477584838867,172.9846649169922, -20.515371322631836
50,1333579969,0.8925816,0.086905435,-0.04535873,0.4401003,3.6661763191223145,0.18091659247875214,6.536572456359863,-13.159255027770996,171.42041015625, -17.42510223388672
51,1333596636,0.89448017,0.07507052,-0.023555715,0.44013077,2.956590175628662,0.10406775027513504,6.678090572357178,-7.568434715270996,171.4651641845703, -14.959290504455566
52,1333613303,0.89552087,0.06490537,-0.0010816945,0.44025972,2.319331645965576,0.03791077435016632,6.804111480712891,5.302920818328857,170.7586212158203, -12.40639591217041
53,1333629970,0.8957301,0.05674269,0.02166339,0.4404299,2.189271926879883,0.33444422483444214,6.538941383361816,18.9442081451416,166.60096740722656, -9.781424522399902
54,1333646637,0.8952148,0.049420077,0.04411941,0.44068304,1.7509709596633911,0.21112042665481567,6.171665191650391,23.5674991607666,162.65725708007812, -6.857302188873291
55,1333663304,0.89424247,0.042709213,0.06560122,0.44068488,1.2611579895019531,0.7470417022705078,5.485858917236328,24.683652877807617,155.05577087402344, -6.513838768005371
56,1333679971,0.8929187,0.037672203,0.08551147,0.44041473,0.24617281556129456,0.8493250608444214,4.882613182067871,30.405420303344727,140.53494262695312, -5.918297290802002
57,1333696638,0.8915324,0.033358224,0.10270073,0.43989772,-0.4383818805217743,1.601427435874939,4.7261271476745605,26.71034049987793,121.59791564941406, -6.118850231170654
58,1333713305,0.8901902,0.029401304,0.11658855,0.43943626,-1.454803705215454,1.6256753206253052,4.223146915435791,18.696796417236328,100.1665267944336, -4.912900924682617
59,1333729972,0.8889513,0.02636291,0.12743993,0.4391238,-2.127490520477295,1.193355679512024,3.742690324783325,14.839313507080078,78.52190399169922, -2.957949161529541
60,1333746639,0.8879481,0.025178142,0.1353652,0.43885157,-2.246734619140625,1.4166147708892822,2.74090838432312,17.158279418945312,54.53127670288086, -1.241141676902771
61,1333763306,0.8873424,0.025588367,0.14012086,0.4385603,-2.4627671241760254,1.6328579187393188,2.1294519901275635,17.137304306030273,29.671005249023438, -0.5055711269378662
62,1333779973,0.8871971,0.027164726,0.14168018,0.43825835,-2.7899866104125977,1.779234766960144,1.965645670890808,14.366129875183105,5.864781379699707, -0.2554996609687805
63,1333796640,0.8874814,0.029287556,0.14007853,0.4380606,-3.0057382583618164,2.0381247997283936,2.807847499847412,7.805356502532959,-15.82971477508545, 0.23350483179092407
64,1333813307,0.888158,0.030861612,0.13563707,0.4379787,-2.7584688663482666,3.0510997772216797,4.807678699493408,-4.475631237030029,-32.203224182128906, -0.1672515571117401
65,1333829974,0.8891062,0.030494642,0.1287696,0.43815362,-2.112879753112793,3.805960178375244,5.638179302215576,-24.189651489257812,-41.605018615722656, -0.7105020880699158
66,1333846641,0.89032614,0.026317708,0.11717406,0.43920043,-1.8553472757339478,3.110309362411499,2.749394178390503,-62.87489700317383,-59.20743942260742, 1.4045798778533936
67,1333863308,0.8923556,0.020379836,0.09321834,0.44113106,4.248384475708008,0.5237253308296204,-10.753518104553223,-112.13343048095703,-130.21343994140625, 5.2108893394470215
68,1333879975,0.89545524,0.011138625,0.06042921,0.44089028,11.878334045410156,-5.090177059173584,5.196811199188232,-158.1652069091797,-175.09664916992188, -12.220673561096191
69,1333896642,0.8972915,0.016072778,0.03266244,0.43993512,4.099844455718994,-9.65891170501709,10.044322967529297,-54.5416259765625,-185.1591033935547, -7.274271011352539
70,1333913309,0.89829516,0.02555095,0.0055280784,0.43861443,2.368265151977539,-3.5108718872070312,7.219142436981201,-23.197315216064453,-194.35006713867188, -6.042519569396973
71,1333929976,0.8988128,0.0332404,-0.021377545,0.4365478,0.7983599305152893,1.2533352375030518,4.846638202667236,-33.026268005371094,-187.44180297851562, -9.343850135803223
72,1333946643,0.89865744,0.03857226,-0.0464945,0.43447158,2.158245086669922,1.5768036842346191,4.298922538757324,-42.23350143432617,-169.41940307617188, -7.4453125
73,1333963310,0.897898,0.045455232,-0.06623034,0.43281275,2.6652581691741943,2.745600700378418,7.211082935333252,-16.46749496459961,-140.7600860595703, -4.972827434539795
74,1333979977,0.8973301,0.0521863,-0.08195923,0.43053237,3.7402801513671875,2.0337719917297363,5.912847518920898,-6.119139671325684,-115.57221221923828, -10.519969940185547
75,1333996644,0.89652324,0.058696575,-0.09459295,0.4287809,4.1390557289123535,-0.3706466257572174,7.902156352996826,1.8547078371047974,-95.55905151367188, -7.503726959228516
76,1334013311,0.89562064,0.06542721,-0.105512366,0.42714196,4.81027889251709,-0.25450757145881653,7.8993239402771,8.429444313049316,-85.48604583740234, -7.3889970779418945
77,1334029978,0.8950499,0.06808994,-0.116856955,0.4249635,4.852732181549072,0.18989145755767822,8.86884880065918,-18.373823165893555,-75.94934844970703, -8.567032814025879
78,1334046645,0.8939211,0.0692617,-0.12858982,0.42376018,5.609111309051514,-1.9576880931854248,7.170247554779053,-27.641817092895508,-73.81571197509766, 0.4542575776576996
79,1334063312,0.89234394,0.07164801,-0.13922086,0.42332804,5.695295333862305,0.925403356552124,8.686168670654297,-15.874044418334961,-70.35981750488281, 4.844366550445557
80,1334079979,0.8907828,0.075432,-0.14721406,0.42325398,6.091989040374756,0.032231513410806656,8.256991386413574,0.6369249820709229,-57.864200592041016, 4.379650592803955
81,1334096646,0.88914275,0.081241384,-0.1529029,0.4236106,6.544220447540283,1.026350498199463,9.582131385803223,20.22946548461914,-49.291141510009766, 3.9761621952056885
82,1334113313,0.887418,0.08675237,-0.15731798,0.424517,6.318843841552734,1.0410401821136475,9.782011985778809,22.663293838500977,-40.22990417480469, 7.178711414337158
83,1334129980,0.88516766,0.09376947,-0.16017127,0.42665073,6.374970436096191,0.5856508612632751,9.070700645446777,37.98931121826172,-34.79511260986328, 13.6220121383667
84,1334146647,0.8827007,0.10114018,-0.16195889,0.42939445,6.060949325561523,1.2797373533248901,9.501484870910645,44.069358825683594,-29.04305076599121, 16.841394424438477
85,1334163314,0.8803731,0.107825786,-0.1633053,0.43202785,5.639832496643066,1.7096465826034546,9.446110725402832,40.93806457519531,-24.171979904174805, 16.182891845703125
86,1334179981,0.87765366,0.1150621,-0.1641669,0.43535522,6.118108749389648,0.29796460270881653,10.050338745117188,46.70338439941406,-22.7514591217041, 20.550518035888672
87,1334196648,0.87453693,0.123383895,-0.16491146,0.4390511,7.006635665893555,0.12228749692440033,11.563490867614746,54.38801574707031,-25.39678192138672, 22.559629440307617
88,1334213315,0.8713847,0.13092777,-0.16630413,0.44259426,5.977447032928467,0.6928617358207703,10.422998428344727,47.6959228515625,-27.0530948638916, 23.07781410217285
89,1334229982,0.86822194,0.13676369,-0.16907245,0.44598317,7.350622653961182,0.24934297800064087,11.441924095153809,33.153236389160156,-30.23979949951172, 25.316064834594727
90,1334246649,0.864829,0.14196548,-0.17412195,0.4489973,5.861466407775879,0.029274331405758858,11.64578914642334,22.243526458740234,-42.46151351928711, 26.589319229125977
91,1334263316,0.8611364,0.14745422,-0.18041892,0.45183027,5.111828804016113,-0.3623911440372467,12.704155921936035,20.282407760620117,-51.37022018432617, 27.250526428222656
92,1334279983,0.85730255,0.15284528,-0.18658364,0.45481545,6.4703593254089355,-0.6890662908554077,11.537308692932129,20.588638305664062,-50.48807907104492, 28.51175308227539
93,1334296650,0.85291827,0.15992036,-0.19303064,0.45792487,6.013604164123535,-0.6551496982574463,11.860404968261719,30.523149490356445,-58.04513931274414, 29.00279998779297
94,1334313317,0.8484406,0.16729598,-0.20057772,0.46035814,5.713258266448975,1.1742408275604248,13.492818832397461,28.171499252319336,-66.42720031738281, 26.042797088623047
95,1334329984,0.8445648,0.17239524,-0.20942712,0.4616606,5.611203670501709,1.6374932527542114,13.267435073852539,8.538257598876953,-67.50971984863281, 22.169095993041992
96,1334346651,0.84086853,0.17895769,-0.21682233,0.46249583,5.453113079071045,0.6160687208175659,11.862133979797363,20.748088836669922,-64.23877716064453, 15.074678421020508
97,1334363318,0.8362156,0.18843885,-0.22484502,0.46333483,5.622119903564453,0.7241132855415344,9.387239456176758,36.84513854980469,-78.77505493164062, 14.523330688476562
98,1334379985,0.8312234,0.1958478,-0.23650001,0.46344292,6.208518028259277,1.298435926437378,8.124326705932617,12.678537368774414,-94.62931823730469, 19.27737045288086
99,1334396652,0.8267085,0.20072067,-0.2495769,0.46257514,7.0921478271484375,1.9780348539352417,9.4254789352417,-8.614119529724121,-95.22988891601562, 18.22147560119629
100,1334413319,0.8247907,0.1973533,-0.2646785,0.45903975,7.587708473205566,2.743964195251465,11.398862838745117,-70.12092590332031,-79.78832244873047, 11.805747032165527
101,1334429986,0.8229798,0.19583468,-0.2764514,0.45599073,5.328714370727539,1.5043139457702637,14.118573188781738,-48.4940071105957,-66.00616455078125, 6.479328632354736
102,1334446653,0.81974596,0.2011163,-0.28279302,0.4556285,5.456161975860596,1.457661509513855,13.769878387451172,14.016133308410645,-56.10018539428711, 5.974175453186035
103,1334463320,0.8159338,0.20932394,-0.28606018,0.45673308,5.720954418182373,2.5840909481048584,11.674030303955078,43.768211364746094,-47.44860076904297, 6.149924278259277
104,1334479987,0.8121951,0.21719056,-0.2882589,0.45833853,5.764214038848877,2.1098952293395996,10.837359428405762,46.00027084350586,-39.81783676147461, 7.944408893585205
105,1334496654,0.8083698,0.22481571,-0.28985763,0.46041173,5.518265724182129,1.982890009880066,9.937566757202148,47.54463195800781,-35.43938446044922, 10.470662117004395
106,1334513321,0.80446047,0.2324474,-0.2904363,0.46309644,5.968453407287598,2.2601306438446045,9.662558555603027,52.11496353149414,-29.24553871154785, 12.59811019897461
107,1334529988,0.8005308,0.24117412,-0.28917432,0.46622294,6.20008659362793,3.51543927192688,10.061410903930664,64.89459228515625,-22.08251190185547, 10.036985397338867
108,1334546655,0.79721016,0.24809381,-0.2885084,0.46868798,6.662903785705566,4.0845723152160645,9.432526588439941,50.604679107666016,-19.662979125976562, 9.142340660095215
109,1334563322,0.79480886,0.25139713,-0.28923044,0.47055754,7.099526882171631,3.0380332469940186,9.784085273742676,23.428390502929688,-14.957531929016113, 12.598551750183105
110,1334579989,0.79235727,0.25474888,-0.2899452,0.47244585,8.09981632232666,2.7232089042663574,9.642021179199219,23.773178100585938,-15.28641414642334, 12.838863372802734
111,1334596656,0.7894839,0.25786012,-0.29071832,0.47508562,10.032205581665039,2.62587833404541,9.274659156799316,24.46504020690918,-14.432418823242188, 18.945018768310547
112,1334613323,0.78676075,0.25905105,-0.29256684,0.4778127,11.984886169433594,4.668100357055664,8.01621150970459,10.393108367919922,-13.51072883605957, 24.704456329345703
113,1334629990,0.78635097,0.2530063,-0.29811853,0.4782944,11.725326538085938,5.363657474517822,7.6456708908081055,-49.70853042602539,-8.928176879882812, 26.223369598388672
114,1334646657,0.7877243,0.24242547,-0.30523595,0.4770237,10.051822662353516,3.2737584114074707,8.512222290039062,-86.2791748046875,-1.6872713565826416, 23.071834564208984
115,1334663324,0.7891048,0.23457189,-0.31025746,0.47542602,8.98530387878418,2.8119986057281494,8.581318855285645,-65.42660522460938,0.23641528189182281, 12.158646583557129
116,1334679991,0.7913138,0.22900526,-0.31283793,0.47277004,8.753714561462402,3.807868719100952,8.942549705505371,-48.72013473510742,6.053056240081787, -5.018710136413574
117,1334696658,0.7949711,0.22343987,-0.31341252,0.46890128,8.970357894897461,3.164635419845581,8.79460334777832,-47.232643127441406,18.120906829833984, -19.35105323791504
118,1334713325,0.79983294,0.21813668,-0.31143448,0.46442682,9.064163208007812,2.493844985961914,9.073127746582031,-40.851097106933594,32.8653564453125, -30.932796478271484
119,1334729992,0.80564594,0.21365549,-0.30635715,0.45981655,8.755645751953125,1.0856860876083374,9.0090970993042,-28.250770568847656,49.08681106567383, -41.067970275878906
120,1334746659,0.81201035,0.21056145,-0.2979448,0.45555717,8.614523887634277,0.49706417322158813,9.46463394165039,-10.123248100280762,64.82209777832031, -48.70155334472656
121,1334763326,0.81872916,0.20882656,-0.286751,0.4514951,8.377382278442383,0.46611541509628296,9.230687141418457,6.071345806121826,77.06624603271484, -55.57099914550781
122,1334779993,0.82581365,0.20738181,-0.27335134,0.44755298,8.32856273651123,-0.019340258091688156,9.45716667175293,14.270867347717285,89.45569610595703, -59.83163070678711
123,1334796660,0.8331677,0.20547634,-0.25821653,0.44377404,8.291522979736328,-1.002194881439209,9.748602867126465,16.962400436401367,101.4568099975586, -61.42982864379883
124,1334813327,0.840642,0.20237008,-0.24160281,0.4404491,8.322071075439453,-0.9965904951095581,9.759269714355469,15.343388557434082,114.45257568359375, -59.28512191772461
125,1334829994,0.84829664,0.19632483,-0.22465296,0.43747067,7.743165493011475,-1.1670513153076172,9.608746528625488,-0.17892935872077942,126.11312103271484, -53.5480842590332
126,1334846661,0.85601014,0.18736266,-0.20735122,0.43491107,6.946690559387207,-0.9335939884185791,9.392312049865723,-15.421621322631836,137.64022827148438, -47.37709045410156
127,1334863328,0.8635945,0.17608152,-0.1894847,0.4327764,6.862123489379883,-0.9845441579818726,9.102690696716309,-26.473094940185547,148.30426025390625, -42.014705657958984
128,1334879995,0.87089396,0.16306087,-0.17101236,0.43094072,6.661265850067139,-0.7856728434562683,9.037866592407227,-34.12474060058594,157.15164184570312, -37.953155517578125
129,1334896662,0.8775451,0.1491179,-0.15227243,0.42952496,6.028910160064697,-0.8806700706481934,8.882393836975098,-37.506351470947266,161.30389404296875, -32.81169128417969
130,1334913329,0.88348055,0.13443358,-0.13336389,0.42849043,5.643031597137451,-0.4158051609992981,8.129901885986328,-40.214385986328125,164.26295471191406, -27.849958419799805
131,1334929996,0.88844573,0.11965917,-0.11369251,0.42827523,5.132107257843018,-0.9973426461219788,7.341982841491699,-36.77109909057617,169.16920471191406, -20.676273345947266
132,1334946663,0.8923936,0.10510436,-0.09346802,0.4287781,4.8877716064453125,-0.6499769687652588,6.874818801879883,-32.27825164794922,171.8513641357422, -13.953557014465332
133,1334963330,0.895387,0.09074872,-0.07311855,0.42976812,4.435048580169678,-0.3023535907268524,7.095904350280762,-29.587820053100586,171.9434051513672, -8.384949684143066
134,1334979997,0.8975916,0.07707916,-0.052763816,0.43081793,3.805737018585205,0.4620938301086426,7.445211887359619,-24.753040313720703,169.75265502929688, -6.04006290435791
135,1334996664,0.8991663,0.063935675,-0.03273333,0.43167228,2.893120288848877,0.34950870275497437,7.17500114440918,-22.18107795715332,166.0020294189453, -5.390431880950928
136,1335013331,0.9002265,0.05138134,-0.013471243,0.4321699,2.488067865371704,0.9127044081687927,6.855352878570557,-20.65017318725586,159.33609008789062, -5.851908206939697
137,1335029998,0.90085334,0.039176702,0.0048643867,0.43232495,1.9708123207092285,0.8978777527809143,6.6020097732543945,-21.135793685913086,152.50477600097656, -6.37453556060791
138,1335046665,0.9009952,0.028922891,0.022723386,0.43226746,1.061843752861023,0.5368451476097107,5.636877059936523,-10.353860855102539,143.80064392089844, -6.049280166625977
139,1335063332,0.9005809,0.02207814,0.040305745,0.4322526,0.251947283744812,0.4472196400165558,5.512442111968994,10.040972709655762,132.0953826904297, -3.541571855545044
140,1335079999,0.89972395,0.019261904,0.05734985,0.43224642,-0.6478715538978577,0.5081065893173218,4.943133354187012,33.45077133178711,116.91844177246094, -0.9793269634246826
141,1335096666,0.8985775,0.01969191,0.07347592,0.43217137,-0.959771454334259,0.5448316931724548,4.583263397216797,50.865753173828125,101.651611328125, 0.8386556506156921
142,1335113333,0.89728385,0.023093771,0.08854184,0.4318671,-1.4054795503616333,0.7274212837219238,4.433366775512695,66.2081069946289,86.2569808959961, 1.4813655614852905
143,1335130000,0.8960339,0.02815435,0.101356685,0.43134376,-1.9504408836364746,1.0233880281448364,3.151498317718506,69.87136840820312,67.3031005859375, 1.3403377532958984
144,1335146667,0.89501244,0.03333657,0.11058242,0.43082818,-2.3466594219207764,1.4767602682113647,2.8153820037841797,59.890602111816406,44.5539665222168, 1.4691283702850342
145,1335163334,0.8943837,0.036273796,0.115269296,0.43066847,-2.6379494667053223,1.8158210515975952,3.329068422317505,32.207637786865234,22.91543197631836, 1.817147970199585
146,1335180001,0.8943617,0.03648304,0.1153823,0.43066603,-2.7529797554016113,1.8096836805343628,3.198237657546997,1.536960482597351,2.2789604663848877, -0.02956986427307129
147,1335196668,0.89489144,0.03559347,0.11190046,0.4305587,-2.6514265537261963,1.483241319656372,3.4320619106292725,-15.996530532836914,-17.187061309814453, -2.2632575035095215
148,1335213335,0.89573294,0.03318234,0.105514795,0.43061388,-2.7506940364837646,1.2442781925201416,4.868381977081299,-34.212547302246094,-30.888811111450195, -2.6217997074127197
149,1335230002,0.8967813,0.029333387,0.097137086,0.43068245,-2.7639496326446533,1.744546890258789,6.017899513244629,-49.05221176147461,-39.17725372314453, -3.710434913635254
150,1335246669,0.8978657,0.024593957,0.08788838,0.4307067,-2.638490915298462,1.7122985124588013,7.475525379180908,-57.15335464477539,-42.06498718261719, -4.482391834259033
151,1335263336,0.89881194,0.019031126,0.07849544,0.43082926,-2.4259536266326904,1.694482684135437,7.772791862487793,-62.74457550048828,-40.52046203613281, -3.914274215698242
152,1335280003,0.89954823,0.0137103805,0.06720955,0.43140233,-2.0801658630371094,1.5367313623428345,3.1237971782684326,-67.12056732177734,-52.856468200683594, -0.10856222361326218
153,1335296670,0.9005933,0.01259894,0.0470432,0.4319259,5.439026355743408,2.8958139419555664,-10.002521514892578,-67.50996398925781,-120.5303726196289, 1.473552942276001
154,1335313337,0.90181506,0.010441948,0.019755581,0.43154415,12.2208833694458,-2.777536392211914,5.148146152496338,-95.07709503173828,-161.3832550048828, -4.382298946380615
155,1335330004,0.90183115,0.0190045,-0.0032927126,0.4316584,4.187170028686523,-4.8941650390625,9.623992919921875,-15.821002960205078,-165.92111206054688, 3.418304920196533
156,1335346671,0.9016062,0.029363533,-0.026892122,0.43072143,2.1132688522338867,-0.9495599269866943,8.448105812072754,-5.99838399887085,-174.5695037841797, -2.3587734699249268
157,1335363338,0.9012896,0.0380073,-0.05112155,0.42850843,0.9164985418319702,2.90626859664917,5.664384365081787,-18.65081214904785,-173.58238220214844, -9.558525085449219
158,1335380005,0.90054435,0.04239166,-0.07471596,0.42619318,2.399172306060791,1.8411166667938232,3.775923490524292,-43.269622802734375,-157.26760864257812, -7.562347888946533
159,1335396672,0.89923656,0.046554845,-0.09487246,0.4245064,3.0353004932403564,1.0058120489120483,7.250791549682617,-34.182342529296875,-135.3386688232422, -2.872892379760742
160,1335413339,0.8976381,0.051469397,-0.11169056,0.42322823,3.8902201652526855,0.0926162376999855,8.397197723388672,-19.484399795532227,-116.86734008789062, -1.0252373218536377
161,1335430006,0.8958564,0.056948785,-0.12525003,0.42250538,4.095606803894043,-0.14146360754966736,9.451150894165039,-6.024965286254883,-98.24610900878906, 1.3604457378387451
162,1335446673,0.8939255,0.061413553,-0.13762757,0.42211896,4.96962308883667,0.49951010942459106,8.946233749389648,-8.480533599853516,-87.94325256347656, 4.280838966369629
163,1335463340,0.89224315,0.06391654,-0.15039207,0.42095035,5.570072174072266,0.9166145920753479,8.664113998413086,-22.53016471862793,-84.60895538330078, 0.7921133041381836
164,1335480007,0.8902274,0.06534204,-0.16364509,0.4200547,5.765559196472168,-3.001990556716919,8.194876670837402,-30.17397689819336,-84.5752944946289, 4.796543598175049
165,1335496674,0.8881886,0.06718323,-0.17647186,0.41888574,5.776480197906494,0.21047386527061462,8.242467880249023,-26.530614852905273,-83.17837524414062, 2.4971067905426025
166,1335513341,0.88787305,0.06899778,-0.18748173,0.41445324,5.975344181060791,-1.2382891178131104,8.1189546585083,-15.192654609680176,-72.20046997070312, 3.2018344402313232
167,1335530008,0.8875328,0.073690645,-0.19578157,0.41051805,6.225574970245361,-0.7328354120254517,9.08682918548584,12.405342102050781,-63.6341552734375, 3.471564292907715
168,1335546675,0.8871148,0.07887468,-0.20236667,0.4072516,5.82159948348999,0.30892032384872437,9.582464218139648,22.08495330810547,-54.1203727722168, 6.8097381591796875
169,1335563342,0.8863976,0.083529815,-0.20802276,0.40502924,5.914748191833496,-0.00372215174138546,9.039819717407227,22.55496597290039,-46.566402435302734, 12.117650032043457
170,1335580009,0.88524103,0.08878514,-0.21232343,0.4042084,6.286189079284668,0.3505662977695465,9.75946044921875,30.375869750976562,-39.494815826416016, 15.642165184020996
171,1335596676,0.8826471,0.095408306,-0.21534598,0.4067649,5.759505271911621,0.4059729278087616,10.08996295928955,36.881954193115234,-35.056922912597656, 15.154485702514648
172,1335613343,0.87990266,0.10275786,-0.2172039,0.40992033,6.252455711364746,0.21666103601455688,8.817334175109863,45.523826599121094,-29.84593963623047, 17.34368133544922
173,1335630010,0.8766701,0.11068183,-0.21868846,0.4139739,7.670956611633301,-1.4368598461151123,10.306268692016602,51.747352600097656,-29.242488861083984, 22.992727279663086
174,1335646677,0.8730306,0.120299496,-0.21968022,0.41843322,6.203124523162842,-0.8827093243598938,11.437675476074219,64.37918853759766,-31.316099166870117, 23.578392028808594
175,1335663344,0.8695056,0.12852323,-0.22115044,0.42253345,6.466951370239258,-0.8261247873306274,10.936519622802734,54.07759094238281,-30.34096336364746, 23.514890670776367
176,1335680011,0.8658287,0.13634472,-0.2233899,0.4264361,6.499485969543457,-1.906104326248169,10.870524406433105,49.35191345214844,-34.19588088989258, 23.987756729125977
177,1335696678,0.8615852,0.14551313,-0.22633038,0.43043184,5.775036811828613,-1.8508729934692383,10.775252342224121,56.12544250488281,-43.12961959838867, 24.68076515197754
178,1335713345,0.8571225,0.15429762,-0.2296812,0.4344884,5.583148956298828,-1.2012267112731934,11.477191925048828,53.086299896240234,-44.77799987792969, 26.587478637695312
179,1335730012,0.85324085,0.16634333,-0.22879907,0.43813363,5.887454032897949,1.0026648044586182,12.633277893066406,83.78895568847656,-29.211496353149414, 12.686502456665039
180,1335746679,0.84937316,0.17735504,-0.23073281,0.44031045,4.5815887451171875,2.2578911781311035,10.38554573059082,66.9180908203125,-44.4178581237793, 8.832863807678223
181,1335763346,0.84493995,0.18372257,-0.24062361,0.44093436,5.15778923034668,3.041041374206543,9.080744743347168,13.875572204589844,-79.7562255859375, 18.566282272338867
182,1335780013,0.8404021,0.18585303,-0.25549734,0.44034553,6.311078071594238,2.0468714237213135,8.188214302062988,-27.813350677490234,-97.6379165649414, 25.212594985961914
183,1335796680,0.8356637,0.18762295,-0.27069205,0.43953362,7.427916526794434,1.1391263008117676,10.310101509094238,-31.052345275878906,-99.04110717773438, 25.626392364501953
184,1335813347,0.83023065,0.1928169,-0.28310302,0.4397632,6.22130012512207,2.0471079349517822,11.861305236816406,-0.13375389575958252,-93.38761901855469, 23.758817672729492
185,1335830014,0.8242228,0.20024371,-0.29363716,0.44083607,6.72409725189209,3.390160322189331,10.591771125793457,20.652158737182617,-89.60301208496094, 23.51976776123047
186,1335846681,0.81868017,0.20678231,-0.30312422,0.44172373,7.325481414794922,3.378570318222046,10.57107162475586,17.68004608154297,-80.4178237915039, 21.498201370239258
187,1335863348,0.81338876,0.21345389,-0.31076217,0.44301608,6.4792866706848145,3.465416669845581,12.810137748718262,24.436931610107422,-69.42892456054688, 20.193845748901367
188,1335880015,0.80844146,0.22018258,-0.31657898,0.44465688,5.8130645751953125,4.357870578765869,13.733365058898926,30.459552764892578,-58.422691345214844, 18.398576736450195
189,1335896682,0.80402803,0.22658351,-0.32081193,0.44640636,5.624685287475586,4.233428478240967,13.293872833251953,32.7972297668457,-47.61430358886719, 15.824394226074219
190,1335913349,0.7997787,0.2323961,-0.32412812,0.4486506,5.875455379486084,2.7990283966064453,11.84416389465332,33.093875885009766,-39.928550720214844, 18.063554763793945
191,1335930016,0.79534835,0.23952349,-0.32559308,0.4517066,6.091902732849121,2.8960399627685547,11.461111068725586,48.08499526977539,-33.16756057739258, 17.278518676757812
192,1335946683,0.7918167,0.24512358,-0.32664078,0.45414388,6.135670185089111,3.8247411251068115,11.25062370300293,38.114646911621094,-25.38633155822754, 13.920745849609375
193,1335963350,0.7897435,0.24755424,-0.32865942,0.45497838,6.594040393829346,4.400219440460205,9.161922454833984,11.691206932067871,-20.431745529174805, 9.515542984008789
194,1335980017,0.7891169,0.24722578,-0.3309918,0.4545532,7.817995071411133,4.239449977874756,9.86691951751709,-9.692365646362305,-12.513697624206543, 5.051577568054199
195,1335996684,0.7890718,0.2461508,-0.33304077,0.45371762,9.335830688476562,3.8638710975646973,9.326130867004395,-14.879558563232422,-8.140082359313965, 2.3427891731262207
196,1336013351,0.78940785,0.24361454,-0.33535707,0.4527946,10.565906524658203,3.932723045349121,7.835346221923828,-24.5771427154541,-4.355821132659912, 4.571320533752441
197,1336030018,0.7906839,0.23824391,-0.33896694,0.45073313,10.223325729370117,3.5054543018341064,7.697474002838135,-48.28947067260742,-2.2410659790039062, 4.254029273986816
198,1336046685,0.7923298,0.23242278,-0.34247386,0.44822428,9.359545707702637,2.3442041873931885,7.510370254516602,-52.157997131347656,-0.1180756688117981, 1.63115394115448
199,1336063352,0.793516,0.22992662,-0.3437997,0.44639462,9.256973266601562,2.193845272064209,7.96533203125,-25.041284561157227,1.536586046218872, -4.528630256652832
200,1336080019,0.7945096,0.22951984,-0.34361026,0.44498038,10.04940128326416,3.1623241901397705,8.798134803771973,-7.752058029174805,3.5913827419281006, -8.970046043395996
201,1336096686,0.7961721,0.22744557,-0.34387714,0.4428624,10.911314964294434,3.892561912536621,8.950713157653809,-21.056447982788086,6.6639580726623535, -10.134210586547852
202,1336113353,0.7990597,0.22197568,-0.34455204,0.4399031,10.898021697998047,2.7497549057006836,9.7860107421875,-44.89936065673828,16.361780166625977, -9.715054512023926
203,1336130020,0.80244386,0.21561457,-0.34424883,0.43713498,10.277323722839355,1.1171365976333618,9.677999496459961,-47.210731506347656,25.874361038208008, -9.506266593933105
204,1336146687,0.80630636,0.21158938,-0.34110108,0.4344539,9.37159252166748,-0.23654338717460632,8.911528587341309,-26.291732788085938,35.77352523803711, -20.2249813079834
205,1336163354,0.8107787,0.2108405,-0.33443332,0.43166956,8.689358711242676,-0.12028893828392029,9.762253761291504,1.286906361579895,46.75464630126953, -35.483673095703125
206,1336180021,0.8162493,0.21159221,-0.32469192,0.4284171,8.711786270141602,-0.6122958660125732,10.436347007751465,16.27853775024414,60.98012924194336, -49.02046585083008
207,1336196688,0.82297146,0.21053168,-0.31338945,0.4244782,8.850714683532715,-0.5836861729621887,10.814955711364746,7.406715393066406,76.78881072998047, -54.8656005859375
208,1336213355,0.83109105,0.20623459,-0.3008211,0.4198353,8.614863395690918,-1.3960411548614502,10.885860443115234,-10.690598487854004,95.30750274658203, -57.87407684326172
209,1336230022,0.8399389,0.19994631,-0.28638318,0.41534203,8.043733596801758,-2.1397933959960938,10.036646842956543,-17.296876907348633,113.38216400146484, -57.77394104003906
210,1336246689,0.84896207,0.19282766,-0.26945248,0.41167536,7.767550945281982,-2.3557748794555664,9.46239948272705,-13.454530715942383,131.591552734375, -55.43029022216797
211,1336263356,0.85763866,0.1854814,-0.2502655,0.4091697,7.938655853271484,-1.9259212017059326,9.12444019317627,-5.6443376541137695,146.30020141601562, -50.3819694519043
212,1336280023,0.86577785,0.17717928,-0.22989233,0.40765914,7.81599760055542,-2.07047963142395,8.51323413848877,-5.415693283081055,156.37286376953125, -42.988983154296875
213,1336296690,0.8732404,0.16835245,-0.20849515,0.40698752,7.652727127075195,-1.6130260229110718,8.220386505126953,-3.3799455165863037,163.97799682617188, -36.629512786865234
214,1336313357,0.8797099,0.16066934,-0.18602614,0.407051,6.954629898071289,-1.1094218492507935,8.689846992492676,8.811737060546875,166.7546844482422, -32.41056442260742
215,1336330024,0.88531566,0.15315387,-0.16379854,0.4073454,6.481410026550293,0.45052585005760193,7.443981647491455,10.505369186401367,164.07254028320312, -28.615127563476562
216,1336346691,0.89186734,0.14222585,-0.14344068,0.4046843,5.491430759429932,0.6194573044776917,6.963531017303467,-11.532064437866211,163.20716857910156, -24.471837997436523
217,1336363358,0.89778435,0.13009709,-0.12363392,0.40220985,4.264993190765381,0.34718137979507446,6.3409037590026855,-21.16071319580078,162.55545043945312, -21.160802841186523
218,1336380025,0.9031269,0.11658096,-0.10415861,0.39990187,3.763530731201172,0.8437966704368591,6.793663501739502,-31.348766326904297,163.766357421875, -18.426694869995117
219,1336396692,0.90776366,0.10217372,-0.084909335,0.3978897,2.9340083599090576,0.9844246506690979,6.806965351104736,-37.902259826660156,164.29129028320312, -15.03504467010498
220,1336413359,0.91088086,0.087476075,-0.065681756,0.3979075,2.2533156871795654,1.035717248916626,6.902225017547607,-41.63372039794922,163.60707092285156, -13.134469985961914
221,1336430026,0.91316813,0.073901005,-0.04640236,0.39813247,1.863409161567688,0.7622053027153015,6.670347690582275,-33.877784729003906,160.64210510253906, -10.108311653137207
222,1336446693,0.91453904,0.062071588,-0.027088473,0.3987879,1.6815674304962158,0.5037816166877747,6.3185715675354,-22.220489501953125,156.03720092773438, -5.475975036621094
223,1336463360,0.91518134,0.051522467,-0.00793721,0.39965704,1.603764295578003,0.8246914744377136,5.6498332023620605,-14.256988525390625,151.49893188476562, -2.3079311847686768
224,1336480027,0.9150789,0.043623485,0.011121674,0.4007544,0.8085189461708069,0.707240641117096,5.4107584953308105,2.430239200592041,143.72659301757812, 1.0532516241073608
225,1336496694,0.91443884,0.039900888,0.029900163,0.40164095,0.17256811261177063,1.4734418392181396,5.091345310211182,28.105192184448242,130.45599365234375, 1.6024502515792847
226,1336513361,0.9134531,0.03874022,0.04725545,0.40233028,-0.9542173147201538,1.4509243965148926,4.786379814147949,40.37514877319336,114.4531021118164, 2.223304271697998
227,1336530028,0.91238195,0.039126854,0.062353574,0.4026668,-1.7040342092514038,1.531308650970459,4.177497386932373,43.94568634033203,95.88703918457031, 1.3381688594818115
228,1336546695,0.911332,0.041434847,0.07456729,0.4027371,-2.25913667678833,1.3940807580947876,2.489511728286743,48.076473236083984,72.31980895996094, 1.204846978187561
229,1336563362,0.9105182,0.04390097,0.0830056,0.40266553,-2.183072566986084,2.044642448425293,2.083834171295166,38.572837829589844,47.964134216308594, 0.8189194798469543
230,1336580029,0.91002953,0.045234717,0.087562494,0.40265733,-2.654470205307007,2.2893941402435303,2.959989309310913,20.527963638305664,26.54138946533203, 0.8434487581253052
231,1336596696,0.9100332,0.044761777,0.0882961,0.40254167,-2.862562417984009,2.34540057182312,3.1204209327697754,-1.5274778604507446,7.184549808502197, -1.088130235671997
232,1336613363,0.91052806,0.042821627,0.08522748,0.402295,-2.7123372554779053,2.417696714401245,2.8508269786834717,-21.38113021850586,-12.995759010314941, -2.9790964126586914
233,1336630030,0.9113621,0.039339334,0.07899335,0.40203452,-2.494377613067627,2.736114740371704,4.144222259521484,-39.96607971191406,-28.855609893798828, -3.967313289642334
234,1336646697,0.9123385,0.035189766,0.07100155,0.4016951,-2.5479085445404053,2.155730724334717,5.304598808288574,-49.0904655456543,-38.21078872680664, -4.7354044914245605
235,1336663364,0.9134813,0.031613152,0.06278225,0.40076306,-2.616115093231201,2.104799509048462,6.799731731414795,-45.93334197998047,-41.53071212768555, -8.566900253295898
236,1336680031,0.9147253,0.028911956,0.055206053,0.39924186,-2.576137065887451,2.030245780944824,8.174433708190918,-38.48031234741211,-40.16059875488281, -12.296577453613281
237,1336696698,0.91590047,0.023677945,0.046161387,0.39803907,-2.088818311691284,1.9520004987716675,6.479434013366699,-58.59038162231445,-42.43534469604492, -10.764029502868652
238,1336713365,0.9166664,0.015659964,0.028029105,0.39836183,1.7843106985092163,-2.2523412704467773,-6.365196228027344,-101.46544647216797,-91.73539733886719, 0.5672626495361328
239,1336730032,0.9177954,0.006636945,-0.0004999135,0.39699802,13.293098449707031,-4.3257551193237305,0.41910988092422485,-135.9107666015625,-154.70361328125, -10.118274688720703
240,1336746699,0.9176797,0.010952609,-0.025007926,0.3963821,4.61323356628418,-9.583023071289062,9.573001861572266,-40.4842529296875,-165.0937957763672, -2.216992139816284
241,1336763366,0.91684115,0.020195771,-0.04899145,0.39572012,4.200722694396973,-4.007320880889893,7.3781938552856445,-7.484213352203369,-175.15704345703125, -1.4272044897079468
242,1336780033,0.9156992,0.030184917,-0.07385581,0.3938647,1.3062255382537842,0.9330337643623352,5.881289958953857,-5.361204147338867,-182.8542938232422, -8.26974105834961
243,1336796700,0.9142426,0.03898867,-0.096454956,0.39158255,1.5231802463531494,3.684887409210205,4.939972400665283,-6.8837995529174805,-165.60662841796875, -9.968276977539062
244,1336813367,0.9124349,0.04571278,-0.1165147,0.38961214,2.3935558795928955,2.544822931289673,7.202268600463867,-12.975738525390625,-144.16490173339844, -6.329878330230713
245,1336830034,0.91064787,0.051634576,-0.13348597,0.3876029,3.2314908504486084,3.2953107357025146,10.090601921081543,-9.877541542053223,-122.60468292236328, -6.921177387237549
246,1336846701,0.9086751,0.05721978,-0.14799653,0.3861771,4.1406378746032715,0.25764670968055725,8.644447326660156,-4.95916223526001,-106.24564361572266, -3.287085771560669
247,1336863368,0.9065907,0.061669014,-0.16089101,0.385233,4.94514274597168,-0.12358258664608002,7.931333541870117,-7.236347198486328,-93.00080871582031, 0.5540900826454163
248,1336880035,0.9045431,0.06495562,-0.17302546,0.38424596,5.45428991317749,0.4819907546043396,8.53950309753418,-12.522974967956543,-85.0759506225586, 1.1599780321121216
249,1336896702,0.90352553,0.06403307,-0.18619882,0.38061985,5.655860424041748,-3.809894323348999,7.566196918487549,-38.46482467651367,-80.64190673828125, 3.580416679382324
250,1336913369,0.901884,0.0667696,-0.1977934,0.37818623,5.913559913635254,0.7359225749969482,8.335474967956543,-11.811431884765625,-80.53386688232422, 1.2360273599624634
251,1336930036,0.9000073,0.06794915,-0.20884982,0.37649933,6.141218185424805,-1.3796080350875854,8.696394920349121,-20.69095802307129,-72.94367218017578, 4.102309226989746
252,1336946703,0.89790887,0.07256101,-0.2176622,0.37565675,6.120052337646484,-1.1137542724609375,8.961917877197266,6.100334167480469,-67.67391204833984, 0.31859520077705383
253,1336963370,0.89573073,0.07819381,-0.22469461,0.37558606,5.885054111480713,0.4458669424057007,9.202252388000488,17.44843864440918,-58.93710708618164, 1.24387788772583
254,1336980037,0.89331645,0.08262278,-0.23078598,0.37669247,5.737546443939209,0.2430047243833542,9.034114837646484,13.442192077636719,-49.67385482788086, 8.685637474060059
255,1336996704,0.89081806,0.087525524,-0.23563382,0.37849647,6.26417350769043,0.4767080843448639,9.462606430053711,21.36945343017578,-43.01210021972656, 12.947887420654297
256,1337013371,0.8883879,0.09307339,-0.2393597,0.38054103,5.894777297973633,1.4324414730072021,9.849766731262207,28.57185173034668,-37.53362274169922, 12.530905723571777
257,1337030038,0.88584495,0.09926071,-0.24191031,0.38328278,6.058747291564941,0.6695668697357178,8.831587791442871,36.72246170043945,-31.76375389099121, 15.302724838256836
258,1337046705,0.8826704,0.10781342,-0.24360494,0.38720307,7.393110275268555,-1.2242205142974854,9.9925537109375,55.75874710083008,-33.00413513183594, 19.627473831176758
259,1337063372,0.8793536,0.11829565,-0.24417436,0.39130878,6.388356685638428,-0.34647101163864136,11.802225112915039,70.93416595458984,-31.37156867980957, 17.020727157592773
260,1337080039,0.8762359,0.12625705,-0.24581784,0.39477038,6.707353591918945,0.4022982716560364,10.497600555419922,51.585174560546875,-31.310745239257812, 17.666521072387695
261,1337096706,0.8732429,0.13269395,-0.24822813,0.3977712,7.391329765319824,-1.0447841882705688,10.713237762451172,39.43721389770508,-31.98558807373047, 17.78309440612793
262,1337113373,0.8696122,0.14013708,-0.25178623,0.40092397,5.870418548583984,-0.926724910736084,11.481714248657227,43.23872756958008,-42.57157516479492, 19.72434425354004
263,1337130040,0.8658961,0.14722206,-0.25587606,0.40382844,5.587859630584717,-0.3486129343509674,11.781867027282715,39.34002685546875,-45.219764709472656, 19.568893432617188
264,1337146707,0.8623453,0.15614906,-0.25802204,0.40669757,6.46778678894043,0.26175421476364136,11.802342414855957,55.51107406616211,-38.598567962646484, 13.663663864135742
265,1337163374,0.8590461,0.16903423,-0.2573166,0.40896872,5.154649257659912,1.176952838897705,11.01131534576416,85.63996887207031,-33.024967193603516, -0.6917939186096191
266,1337180041,0.8545556,0.17875484,-0.2635927,0.41024432,4.927116870880127,2.6255533695220947,10.819875717163086,46.932518005371094,-68.72473907470703, 10.492060661315918
267,1337196708,0.84961605,0.18478368,-0.27480727,0.41047367,5.6763458251953125,1.5639952421188354,9.612441062927246,9.921738624572754,-89.53186798095703, 18.415433883666992
268,1337213375,0.8438175,0.19116269,-0.28771785,0.41066718,6.251224994659424,0.5629099607467651,8.60987663269043,8.193391799926758,-102.15789794921875, 22.143606185913086
269,1337230042,0.8380364,0.19759075,-0.30048296,0.41032052,7.181297302246094,1.5845091342926025,9.360013008117676,7.813714504241943,-102.15896606445312, 18.665857315063477
270,1337246709,0.83365834,0.20118108,-0.31234887,0.4086298,6.428899765014648,2.206908941268921,11.53728199005127,-10.695534706115723,-87.93328094482422, 11.624591827392578
271,1337263376,0.8293113,0.20619726,-0.32169357,0.4077243,6.228846073150635,2.70391583442688,12.847726821899414,6.179917335510254,-76.46062469482422, 9.529616355895996
272,1337280043,0.82533014,0.21135218,-0.32931006,0.40708145,6.375061511993408,3.0208253860473633,12.193041801452637,11.844225883483887,-65.99066925048828, 7.302215099334717
273,1337296710,0.82174176,0.21648543,-0.33510035,0.4069182,6.193103313446045,2.455983877182007,12.330044746398926,17.3049373626709,-54.142826080322266, 6.385197162628174
274,1337313377,0.8184004,0.22198418,-0.33901978,0.40744278,5.745153903961182,3.169609308242798,13.003398895263672,25.798171997070312,-43.17995834350586, 6.006277561187744
275,1337330044,0.8150884,0.2275363,-0.34151828,0.40892997,5.547731876373291,2.4383761882781982,12.748515129089355,32.23936462402344,-34.00741958618164, 9.121862411499023
276,1337346711,0.81151414,0.23482777,-0.34213623,0.4113923,5.7463908195495605,2.851362466812134,11.594164848327637,49.95643615722656,-27.658971786499023, 8.35549259185791
277,1337363378,0.80844957,0.24102056,-0.3422281,0.41376168,5.956796646118164,2.516399621963501,9.945366859436035,44.24431228637695,-20.737911224365234, 8.19909954071045
278,1337380045,0.8060847,0.24513797,-0.34275043,0.41552046,6.181116104125977,2.981083631515503,9.510955810546875,28.865257263183594,-16.71216583251953, 8.464232444763184
279,1337396712,0.80437565,0.24784324,-0.34341872,0.4166742,7.151098251342773,3.3553218841552734,9.365755081176758,18.057416915893555,-13.065498352050781, 6.871420383453369
280,1337413379,0.8031864,0.24866687,-0.344451,0.41762426,8.345242500305176,3.003744125366211,8.389455795288086,5.200745105743408,-8.885807037353516, 9.379920959472656
281,1337430046,0.8023178,0.24744913,-0.34645316,0.41836044,10.251018524169922,3.2202446460723877,8.291987419128418,-9.948650360107422,-8.010164260864258, 13.809276580810547
282,1337446713,0.8015949,0.24435723,-0.3496838,0.4188755,11.029830932617188,3.566070318222046,8.192028045654297,-24.63826560974121,-9.40429973602295, 18.757930755615234
283,1337463380,0.8015092,0.23839284,-0.3542325,0.4186542,10.156905174255371,2.476198673248291,7.800285816192627,-47.15996551513672,-8.063352584838867, 22.021005630493164
284,1337480047,0.8014362,0.23343274,-0.35787812,0.41848844,9.09544849395752,2.0425426959991455,7.994647979736328,-38.94404602050781,-5.830768585205078, 18.37451171875
285,1337496714,0.8013534,0.23070768,-0.3601746,0.41818798,9.070587158203125,2.418203115463257,7.914628505706787,-23.084867477416992,-5.0733747482299805, 10.006258010864258
286,1337513381,0.8015871,0.22982283,-0.36141482,0.41715577,10.038783073425293,2.999239921569824,8.499577522277832,-12.254788398742676,-4.924313545227051, -1.1411361694335938
287,1337530048,0.8025209,0.228878,-0.3619385,0.41542238,10.287322998046875,2.436403751373291,8.971794128417969,-13.421167373657227,-0.16949217021465302, -7.954887390136719
288,1337546715,0.80418754,0.2279213,-0.36147666,0.41312116,9.96140193939209,1.7478410005569458,8.5552978515625,-13.2655668258667,6.225374221801758, -14.678031921386719
289,1337563382,0.8064814,0.22827476,-0.3592256,0.41040903,9.214387893676758,1.5061814785003662,8.176880836486816,-2.9541773796081543,13.308095932006836, -24.784648895263672
290,1337580049,0.8094934,0.22981413,-0.354855,0.40741122,8.713143348693848,0.9114945530891418,8.762738227844238,7.7656073570251465,23.031757354736328, -34.6488037109375
291,1337596716,0.81312084,0.23291093,-0.34794652,0.40437663,8.515311241149902,1.1554890871047974,8.972808837890625,22.494775772094727,34.205230712890625, -44.39937973022461
292,1337613383,0.8178361,0.2350979,-0.33948603,0.4007772,8.359086036682129,0.8479697704315186,9.915461540222168,18.64320182800293,47.072059631347656, -50.89895248413086
293,1337630050,0.8235738,0.23591398,-0.3294818,0.39687863,8.31725788116455,0.39189082384109497,10.395066261291504,12.865386962890625,61.370540618896484, -54.716552734375
294,1337646717,0.82998616,0.23557681,-0.31803203,0.39304256,8.114486694335938,0.22533166408538818,10.056806564331055,9.372200012207031,74.26487731933594, -55.976104736328125
295,1337663384,0.8371832,0.23293786,-0.3054453,0.3893171,7.5527448654174805,-0.051825713366270065,9.855998039245605,-1.6697173118591309,88.81332397460938, -54.32347106933594
296,1337680051,0.8448769,0.22780694,-0.2919678,0.38605952,7.3853254318237305,0.07104320824146271,9.4312105178833,-13.384008407592773,102.3532943725586, -49.214176177978516
297,1337696718,0.8530258,0.21988826,-0.2776143,0.38331032,7.5762858390808105,-0.2515471279621124,9.44027042388916,-26.89259147644043,116.51973724365234, -43.30794906616211
298,1337713385,0.86112624,0.21070129,-0.26213434,0.38125116,7.380730152130127,-0.15202492475509644,9.385323524475098,-29.910078048706055,127.40794372558594, -38.486820220947266
299,1337730052,0.8690209,0.200251,-0.24566756,0.379934,6.7474589347839355,-0.4197080433368683,9.02285099029541,-33.110694885253906,137.26771545410156, -32.77560043334961
300,1337746719,0.87676084,0.1882977,-0.22814439,0.37918934,6.384673595428467,0.0763288289308548,9.00275993347168,-38.09082794189453,148.04244995117188, -27.93465232849121
301,1337763386,0.88398725,0.17519486,-0.20988151,0.3792401,6.166633129119873,-0.042588502168655396,8.877434730529785,-41.13502883911133,155.7401580810547, -21.009580612182617
302,1337780053,0.8907351,0.160467,-0.1909766,0.3799598,5.867933750152588,-0.2378038465976715,8.631338119506836,-47.752315521240234,164.02590942382812, -14.176583290100098
303,1337796720,0.8972242,0.14390193,-0.17169614,0.38052803,5.264930725097656,-0.05929887667298317,8.827845573425293,-55.095489501953125,171.5359344482422, -6.741061210632324
304,1337813387,0.90279293,0.12728813,-0.15145871,0.381868,4.680078983306885,0.1667877435684204,8.777216911315918,-51.531349182128906,177.1332550048828, -0.8310268521308899
305,1337830054,0.9075614,0.1108683,-0.13073944,0.38333797,4.399899959564209,0.19043150544166565,7.2662506103515625,-48.459381103515625,178.8629150390625, 1.6090115308761597
306,1337846721,0.91152036,0.09421633,-0.10994312,0.38492423,4.163458347320557,0.6353455781936646,7.110446453094482,-49.576995849609375,179.1963348388672, 3.657074213027954
307,1337863388,0.914298,0.07834503,-0.089423575,0.3872015,3.6038143634796143,0.9539588689804077,6.823423862457275,-45.53915786743164,174.55947875976562, 6.068402290344238
308,1337880055,0.91622317,0.0641423,-0.069173105,0.38940465,3.3155677318573,1.0674245357513428,6.126229763031006,-35.367977142333984,167.92959594726562, 6.978745460510254
309,1337896722,0.91743803,0.052091375,-0.048992615,0.39139986,2.509101152420044,1.1232197284698486,6.351997375488281,-21.807565689086914,161.373046875, 6.571406364440918
310,1337913389,0.9179848,0.04345668,-0.028508458,0.3931959,1.6099965572357178,1.0042866468429565,6.118691921234131,0.7062844038009644,153.85614013671875, 5.849974632263184
311,1337930056,0.9180169,0.038274232,-0.007923125,0.3946104,0.6117750406265259,1.265944242477417,6.122544765472412,22.826509475708008,144.9853515625, 4.1251678466796875
312,1337946723,0.9175953,0.03596947,0.011657694,0.3957135,0.07614995539188385,1.713833212852478,5.097425937652588,38.33711242675781,130.74522399902344, 3.5018506050109863
313,1337963390,0.9168061,0.036121216,0.029702801,0.39658535,-0.6762182712554932,1.7349696159362793,4.544478416442871,49.72186279296875,114.35155487060547, 3.625157594680786
314,1337980057,0.91580784,0.038171582,0.04565694,0.39718333,-1.3971787691116333,2.186753273010254,3.9765336513519287,56.05175018310547,95.95668029785156, 3.3799028396606445
315,1337996724,0.914841,0.03969685,0.05820083,0.39762157,-2.036958694458008,2.0528783798217773,2.9562766551971436,43.416507720947266,75.83533477783203, 3.0233852863311768
316,1338013391,0.91414165,0.040881157,0.06682278,0.39775437,-2.5769217014312744,2.3612747192382812,1.8790067434310913,30.545419692993164,51.859500885009766, 1.3101637363433838
317,1338030058,0.9137272,0.04157043,0.07113166,0.39788818,-2.696103096008301,1.9746237993240356,1.5641456842422485,15.493773460388184,25.909774780273438, 1.5273158550262451
318,1338046725,0.9136595,0.041902907,0.07155592,0.39793277,-2.832231044769287,1.9165318012237549,1.8173282146453857,2.517862558364868,2.2187960147857666, 0.9597910046577454
319,1338063392,0.91395307,0.041743398,0.067834996,0.3979272,-2.5485756397247314,2.2332727909088135,1.3318759202957153,-12.040607452392578,-22.736740112304688, 0.6148918271064758
320,1338080059,0.91465634,0.038995933,0.05827804,0.39810404,-2.4471025466918945,1.6515247821807861,-0.45668524503707886,-44.530609130859375,-52.53020477294922, 1.1102969646453857
321,1338096726,0.91602194,0.032797694,0.03674965,0.39809266,2.1911981105804443,1.3685916662216187,-10.831571578979492,-99.15318298339844,-118.75789642333984, -0.061770230531692505
322,1338113393,0.9179869,0.021925325,0.0062456927,0.3959551,10.994584083557129,-0.8364663124084473,4.533879280090332,-152.83743286132812,-163.0828399658203, -14.270180702209473
323,1338130060,0.9183283,0.021609185,-0.020190777,0.39471337,3.886913537979126,-8.737542152404785,9.133025169372559,-74.8633804321289,-165.58506774902344, -4.368319034576416
324,1338146727,0.917577,0.0299705,-0.045274068,0.39383325,3.983157157897949,-3.857006549835205,5.276540279388428,-15.901001930236816,-180.57899475097656, -0.5293349027633667
325,1338163394,0.91662574,0.03789812,-0.069859944,0.3917661,0.6216972470283508,1.6060746908187866,5.862025260925293,-17.49326515197754,-176.46107482910156, -7.451010704040527
326,1338180061,0.9152266,0.045558814,-0.09171135,0.38971022,1.0886917114257812,2.300100326538086,6.245410919189453,-11.727656364440918,-158.71502685546875, -6.744374752044678
327,1338196728,0.91307676,0.05237787,-0.11078917,0.3889388,2.8268589973449707,1.7826790809631348,7.387374401092529,-8.606788635253906,-139.06869506835938, 3.034243106842041
328,1338213395,0.9109099,0.05772196,-0.12728138,0.38821518,3.330921173095703,2.7813613414764404,9.587635040283203,-10.952693939208984,-118.84525299072266, 3.592252731323242
329,1338230062,0.90895826,0.060851734,-0.14203022,0.3871946,3.9204459190368652,0.04236629605293274,7.031505584716797,-20.582826614379883,-101.91568756103516, 2.4353928565979004
330,1338246729,0.9070889,0.064541616,-0.15428707,0.38628963,4.0930867195129395,-0.6577805876731873,7.105520248413086,-10.361940383911133,-87.64826965332031, 1.3561079502105713
331,1338263396,0.905588,0.067726746,-0.16535753,0.3846826,4.312154769897461,1.427327275276184,8.806897163391113,-11.241562843322754,-78.77806854248047, -3.992199420928955
332,1338280063,0.9043574,0.063937664,-0.17849126,0.38234916,4.578583717346191,-1.9187780618667603,8.086094856262207,-61.10540008544922,-73.17622375488281, -0.32079654932022095
333,1338296730,0.9024489,0.06339565,-0.1905472,0.38112837,5.638057231903076,-1.0361250638961792,8.216188430786133,-36.35818862915039,-75.31147766113281, 3.9021592140197754
334,1338313397,0.90017617,0.06374823,-0.20149146,0.38081533,5.860421657562256,-0.9560046792030334,9.267740249633789,-29.832969665527344,-70.50035858154297, 1.1423307657241821
335,1338330064,0.8979653,0.06801031,-0.21002367,0.38068783,5.6906867027282715,-0.42520859837532043,9.08910083770752,1.0218534469604492,-65.58856201171875, -3.7610390186309814
336,1338346731,0.89572835,0.072785795,-0.21715064,0.38107547,5.647729873657227,0.7741215229034424,9.479573249816895,8.829169273376465,-58.05797576904297, -1.1899932622909546
337,1338363398,0.89325505,0.07708414,-0.22352737,0.38234687,6.230832099914551,0.0026932228356599808,10.003559112548828,9.282135009765625,-52.09975814819336, 5.474230766296387
338,1338380065,0.8905734,0.08280626,-0.22892605,0.38420707,6.172056674957275,0.5954398512840271,9.64382553100586,21.787872314453125,-49.860687255859375, 7.473730564117432
339,1338396732,0.88796604,0.0885006,-0.23333596,0.38631392,5.743627548217773,0.6642449498176575,8.986723899841309,24.672956466674805,-43.49720001220703, 8.638415336608887
340,1338413399,0.8853949,0.09446003,-0.23702475,0.38855225,6.629236698150635,-0.5008208155632019,10.70972728729248,31.132204055786133,-39.78208541870117, 13.598750114440918
341,1338430066,0.88232815,0.10303664,-0.23977782,0.3916469,6.346320629119873,-1.5015825033187866,11.410594940185547,51.30495071411133,-41.32256317138672, 15.251191139221191
342,1338446733,0.8790475,0.112518325,-0.24197002,0.39505166,7.526329040527344,-1.2309836149215698,10.624788284301758,59.009769439697266,-40.501853942871094, 15.795833587646484
343,1338463400,0.8753394,0.12242796,-0.24449974,0.39876392,7.21210241317749,-1.5332468748092651,11.302689552307129,61.55699920654297,-44.163177490234375, 18.343610763549805
344,1338480067,0.87124294,0.13283427,-0.2478638,0.40231156,5.828007698059082,-1.14510178565979,11.203410148620605,62.347259521484375,-51.34146499633789, 18.2603816986084
345,1338496734,0.86658657,0.14327346,-0.25275344,0.40572932,5.439869403839111,-1.0145386457443237,10.506368637084961,58.64424514770508,-61.67283248901367, 20.351600646972656
346,1338513401,0.86251014,0.15814915,-0.25220555,0.40921596,7.33805513381958,0.4230993092060089,13.496496200561523,99.8211898803711,-40.6047477722168, 6.060936450958252
347,1338530068,0.8583442,0.17094648,-0.25478154,0.411229,4.648900508880615,1.332578182220459,11.525101661682129,76.25452423095703,-55.069522857666016, 4.572080135345459
348,1338546735,0.8532835,0.17991571,-0.26387706,0.41219723,4.97856330871582,2.9273431301116943,11.030950546264648,34.446685791015625,-85.56311798095703, 15.312259674072266
349,1338563402,0.84815204,0.18402933,-0.2779578,0.41171712,6.0300188064575195,2.556825876235962,9.391669273376465,-10.73055648803711,-103.00550079345703, 22.01319694519043
350,1338580069,0.8425672,0.18780449,-0.29342058,0.41074872,6.240774631500244,1.3745219707489014,9.19216537475586,-16.990684509277344,-111.59968566894531, 22.859092712402344
351,1338596736,0.8372997,0.19106016,-0.3071526,0.40997878,6.3703932762146,1.2401690483093262,12.11120891571045,-15.122146606445312,-99.21697998046875, 21.92757225036621
352,1338613403,0.83175534,0.19634816,-0.31855884,0.41006207,6.32343864440918,3.1002566814422607,11.696717262268066,5.302779197692871,-91.05667114257812, 20.27542495727539
353,1338630070,0.82664037,0.20058718,-0.32931134,0.40985942,6.830432891845703,3.9704577922821045,10.252641677856445,-0.0747782289981842,-83.8380126953125, 18.864032745361328
354,1338646737,0.8218817,0.20430161,-0.33894414,0.4097418,6.862875461578369,2.7744109630584717,10.878024101257324,-0.22111903131008148,-75.08576965332031, 18.01239776611328
355,1338663404,0.8174003,0.20930618,-0.34595048,0.41032445,6.5654778480529785,3.7474894523620605,13.584285736083984,15.702497482299805,-62.269832611083984, 14.505341529846191
356,1338680071,0.81368774,0.21416241,-0.35074723,0.41112426,5.447051048278809,3.5450549125671387,14.30781078338623,20.49945831298828,-47.338199615478516, 10.751567840576172
357,1338696738,0.81037545,0.21929686,-0.35318324,0.4128708,5.641386032104492,2.8451850414276123,13.161707878112793,30.414348602294922,-32.615142822265625, 10.78844928741455
358,1338713405,0.8067986,0.22594304,-0.35370842,0.41583264,6.062514781951904,2.65841007232666,10.940481185913086,47.60774612426758,-25.110740661621094, 11.771368980407715
359,1338730072,0.80357915,0.23172557,-0.35410848,0.41853452,6.872106075286865,3.493654251098633,10.031917572021484,41.98448181152344,-21.497299194335938, 11.220881462097168
360,1338746739,0.8012458,0.23565198,-0.3552429,0.41985226,6.882504940032959,3.4601223468780518,10.225220680236816,24.828231811523438,-20.262998580932617, 6.725465297698975
361,1338763406,0.7998392,0.23800619,-0.3565993,0.42005673,7.8279643058776855,3.1169626712799072,10.031003952026367,11.300985336303711,-16.492692947387695, 2.1256840229034424
362,1338780073,0.7989009,0.24023317,-0.35739303,0.41989955,9.108359336853027,3.163619041442871,9.939245223999023,10.572015762329102,-12.472395896911621, -1.8215510845184326
363,1338796740,0.79843515,0.24089245,-0.35839662,0.41955215,10.40612506866455,3.2778875827789307,8.939191818237305,0.10658086836338043,-8.243692398071289, -0.029595479369163513
364,1338813407,0.798962,0.23817033,-0.36056113,0.41824663,10.67611312866211,3.289585590362549,7.549144268035889,-25.812158584594727,-3.982720375061035, 2.101597547531128
365,1338830074,0.8004018,0.23321807,-0.36295158,0.4162122,9.96247673034668,1.9333834648132324,7.90666389465332,-42.017635345458984,2.287619113922119, 1.368168592453003
366,1338846741,0.80125034,0.23165023,-0.36386707,0.41465282,9.177083015441895,1.217532992362976,8.05152702331543,-17.035280227661133,0.025324584916234016, -5.146454334259033
367,1338863408,0.8015304,0.23452128,-0.36266327,0.4135508,9.291055679321289,1.5036211013793945,8.30233097076416,15.516844749450684,-1.6343361139297485, -15.496989250183105
368,1338880075,0.8020897,0.23866214,-0.36001492,0.41240978,9.613373756408691,1.7761720418930054,8.71778392791748,26.080808639526367,3.3617889881134033, -22.007225036621094
369,1338896742,0.80355144,0.24136584,-0.35668537,0.41088083,9.821767807006836,1.541332483291626,8.708507537841797,17.65106773376465,12.80073070526123, -24.270597457885742
370,1338913409,0.8060494,0.24250767,-0.35256472,0.40886757,9.638195991516113,0.7544728517532349,8.596165657043457,8.355305671691895,23.33017349243164, -27.36386489868164
371,1338930076,0.8092765,0.24329196,-0.3474013,0.40643957,9.179378509521484,0.9765857458114624,8.758044242858887,7.093675136566162,31.199115753173828, -32.596717834472656
372,1338946743,0.8136269,0.24225223,-0.34178683,0.40312174,8.809473037719727,0.9461202621459961,9.25805950164795,-5.790836811065674,40.00614547729492, -37.095523834228516
373,1338963410,0.81898063,0.23939088,-0.33553177,0.39922595,8.417530059814453,0.40929046273231506,9.208014488220215,-17.22676658630371,50.03471374511719, -39.90679168701172
374,1338980077,0.8253355,0.23461232,-0.32819533,0.39505258,8.310970306396484,0.22769859433174133,9.64576530456543,-27.33148765563965,63.239192962646484, -41.588958740234375
375,1338996744,0.8321105,0.22905152,-0.31902927,0.39159667,8.039133071899414,-0.3297012746334076,9.661849975585938,-25.848751068115234,77.85110473632812, -39.859718322753906
376,1339013411,0.8392659,0.22232975,-0.30820972,0.3888564,7.912928104400635,0.3604201376438141,9.466706275939941,-27.05487632751465,92.39826202392578, -36.86279296875
377,1339030078,0.84650576,0.21519661,-0.29546362,0.38706583,7.581919193267822,0.16476264595985413,9.23617172241211,-22.385902404785156,106.24915313720703, -33.692848205566406
378,1339046745,0.8537792,0.20751037,-0.28100547,0.3860525,7.444596290588379,0.3015661835670471,8.703001976013184,-19.510677337646484,118.90910339355469, -30.679471969604492
379,1339063412,0.8610496,0.19911858,-0.26524475,0.38547465,7.092750072479248,0.09171097725629807,7.989902019500732,-19.342069625854492,129.0526580810547, -28.619199752807617
380,1339080079,0.86823225,0.19027132,-0.24846114,0.3850155,6.743925094604492,0.4947841465473175,8.257969856262207,-18.9834041595459,136.33079528808594, -28.262432098388672
381,1339096746,0.87514013,0.18088406,-0.23103568,0.38475138,6.22068977355957,0.6122176647186279,8.358399391174316,-19.81024169921875,141.38905334472656, -26.293861389160156
382,1339113413,0.8818275,0.17084286,-0.21309374,0.3844273,5.422216415405273,0.5765747427940369,8.069327354431152,-22.19542694091797,145.81231689453125, -25.680248260498047
383,1339130080,0.8883468,0.15991947,-0.19442748,0.38401037,4.84108829498291,0.6008913516998291,7.961472511291504,-25.56456184387207,152.19044494628906, -25.361692428588867
384,1339146747,0.8944648,0.14764063,-0.17540757,0.38388443,4.490349769592285,0.6511316895484924,7.853938102722168,-33.32829666137695,157.32142639160156, -23.764211654663086
385,1339163414,0.900289,0.13285251,-0.15685931,0.3836997,4.020199298858643,0.3390955328941345,8.049123764038086,-49.182151794433594,160.82069396972656, -18.77532386779785
386,1339180081,0.9053468,0.11696623,-0.13865617,0.38397992,3.873840093612671,0.5132390260696411,7.564675331115723,-55.85762405395508,161.12490844726562, -13.097480773925781
387,1339196748,0.90965354,0.10064493,-0.1208208,0.38445207,3.6764626502990723,0.4396757483482361,7.302387714385986,-58.12221908569336,159.6451416015625, -7.559897422790527
388,1339213415,0.9130702,0.08491455,-0.10271765,0.38541108,2.859678030014038,-0.06846418976783752,7.364737033843994,-52.50228500366211,159.4324493408203, -2.204806327819824
389,1339230082,0.91545135,0.07195376,-0.08415898,0.3868968,2.6335630416870117,0.4122905433177948,7.343620777130127,-32.92646026611328,154.53506469726562, 1.62334144115448
390,1339246749,0.91704345,0.061142527,-0.06574521,0.38854924,2.1201727390289307,0.684755802154541,7.4630584716796875,-19.2946834564209,147.53746032714844, 3.5998196601867676
391,1339263416,0.91807467,0.052791115,-0.047183055,0.39003316,1.6123857498168945,0.7388927936553955,6.962710857391357,-3.2304766178131104,141.5829620361328, 2.8617875576019287
392,1339280083,0.9185213,0.047880553,-0.028436942,0.39143032,0.8906465768814087,0.7449256777763367,5.777360439300537,19.16411590576172,133.30018615722656, 2.7003085613250732
393,1339296750,0.91843724,0.046119716,-0.010378581,0.3927319,0.26184162497520447,0.9098841547966003,5.005753993988037,37.35783004760742,120.34677124023438, 3.13728928565979
394,1339313417,0.91792834,0.047306474,0.0066947583,0.393859,-0.35917001962661743,1.2512308359146118,5.052684783935547,53.4293212890625,106.08203887939453, 3.2859461307525635
395,1339330084,0.9171163,0.050171275,0.022101175,0.39483207,-0.834990382194519,1.7090495824813843,5.670815467834473,59.6054573059082,90.97836303710938, 3.755920171737671
396,1339346751,0.91626084,0.05221849,0.03473728,0.39564234,-1.6023904085159302,1.8937270641326904,4.948159217834473,46.96047592163086,75.67460632324219, 3.681025981903076
397,1339363418,0.91553843,0.053118538,0.044029668,0.39626932,-2.190519332885742,2.058701992034912,3.792337656021118,30.624799728393555,57.62409973144531, 3.0918128490448
398,1339380085,0.9150632,0.052662574,0.0495255,0.39677876,-2.3495798110961914,2.0035555362701416,3.1007606983184814,11.680170059204102,37.29119110107422, 2.656461000442505
399,1339396752,0.91479343,0.051543154,0.05195141,0.39723745,-2.7225210666656494,1.5269709825515747,3.5886261463165283,-0.9356843829154968,19.686580657958984, 2.663372039794922
400,1339413419,0.91475594,0.050271247,0.051518112,0.3975432,-2.810774326324463,1.463675856590271,3.023242473602295,-9.737464904785156,1.9690346717834473, 2.0281105041503906
401,1339430086,0.914926,0.04945699,0.048669588,0.3976127,-2.9015188217163086,1.4768222570419312,3.3567607402801514,-13.454704284667969,-14.641533851623535, 0.9732776284217834
402,1339446753,0.9153241,0.0480294,0.04398067,0.3974176,-2.752631187438965,2.123973846435547,4.611758232116699,-22.33881950378418,-24.722871780395508, -0.8932464122772217
403,1339463420,0.9158835,0.04535404,0.038107995,0.39704975,-2.6364095211029053,2.2791225910186768,6.110715866088867,-33.43560028076172,-28.88243865966797, -2.4054079055786133
404,1339480087,0.91666013,0.040681988,0.031010812,0.39638066,-2.4380152225494385,2.400869607925415,6.081435203552246,-49.34942626953125,-31.305932998657227, -5.035606861114502
405,1339496754,0.9174197,0.032391958,0.017707508,0.39620522,-0.9543139934539795,-0.9582780599594116,-1.941720962524414,-89.1778335571289,-60.43155288696289, -0.9156786203384399
406,1339513421,0.9185499,0.022808285,-0.008626554,0.3945527,10.900516510009766,1.0531010627746582,-6.881141662597656,-132.74314880371094,-139.49378967285156, -8.501558303833008
407,1339530088,0.91885763,0.015775898,-0.03718477,0.3925165,8.316105842590332,-9.770662307739258,8.991788864135742,-122.5658187866211,-160.4976043701172, -8.499940872192383
408,1339546755,0.91750556,0.025339363,-0.061437238,0.3921317,5.12762451171875,-5.6897969245910645,8.50584888458252,-5.414721488952637,-178.27171325683594, 1.6956931352615356
409,1339563422,0.9159355,0.032462154,-0.0882858,0.39014626,1.829933762550354,-0.35252025723457336,5.61956787109375,-28.41373634338379,-188.41439819335938, -6.340698719024658
410,1339580089,0.9139929,0.04099339,-0.11308411,0.38749045,1.1456817388534546,1.7140493392944336,5.024749755859375,-14.365713119506836,-179.64674377441406, -10.8784761428833
411,1339596756,0.9115505,0.051435135,-0.1337567,0.38540807,1.532849669456482,4.079401016235352,7.067413330078125,9.208111763000488,-159.0304718017578, -8.588580131530762
412,1339613423,0.90924823,0.057847116,-0.15287998,0.38281763,2.3657071590423584,6.1643967628479,9.318199157714844,-12.488110542297363,-138.69064331054688, -8.976842880249023
413,1339630090,0.90690184,0.06051071,-0.17052214,0.3805126,3.776308059692383,2.8036394119262695,10.026749610900879,-31.74599266052246,-119.49906158447266, -3.707702159881592
414,1339646757,0.9044408,0.06070137,-0.18662329,0.3787797,4.971538543701172,0.06753253936767578,7.32281494140625,-42.43346405029297,-103.31389617919922, 2.4268012046813965
415,1339663424,0.90200603,0.060544584,-0.20146903,0.37700114,5.3596978187561035,0.4065316915512085,8.719789505004883,-41.39362716674805,-94.57344055175781, 1.999459981918335
416,1339680091,0.8999389,0.056697942,-0.2171833,0.37380064,5.22276496887207,-2.137676954269409,8.147198677062988,-68.6552505493164,-90.46885681152344, -2.294745683670044
417,1339696758,0.8964668,0.057563063,-0.23151574,0.37340942,6.02899694442749,-3.8265252113342285,6.973417282104492,-34.80093765258789,-94.48748016357422, 3.3880088329315186
418,1339713425,0.8931451,0.05912141,-0.24378613,0.37331614,6.195988655090332,-3.3571219444274902,7.345761775970459,-24.588790893554688,-83.1849136352539, 3.823763132095337
419,1339730092,0.8901445,0.06355867,-0.25318456,0.37349787,6.782568454742432,-1.8286038637161255,8.725248336791992,0.7625744938850403,-72.27181243896484, -1.0354379415512085
420,1339746759,0.8873997,0.06928005,-0.26081318,0.3737628,6.555130958557129,-0.576680064201355,9.844578742980957,13.558294296264648,-64.33746337890625, -3.261096715927124
421,1339763426,0.88456714,0.07437295,-0.2676558,0.37465987,6.280247211456299,-0.2835340201854706,9.049081802368164,12.87653923034668,-57.81306457519531, 1.7252477407455444
422,1339780093,0.8813637,0.08064043,-0.2732869,0.37684178,7.104538917541504,-0.6346681118011475,9.498381614685059,25.855127334594727,-53.55290603637695, 8.176824569702148
423,1339796760,0.87842554,0.08776901,-0.27755198,0.37898564,6.81384801864624,0.01048615574836731,9.734755516052246,37.315589904785156,-47.38043212890625, 9.759419441223145
424,1339813427,0.8754603,0.09565174,-0.28043658,0.38180566,6.38117790222168,-0.07844144850969315,9.023921966552734,46.77018356323242,-40.64997863769531, 11.643598556518555
425,1339830094,0.8722421,0.104746446,-0.2819484,0.38565153,7.454994201660156,-1.070974349975586,9.354182243347168,59.811763763427734,-35.38003158569336, 15.245431900024414
426,1339846761,0.86867684,0.116321646,-0.28220809,0.3901646,7.858309745788574,-1.0756489038467407,11.010479927062988,79.5556869506836,-34.634883880615234, 14.45160961151123
427,1339863428,0.86500907,0.12852925,-0.28219488,0.39446896,6.519399642944336,-0.5648606419563293,11.098037719726562,83.7469253540039,-35.06795883178711, 12.028814315795898
428,1339880095,0.8611893,0.13901359,-0.28321528,0.39851916,7.0261125564575195,-1.2486300468444824,9.848478317260742,70.33860778808594,-37.07083511352539, 15.182169914245605
429,1339896762,0.856788,0.14989083,-0.28477636,0.40292656,7.023804664611816,-2.142573595046997,9.645832061767578,72.4437255859375,-42.142295837402344, 18.634172439575195
430,1339913429,0.8516353,0.16177659,-0.28715378,0.4075399,6.419154644012451,-1.0775761604309082,10.985244750976562,77.31596374511719,-51.00825500488281, 20.781810760498047
431,1339930096,0.8465524,0.1715481,-0.29037884,0.41182607,5.633291721343994,-0.9047391414642334,11.57977294921875,61.84590148925781,-50.28815841674805, 23.77808380126953
432,1339946763,0.8410762,0.1803582,-0.2945698,0.41628197,5.791118144989014,-0.6490660905838013,12.030177116394043,54.32748031616211,-53.79844284057617, 28.930335998535156
433,1339963430,0.83579624,0.18836612,-0.29856136,0.4205046,6.640391826629639,1.1249628067016602,12.063253402709961,49.552223205566406,-50.26986312866211, 28.39094352722168
434,1339980097,0.831851,0.19755562,-0.30001768,0.4230665,5.913444519042969,3.446903944015503,11.535100936889648,58.53205871582031,-38.55265426635742, 9.281776428222656
435,1339996764,0.8272949,0.19918492,-0.31230065,0.4223472,5.578370571136475,2.0859317779541016,6.24439811706543,-22.154541015625,-84.22904968261719, 22.60981559753418
436,1340013431,0.82259274,0.19654271,-0.32867494,0.42033938,7.669247150421143,0.1898440420627594,6.7807111740112305,-60.91004180908203,-97.1776351928711, 30.48812484741211
437,1340030098,0.8181642,0.19688381,-0.3416949,0.41843638,6.801330089569092,1.0969725847244263,13.264951705932617,-34.473655700683594,-86.05935668945312, 19.011287689208984
438,1340046765,0.8129892,0.20268485,-0.35070965,0.4182945,6.502849578857422,4.421436309814453,13.806397438049316,12.907913208007812,-78.6478500366211, 12.819738388061523
439,1340063432,0.80871075,0.20692316,-0.35882115,0.4176327,7.95900297164917,4.605450630187988,10.846351623535156,4.246136665344238,-67.71609497070312, 9.872735977172852
440,1340080099,0.8048808,0.21157444,-0.36462104,0.41767812,6.685618877410889,1.8310136795043945,12.164408683776855,14.263200759887695,-53.96019744873047, 8.239436149597168
441,1340096766,0.8002256,0.2205285,-0.36649072,0.42034617,5.767938137054443,2.8324599266052246,13.62592601776123,57.12984085083008,-42.86400604248047, 8.63132381439209
442,1340113433,0.7956295,0.22980626,-0.3665798,0.42400706,5.992210388183594,3.6380410194396973,11.936006546020508,66.45783996582031,-32.408565521240234, 10.4301118850708
443,1340130100,0.7912218,0.23843949,-0.36595178,0.428012,6.238650321960449,3.449247121810913,10.409361839294434,65.57624816894531,-25.636249542236328, 12.28394889831543
444,1340146767,0.7871676,0.24562117,-0.36559632,0.431714,6.943203926086426,3.856288194656372,9.869929313659668,55.52153015136719,-22.49066734313965, 13.722601890563965
445,1340163434,0.78410614,0.2503454,-0.3658927,0.43431276,7.190349578857422,4.172722339630127,10.289088249206543,35.821311950683594,-18.120763778686523, 12.112543106079102
446,1340180101,0.78207475,0.2524846,-0.36686364,0.43591502,8.481894493103027,4.593072891235352,9.961071014404297,15.57394790649414,-13.194765090942383, 11.35715389251709
447,1340196768,0.78125983,0.2507958,-0.36912292,0.43644378,9.675292015075684,4.591826915740967,9.56949234008789,-13.709486961364746,-7.470390796661377, 13.860097885131836
448,1340213435,0.7810862,0.24576895,-0.37315735,0.43618295,10.275854110717773,4.292828559875488,8.557514190673828,-40.097782135009766,-6.739490509033203, 19.251440048217773
449,1340230102,0.781692,0.23804615,-0.37862983,0.43466204,9.8038969039917,3.6015145778656006,7.305263042449951,-63.45958709716797,-6.5163187980651855, 19.51419448852539
450,1340246769,0.7824342,0.2313013,-0.38342735,0.43275833,9.668018341064453,2.6595160961151123,7.045876502990723,-57.424903869628906,-6.084372043609619, 13.413517951965332
451,1340263436,0.7830183,0.22748259,-0.38661936,0.43088257,10.221075057983398,3.243163824081421,8.249340057373047,-36.594024658203125,-6.5276970863342285, 3.7789478302001953
452,1340280103,0.78375137,0.22578917,-0.38830158,0.4289234,10.345722198486328,3.757070302963257,8.912114143371582,-21.150239944458008,-4.436844825744629, -5.102532863616943
453,1340296770,0.78527504,0.22423956,-0.38880914,0.42648232,10.38931941986084,3.562396764755249,9.206561088562012,-19.4444522857666,2.8196496963500977, -12.212925910949707
454,1340313437,0.7880618,0.22209199,-0.38802958,0.42316294,10.058671951293945,2.5417351722717285,8.986576080322266,-23.21057891845703,13.529509544372559, -21.021326065063477
455,1340330104,0.7918814,0.22038099,-0.3854477,0.41926876,9.395965576171875,1.5396549701690674,8.918664932250977,-18.72378921508789,23.886770248413086, -31.043643951416016
456,1340346771,0.79651797,0.22050174,-0.38062215,0.41480717,8.534872055053711,1.2823566198349,8.90743350982666,-5.029940605163574,32.109127044677734, -44.73585891723633
457,1340363438,0.80211306,0.22159895,-0.37358892,0.40980476,8.510623931884766,0.7442755699157715,9.170793533325195,3.7435739040374756,43.079463958740234, -56.33001708984375
458,1340380105,0.8087513,0.22260493,-0.36459887,0.4042727,8.923955917358398,0.04400157183408737,9.607429504394531,5.808285236358643,55.976680755615234, -64.93859100341797
459,1340396772,0.81611586,0.22323865,-0.35370767,0.39876097,9.021407127380371,-0.8013563752174377,9.632284164428711,7.970949649810791,69.4126205444336, -68.83195495605469
460,1340413439,0.82426506,0.22204114,-0.3415351,0.39324135,8.840643882751465,-1.4017038345336914,9.79698371887207,0.002823916031047702,83.4990234375, -68.56068420410156
461,1340430106,0.83271044,0.21976997,-0.3277702,0.38840875,8.213207244873047,-1.4711921215057373,9.739741325378418,-0.5922967195510864,97.15095520019531, -65.40339660644531
462,1340446773,0.8416112,0.21486667,-0.31282046,0.38427374,7.8245768547058105,-1.4647612571716309,9.768494606018066,-11.590299606323242,113.0248031616211, -58.514190673828125
463,1340463440,0.8505079,0.20869274,-0.296235,0.38121983,7.36425256729126,-1.653517246246338,9.698287963867188,-12.26441478729248,127.41810607910156, -51.96123123168945
464,1340480107,0.8592373,0.20102747,-0.27835158,0.3792356,7.085165500640869,-1.507883906364441,8.934737205505371,-15.137833595275879,140.09671020507812, -44.1240348815918
465,1340496774,0.86788195,0.19116834,-0.25976107,0.3778358,7.116062641143799,-1.4244146347045898,8.600798606872559,-24.994564056396484,150.63430786132812, -37.259849548339844
466,1340513441,0.87582606,0.1814237,-0.23997124,0.37739652,6.767930507659912,-1.2769173383712769,8.55222225189209,-18.535364151000977,157.50729370117188, -31.518892288208008
467,1340530108,0.88317734,0.17074673,-0.21971314,0.37758407,6.115191459655762,-0.6447839140892029,8.106199264526367,-21.13689422607422,162.55625915527344, -25.277563095092773
468,1340546775,0.8901465,0.15816261,-0.1990494,0.37815762,5.101595878601074,-0.45039424300193787,8.021321296691895,-30.616575241088867,169.85633850097656, -19.556350708007812
469,1340563442,0.89656866,0.1441522,-0.17823197,0.37897012,4.669066429138184,-0.06353148072957993,7.39793586730957,-37.90333938598633,174.05633544921875, -14.669466972351074
470,1340580109,0.9024386,0.12875172,-0.15763834,0.37970778,4.299190521240234,0.19225116074085236,6.6027984619140625,-46.417259216308594,175.6177978515625, -11.302373886108398
471,1340596776,0.9075915,0.11226646,-0.13763876,0.3804335,3.9345285892486572,0.46966683864593506,6.099225997924805,-53.9515495300293,174.0357666015625, -7.328268051147461
472,1340613443,0.91193026,0.095314115,-0.117939234,0.38129872,3.4630889892578125,0.5949974656105042,6.498887538909912,-56.95207977294922,172.7201385498047, -3.6504664421081543
473,1340630110,0.91523427,0.07905999,-0.09809077,0.3827196,3.1818010807037354,0.45735716819763184,6.576546669006348,-51.391292572021484,171.2418212890625, 0.6623485088348389
474,1340646777,0.9175924,0.064438805,-0.07822058,0.38438696,2.6681809425354004,0.6623996496200562,7.023043632507324,-40.378597259521484,166.5918426513672, 3.5808792114257812
475,1340663444,0.9191496,0.052556507,-0.05854705,0.38597158,2.065002679824829,0.9721692204475403,6.849092960357666,-23.31169319152832,157.65591430664062, 3.7846732139587402
476,1340680111,0.92010087,0.04417175,-0.039129965,0.38721067,1.445862054824829,0.8739489316940308,5.329594135284424,-1.8169227838516235,146.3928680419922, 1.8919286727905273
477,1340696778,0.9203761,0.039917633,-0.019866783,0.3884838,0.3416635990142822,0.5150045156478882,5.517238140106201,24.110694885253906,134.25912475585938, 2.84362530708313
478,1340713445,0.9201544,0.03938445,-0.0020104074,0.38956478,-0.12057419866323471,1.1934090852737427,4.119326114654541,44.005531311035156,115.29396057128906, 2.837674856185913
479,1340730112,0.91951805,0.040825594,0.014144491,0.39066622,-1.0618518590927124,0.9391173124313354,5.007912635803223,52.0373649597168,99.2362060546875, 4.517838001251221
480,1340746779,0.9187038,0.043772854,0.027896259,0.39152163,-1.4393571615219116,1.587402582168579,4.401652812957764,55.168636322021484,79.93083953857422, 4.271091938018799
481,1340763446,0.9179171,0.047209844,0.038381483,0.39207992,-1.980018973350525,1.6801719665527344,3.1858081817626953,49.49982452392578,57.866695404052734, 3.407512664794922
482,1340780113,0.9174096,0.04924927,0.044717748,0.392345,-2.5034234523773193,1.620194435119629,2.756763219833374,29.46266746520996,35.256431579589844, 1.7902708053588867
483,1340796780,0.9172646,0.049697436,0.046932798,0.3923687,-2.9342610836029053,1.459577202796936,2.609508752822876,8.24256420135498,13.330068588256836, 0.2019883096218109
484,1340813447,0.9174431,0.04931809,0.045457512,0.39217275,-2.9812474250793457,1.6370433568954468,2.416438341140747,-6.986032485961914,-7.927183151245117, -1.056652307510376
485,1340830114,0.91788757,0.046625618,0.040674634,0.39198726,-2.874516725540161,1.7546547651290894,3.6378602981567383,-30.605636596679688,-22.671642303466797, -1.3075348138809204
486,1340846781,0.91844594,0.04273147,0.034084346,0.3917515,-2.981142520904541,1.7840079069137573,4.753353595733643,-43.099609375,-30.92439842224121, -1.6897376775741577
487,1340863448,0.91917795,0.036855865,0.026593747,0.3912115,-2.583792209625244,1.9586455821990967,6.247705459594727,-58.0322265625,-31.442110061645508, -4.283661365509033
488,1340880115,0.92002887,0.028682824,0.017329743,0.39041513,-2.3463962078094482,2.0613391399383545,4.669083595275879,-77.32215118408203,-36.59132385253906, -6.204337120056152
489,1340896782,0.9207314,0.019771105,0.00092282,0.389695,0.54006427526474,-0.04291688650846481,-5.361921787261963,-101.17284393310547,-79.79463195800781, -4.017023086547852
490,1340913449,0.9219454,0.0071485313,-0.02645162,0.3863497,11.9381685256958,1.0743900537490845,-0.1754777729511261,-154.11863708496094,-139.6512908935547, -20.56313133239746
491,1340930116,0.9215266,0.0068547707,-0.04993325,0.3850306,5.46835470199585,-10.735111236572266,8.897360801696777,-65.17532348632812,-147.74716186523438, -5.825351238250732
492,1340946783,0.92024404,0.018736036,-0.071720846,0.38426054,5.437747001647949,-4.769454002380371,6.508157730102539,16.833677291870117,-169.45169067382812, -4.336852550506592
493,1340963450,0.91874784,0.028958699,-0.095710136,0.38197356,1.8037396669387817,0.9011488556861877,6.673806667327881,-0.13421298563480377,-179.23838806152344, -12.277048110961914
494,1340980117,0.91671455,0.038074728,-0.11851411,0.37965697,1.7644281387329102,0.5882731080055237,4.945391654968262,-3.9377753734588623,-169.19149780273438, -10.55640983581543
495,1340996784,0.91444075,0.04746122,-0.13778038,0.377574,2.279228448867798,2.207388162612915,6.977749347686768,7.246963024139404,-147.7197723388672, -9.598397254943848
496,1341013451,0.9123279,0.054037273,-0.15476201,0.37521565,2.9431867599487305,2.9718570709228516,9.506867408752441,-4.836398124694824,-125.98792266845703, -9.816568374633789
497,1341030118,0.9102376,0.05881513,-0.16923428,0.3733205,3.5380518436431885,0.7427313923835754,9.774568557739258,-9.198690414428711,-105.41033172607422, -5.969493389129639
498,1341046785,0.9081151,0.06339134,-0.1812613,0.37209275,4.747177600860596,0.04100114852190018,7.752254009246826,-3.405611276626587,-89.35501861572266, -2.4557504653930664
499,1341063452,0.90608007,0.06483833,-0.19297937,0.37090987,5.442988872528076,0.04642680287361145,9.007494926452637,-22.137060165405273,-79.26734924316406, 1.368794560432434
500,1341080119,0.9036596,0.06936028,-0.2037131,0.37025627,5.032796382904053,-2.870248556137085,8.035177230834961,0.4004574418067932,-81.22888946533203, 1.1340093612670898
501,1341096786,0.9007958,0.074565604,-0.21384718,0.37050834,5.089528560638428,-0.5330685973167419,8.142507553100586,4.531749248504639,-79.23049926757812, -0.9902474284172058
502,1341113453,0.8978023,0.08163365,-0.22249195,0.3711934,5.5841875076293945,-1.401982069015503,8.082834243774414,20.73131561279297,-74.75208282470703, -0.6475027799606323
503,1341130120,0.8948045,0.09184562,-0.22915292,0.37199238,5.575319766998291,-0.14377766847610474,9.44931411743164,45.41397476196289,-70.5268783569336, -5.44334602355957
504,1341146787,0.8918932,0.10086594,-0.23555471,0.3726483,5.610653877258301,1.841631531715393,9.993674278259277,38.39011001586914,-65.91436004638672, -4.66201639175415
505,1341163454,0.8889684,0.106801435,-0.24166591,0.3740674,5.518257141113281,0.8439078330993652,10.065411567687988,21.63983726501465,-55.768341064453125, 5.5255818367004395
506,1341180121,0.8856855,0.11315089,-0.2474156,0.37622282,6.304946422576904,1.5939559936523438,10.307884216308594,26.876117706298828,-54.70168685913086, 10.778742790222168
507,1341196788,0.88283265,0.11917938,-0.25267416,0.37756926,5.531627178192139,1.8483738899230957,9.007572174072266,26.954416275024414,-50.68977737426758, 9.583585739135742
508,1341213455,0.8796655,0.12566878,-0.25749192,0.37959704,6.486052513122559,1.7701934576034546,9.24177074432373,32.31589126586914,-49.19731521606445, 13.392672538757324
509,1341230122,0.87611806,0.13302259,-0.26141065,0.38260514,7.171198844909668,-0.7210114002227783,10.266823768615723,41.935001373291016,-45.832950592041016, 18.025964736938477
510,1341246789,0.8720655,0.14303824,-0.26407722,0.38640052,7.300754547119141,-0.7441285252571106,10.736513137817383,63.154197692871094,-45.473365783691406, 18.164684295654297
511,1341263456,0.8680612,0.15188903,-0.26721826,0.38986397,6.906966686248779,0.11023916304111481,10.654118537902832,54.27469253540039,-45.46015167236328, 18.623519897460938
512,1341280123,0.8640352,0.15809995,-0.27201054,0.39301133,7.461996555328369,-1.8394134044647217,11.574427604675293,33.54153060913086,-48.61430740356445, 23.371055603027344
513,1341296790,0.85938984,0.16486649,-0.2776226,0.39647666,6.248656749725342,-1.4848159551620483,12.16659927368164,35.926448822021484,-55.809852600097656, 26.763647079467773
514,1341313457,0.85464203,0.17115313,-0.28375962,0.3997175,6.3694939613342285,-0.5296663045883179,12.482856750488281,31.375885009765625,-58.08984375, 27.211362838745117
515,1341330124,0.8504703,0.17920244,-0.28732583,0.4025304,6.904820442199707,0.5482550263404846,12.067490577697754,47.3028678894043,-47.24916076660156, 16.64112663269043
516,1341346791,0.84644765,0.18877013,-0.29030415,0.40449452,6.177462577819824,2.081037998199463,11.743110656738281,55.954158782958984,-48.799156188964844, 7.546948432922363
517,1341363458,0.84172595,0.19494954,-0.29868928,0.4053109,5.770199775695801,3.0403530597686768,11.304597854614258,19.8038272857666,-73.77035522460938, 16.61151885986328
518,1341380125,0.8363221,0.19898441,-0.31063747,0.40555534,5.903652667999268,2.4744606018066406,9.442089080810547,-2.8177788257598877,-90.63003540039062, 24.410356521606445
519,1341396792,0.83025837,0.20246889,-0.32461935,0.40533912,6.877373218536377,2.0677919387817383,7.1287360191345215,-11.75169849395752,-102.86139678955078, 27.580318450927734
520,1341413459,0.824119,0.20580646,-0.33848515,0.40484512,7.293719291687012,1.9714610576629639,7.857454299926758,-12.796025276184082,-102.34253692626953, 26.38701629638672
521,1341430126,0.81828886,0.21011363,-0.34950203,0.405098,6.6757917404174805,2.2611098289489746,11.556034088134766,1.9159551858901978,-87.12752532958984, 23.48698616027832
522,1341446793,0.8115727,0.21901654,-0.35673413,0.4075812,6.226358890533447,3.7311902046203613,12.470036506652832,44.94131851196289,-77.60387420654297, 22.019405364990234
523,1341463460,0.8055292,0.2265172,-0.3627237,0.41017625,7.117757797241211,3.856856107711792,11.167341232299805,39.83391189575195,-65.003662109375, 22.378446578979492
524,1341480127,0.8005095,0.23225106,-0.36759937,0.41245016,6.341914176940918,3.6681666374206543,12.237250328063965,30.76605224609375,-51.85759735107422, 20.436044692993164
525,1341496794,0.796115,0.23753159,-0.3712664,0.4146577,5.71237325668335,4.052570343017578,13.260337829589844,30.508258819580078,-42.53190231323242, 17.56368064880371
526,1341513461,0.7923868,0.2420811,-0.37389842,0.4167974,5.731403350830078,3.467665433883667,12.414387702941895,28.170536041259766,-33.30136489868164, 15.524811744689941
527,1341530128,0.78903025,0.24721092,-0.3750585,0.41910553,6.049317359924316,2.9547669887542725,10.737030982971191,35.34376525878906,-25.809093475341797, 11.485040664672852
528,1341546795,0.7864093,0.250886,-0.37621236,0.42080992,6.729354381561279,3.577071189880371,10.044561386108398,24.647062301635742,-20.78816795349121, 9.87356185913086
529,1341563462,0.7850651,0.25144577,-0.37853587,0.42090213,7.574670314788818,3.415996789932251,8.58780288696289,-1.976111888885498,-17.64138412475586, 7.582386016845703
530,1341580129,0.7843758,0.25047627,-0.38088617,0.42064518,8.674863815307617,2.8898403644561768,8.89035701751709,-12.370847702026367,-12.298171997070312, 7.862616062164307
531,1341596796,0.7837525,0.24894892,-0.38308185,0.42071927,9.487358093261719,3.225827693939209,9.035263061523438,-14.196703910827637,-9.141633987426758, 10.673973083496094
532,1341613463,0.78325814,0.24591501,-0.3864199,0.42037153,9.530421257019043,3.7998337745666504,8.058279037475586,-26.97352409362793,-11.351308822631836, 13.976704597473145
533,1341630130,0.7836105,0.24018943,-0.3909962,0.41879067,9.415555953979492,3.4256601333618164,7.002201080322266,-49.786766052246094,-10.093973159790039, 14.159791946411133
534,1341646797,0.7841183,0.23555736,-0.394747,0.41694865,9.191360473632812,2.2319443225860596,7.497410774230957,-42.50516891479492,-8.816642761230469, 8.024097442626953
535,1341663464,0.78402907,0.23470199,-0.39651453,0.41592026,9.31924819946289,2.106879711151123,8.293087005615234,-13.299046516418457,-9.268078804016113, 0.671328604221344
536,1341680131,0.78412086,0.23545603,-0.39735237,0.41451916,10.118627548217773,3.4937875270843506,8.186186790466309,-3.2835495471954346,-8.988729476928711, -7.724205493927002
537,1341696798,0.7856304,0.2338034,-0.39829162,0.41168535,10.581918716430664,3.9455907344818115,8.141098022460938,-22.778478622436523,-1.1379748582839966, -12.713149070739746
538,1341713465,0.78781074,0.23175058,-0.39818814,0.40876928,10.229734420776367,1.0796566009521484,7.09544563293457,-23.320096969604492,7.319611549377441, -15.599676132202148
539,1341730132,0.78999865,0.23234844,-0.39533985,0.40696806,9.964288711547852,0.7405410408973694,7.704980850219727,1.7915682792663574,16.535877227783203, -21.213701248168945
540,1341746799,0.7926955,0.23432659,-0.39048973,0.40526855,9.871118545532227,0.8923020958900452,7.732978343963623,14.357621192932129,25.086393356323242, -29.034595489501953
541,1341763466,0.79633605,0.23591048,-0.384772,0.40267324,9.356603622436523,1.0401084423065186,8.148700714111328,10.70705509185791,31.99822425842285, -36.8831787109375
542,1341780133,0.801202,0.23597325,-0.3782994,0.3991014,9.147992134094238,0.6735382080078125,8.523792266845703,-0.09570305794477463,41.98284149169922, -42.8247184753418
543,1341796800,0.8073771,0.2339402,-0.37093514,0.39474222,9.022140502929688,0.913059413433075,9.053106307983398,-13.353792190551758,54.747764587402344, -46.76415252685547
544,1341813467,0.81515646,0.22894228,-0.36246836,0.38951555,8.644356727600098,0.29837527871131897,9.877909660339355,-31.60225486755371,71.576904296875, -50.16697692871094
545,1341830134,0.82382995,0.22261117,-0.3519687,0.38453433,8.351879119873047,-0.14940595626831055,9.973671913146973,-34.40803909301758,89.10896301269531, -51.10011672973633
546,1341846801,0.8332684,0.2147542,-0.3393787,0.37995616,8.171475410461426,-0.5397696495056152,9.776065826416016,-37.69786834716797,107.40729522705078, -50.39339065551758
547,1341863468,0.843272,0.20470445,-0.3250684,0.37592435,8.076404571533203,-0.5303360223770142,9.726655006408691,-45.30091094970703,125.08076477050781, -46.21779251098633
548,1341880135,0.85330033,0.19328183,-0.30911785,0.37278286,7.977449417114258,-1.005301833152771,9.285066604614258,-47.04376220703125,139.42062377929688, -40.41844940185547
549,1341896802,0.8627624,0.18171838,-0.2914953,0.3710121,7.504786491394043,-1.3401790857315063,8.998865127563477,-39.89204025268555,150.1965789794922, -32.90956115722656
550,1341913469,0.8715303,0.16991748,-0.27246487,0.3705756,6.7346954345703125,-1.2873632907867432,9.180370330810547,-34.13869094848633,159.4256591796875, -24.5667667388916
551,1341930136,0.87970424,0.15765604,-0.25183544,0.3712739,6.017841815948486,-1.4074474573135376,9.241471290588379,-29.977888107299805,170.39051818847656, -17.312469482421875
552,1341946803,0.8873574,0.14484467,-0.22996072,0.3724716,5.8736891746521,-0.7431004643440247,8.867403984069824,-28.66874885559082,178.9629669189453, -13.410283088684082
553,1341963470,0.8940469,0.13058493,-0.2079136,0.37469983,5.370038032531738,-0.4237683117389679,8.445249557495117,-38.75004959106445,182.39111328125, -11.23238468170166
554,1341980137,0.90025246,0.1141417,-0.18646805,0.37649313,4.794245719909668,-0.3503938317298889,8.059425354003906,-52.70977783203125,183.493408203125, -7.578736305236816
555,1341996804,0.9058115,0.09474704,-0.16612336,0.378063,4.384589195251465,-0.08745003491640091,7.345590114593506,-72.92195129394531,183.51107788085938, -2.0418176651000977
556,1342013471,0.9105287,0.07493672,-0.14614105,0.37942705,3.7727906703948975,-0.43631619215011597,6.900237083435059,-75.2257080078125,181.47975158691406, 1.2519588470458984
557,1342030138,0.91442007,0.05765478,-0.12553132,0.3804652,3.0182764530181885,-1.0804859399795532,6.28031587600708,-56.19607925415039,178.03811645507812, 3.209620714187622
558,1342046805,0.91715574,0.04436623,-0.10371486,0.38223094,2.3403000831604004,-1.6198005676269531,6.863687992095947,-26.826963424682617,174.49166870117188, 6.850440979003906
559,1342063472,0.9187556,0.03602225,-0.08070465,0.38480866,2.3364460468292236,-1.0304603576660156,6.9919209480285645,8.443161964416504,168.47828674316406, 11.048029899597168
560,1342080139,0.9194951,0.031306535,-0.057583723,0.38759905,2.0321295261383057,0.1729687601327896,5.777902603149414,32.001502990722656,159.17572021484375, 12.62767219543457
561,1342096806,0.91959935,0.02801116,-0.035336457,0.39026138,1.2276971340179443,0.7663454413414001,5.492252826690674,38.73028564453125,149.61456298828125, 13.146071434020996
562,1342113473,0.9192481,0.026277944,-0.014311898,0.3925398,-0.02975413203239441,1.4135898351669312,5.300138473510742,45.302223205566406,137.52542114257812, 11.810606002807617
563,1342130140,0.9186885,0.024786126,0.004001259,0.3941846,-0.634437084197998,2.4078726768493652,4.358332633972168,39.455596923828125,119.60041046142578, 8.847039222717285
564,1342146807,0.91806084,0.022821702,0.01895216,0.39532796,-1.5845725536346436,2.507399320602417,3.793259859085083,27.336769104003906,99.552001953125, 6.433340072631836
565,1342163474,0.9175009,0.022151299,0.030821221,0.39591864,-2.201829671859741,2.7941696643829346,3.1469616889953613,27.14339828491211,76.46459197998047, 3.4214558601379395
566,1342180141,0.9171761,0.022771528,0.039518382,0.39586332,-2.4721806049346924,2.695946216583252,2.045336961746216,26.702423095703125,52.7625732421875, -0.5296772122383118
567,1342196808,0.91710806,0.025002016,0.04509797,0.3952898,-2.761301040649414,2.8256988525390625,1.5319288969039917,28.425735473632812,28.53445816040039, -3.5598909854888916
568,1342213475,0.91729164,0.02830685,0.047414698,0.39436862,-2.9203362464904785,3.1103830337524414,1.453079104423523,26.350173950195312,4.862046241760254, -5.529066562652588
569,1342230142,0.9176616,0.032076888,0.046341658,0.39334565,-2.2960867881774902,3.3504855632781982,1.7614474296569824,20.039459228515625,-17.901493072509766, -5.850417137145996
570,1342246809,0.9182697,0.03375664,0.040627025,0.3924168,-2.2279372215270996,2.259878396987915,0.712614893913269,-5.836875915527344,-41.62041091918945, -5.53244161605835
571,1342263476,0.9190392,0.0295489,0.02344471,0.39235753,-0.0866255909204483,-1.4283747673034668,-8.511818885803223,-74.26510620117188,-98.01760864257812, 0.5352378487586975
572,1342280143,0.9203001,0.018521026,-0.0059553785,0.3907291,11.245893478393555,-1.1859525442123413,1.511284589767456,-150.16331481933594,-157.24156188964844, -9.354961395263672
573,1342296810,0.9205028,0.015802395,-0.033093136,0.38901153,5.086682319641113,-11.146590232849121,9.20422649383545,-91.33256530761719,-165.08294677734375, -7.738710403442383
574,1342313477,0.9193531,0.025382329,-0.057628762,0.3883614,4.118905544281006,-4.878411293029785,5.729132652282715,-5.92193603515625,-181.60865783691406, -0.4694073796272278
575,1342330144,0.9180673,0.0320131,-0.083536394,0.38619864,0.48629307746887207,2.1164019107818604,6.024200439453125,-28.71001434326172,-182.6530303955078, -8.2681884765625
576,1342346811,0.9163974,0.039820753,-0.10676397,0.38370806,0.43433988094329834,2.7835283279418945,6.777347564697266,-14.300334930419922,-169.1505584716797, -10.573091506958008
577,1342363478,0.9140731,0.0481579,-0.12664661,0.382246,2.337395668029785,2.971940040588379,6.2858567237854,-1.2497807741165161,-149.67640686035156, -3.648202657699585
578,1342380145,0.91182184,0.053644937,-0.14375219,0.38083953,3.00700306892395,2.987557888031006,8.819356918334961,-11.888328552246094,-124.62550354003906, -1.9007591009140015
579,1342396812,0.90958005,0.056866366,-0.15870453,0.37979415,4.068551063537598,0.10781553387641907,8.41482162475586,-20.149808883666992,-105.0351333618164, 1.8078234195709229
580,1342413479,0.9073505,0.06072358,-0.1716807,0.3788849,4.490604400634766,-0.9591200947761536,7.553945541381836,-10.86858081817627,-94.2393798828125, 1.1680080890655518
581,1342430146,0.90538955,0.06402496,-0.18358515,0.3774483,4.17470645904541,-0.1111908107995987,8.140328407287598,-12.259821891784668,-85.97138977050781, -2.613154411315918
582,1342446813,0.9040219,0.06377309,-0.19544888,0.3748031,4.769629001617432,1.0606622695922852,8.643765449523926,-36.05510711669922,-76.25759887695312, -7.208374977111816
583,1342463480,0.9020685,0.060908813,-0.20784423,0.373314,5.633486270904541,-5.033268451690674,7.133335113525391,-51.869972229003906,-73.08576202392578, 5.236095428466797
584,1342480147,0.8998663,0.0628208,-0.218835,0.37202895,5.659095287322998,0.08112267404794693,9.034599304199219,-18.163249969482422,-76.85657501220703, -0.3153376579284668
585,1342496814,0.8973418,0.06494712,-0.22781438,0.37237132,5.951094627380371,-1.0986058712005615,8.547992706298828,-12.982211112976074,-64.24260711669922, 0.4565596878528595
586,1342513481,0.8948083,0.06930392,-0.23463102,0.3734484,5.924759864807129,0.1130143329501152,9.763524055480957,7.65692138671875,-56.30025100708008, 1.3649100065231323
587,1342530148,0.8921744,0.07467629,-0.24025688,0.3751332,5.987376689910889,0.7540297508239746,10.250364303588867,18.283132553100586,-51.51333236694336, 4.145183563232422
588,1342546815,0.889533,0.07954585,-0.24520488,0.37719798,6.179014682769775,0.9159892797470093,9.2858304977417,17.8725528717041,-45.93701171875, 7.899877071380615
589,1342563482,0.8865159,0.08540061,-0.24957049,0.3801462,6.486513614654541,-0.002516046166419983,9.703603744506836,27.107254028320312,-45.100852966308594, 12.578570365905762
590,1342580149,0.88338447,0.092339955,-0.25269908,0.38373002,5.810755729675293,-0.1391238570213318,9.93592643737793,38.374385833740234,-40.266387939453125, 14.882898330688477
591,1342596816,0.8803474,0.10074919,-0.25444785,0.38742054,7.17155647277832,-0.976890504360199,10.47726058959961,53.76765441894531,-35.695594787597656, 17.042465209960938
592,1342613483,0.8771188,0.11022666,-0.2554898,0.3914559,6.815262794494629,-1.6941801309585571,10.770347595214844,62.86244583129883,-34.33623504638672, 17.29060173034668
593,1342630150,0.8735069,0.12136393,-0.25596923,0.3958994,6.298518180847168,-1.5410003662109375,11.451278686523438,75.4178237915039,-35.76386260986328, 17.443927764892578
594,1342646817,0.8696055,0.1318734,-0.25705484,0.400398,6.675134181976318,-1.5416209697723389,10.53069019317627,70.35899353027344,-38.164756774902344, 20.17539405822754
595,1342663484,0.86496323,0.14290518,-0.25927788,0.40520594,5.870379447937012,-1.6789146661758423,10.135526657104492,71.5954360961914,-47.42529296875, 24.1719913482666
596,1342680151,0.86102045,0.15976754,-0.25480106,0.41011557,6.881786346435547,-0.039301663637161255,13.197110176086426,124.46501159667969,-22.482433319091797, 5.852006912231445
597,1342696818,0.8567251,0.17648567,-0.25313458,0.41327736,2.8024911880493164,0.1414986401796341,9.278467178344727,113.02648162841797,-41.27288055419922, -0.14008300006389618
598,1342713485,0.8512963,0.18745063,-0.25998813,0.41540736,4.735332012176514,2.0418176651000977,9.776848793029785,54.519466400146484,-78.3812484741211, 17.37375259399414
599,1342730152,0.84613776,0.19336231,-0.27130765,0.41599798,5.8867669105529785,2.3329544067382812,10.542461395263672,9.075870513916016,-91.61619567871094, 22.405447006225586
600,1342746819,0.84211105,0.19516814,-0.28336823,0.4152845,5.623830795288086,2.093140125274658,14.198881149291992,-20.8785400390625,-83.83236694335938, 20.242820739746094
601,1342763486,0.8379464,0.19814615,-0.29415128,0.41480014,5.5187883377075195,2.895819664001465,12.730607986450195,-9.813766479492188,-79.82389068603516, 17.978105545043945
602,1342780153,0.8338982,0.19991916,-0.30556786,0.41385344,6.920791149139404,3.8077690601348877,9.795583724975586,-19.67275619506836,-80.50025177001953, 18.30644416809082
603,1342796820,0.8295527,0.2020865,-0.31649524,0.4133209,6.516448020935059,2.2134554386138916,9.681998252868652,-14.774274826049805,-78.89083099365234, 20.062061309814453
604,1342813487,0.82442075,0.20698838,-0.32510442,0.41447976,6.1649956703186035,2.7599828243255615,11.397061347961426,12.170816421508789,-72.8274154663086, 22.794214248657227
605,1342830154,0.81983656,0.21135111,-0.3316598,0.41617423,5.796393394470215,3.7458958625793457,13.427264213562012,15.365873336791992,-57.71842575073242, 22.5862979888916
606,1342846821,0.8159928,0.2147625,-0.33617407,0.41835362,5.3655242919921875,3.6967077255249023,14.341545104980469,15.843353271484375,-41.1889762878418, 22.454214096069336
607,1342863488,0.81246203,0.21844785,-0.33910808,0.42094168,4.690577507019043,3.4597697257995605,13.125611305236816,22.378793716430664,-31.89583969116211, 20.93155288696289
608,1342880155,0.8090232,0.22176808,-0.3416438,0.4237687,5.797901630401611,3.616501808166504,10.696396827697754,21.882518768310547,-28.145896911621094, 22.304018020629883
609,1342896822,0.80624306,0.22357278,-0.3445166,0.42578852,6.304777145385742,3.9186434745788574,10.288270950317383,9.536459922790527,-25.348691940307617, 20.016794204711914
610,1342913489,0.8040866,0.22438768,-0.3476205,0.4269133,6.089974403381348,2.9977123737335205,10.127603530883789,0.2593228816986084,-23.68056869506836, 15.977226257324219
611,1342930156,0.8022514,0.22522561,-0.3505572,0.42752314,6.422755718231201,2.9303271770477295,10.209470748901367,-0.8723449110984802,-22.904157638549805, 11.90783977508545
612,1342946823,0.80095667,0.22604333,-0.3534209,0.42716104,7.040956974029541,2.9746005535125732,9.741830825805664,-3.9684393405914307,-22.69672393798828, 4.92400598526001
613,1342963490,0.79975045,0.22742788,-0.35561773,0.42686304,8.856900215148926,2.215618848800659,9.014810562133789,1.1109204292297363,-20.414453506469727, 2.6345324516296387
614,1342980157,0.7980609,0.22981028,-0.3575241,0.42715663,10.662528038024902,2.439271926879883,8.548335075378418,9.642477989196777,-22.009153366088867, 4.433919906616211
615,1342996824,0.7963562,0.2307132,-0.36026675,0.42754656,11.48453140258789,2.857302665710449,7.493671417236328,-0.6841678023338318,-22.11641502380371, 9.987173080444336
616,1343013491,0.7955735,0.22830912,-0.3640933,0.4270529,10.928343772888184,2.3972861766815186,7.590008735656738,-25.65006446838379,-17.406753540039062, 12.369413375854492
617,1343030158,0.79491913,0.22690855,-0.36701947,0.42651266,9.7296781539917,1.7146143913269043,8.113462448120117,-17.852447509765625,-15.150802612304688, 7.82192325592041
618,1343046825,0.7943219,0.22855759,-0.36795703,0.42593676,9.147966384887695,1.9768396615982056,8.325056076049805,4.461024284362793,-13.12901496887207, -3.3295507431030273
619,1343063492,0.79461735,0.23060194,-0.36781013,0.42440766,9.152778625488281,2.2300589084625244,8.54115104675293,5.976313591003418,-7.604905128479004, -13.836031913757324
620,1343080159,0.79627013,0.23135257,-0.36671072,0.42184508,9.830375671386719,2.295884609222412,8.817787170410156,-3.0825445652008057,3.1601831912994385, -21.663410186767578
621,1343096826,0.7992163,0.2304621,-0.36465105,0.4185335,9.380188941955566,0.9298866987228394,9.09975814819336,-13.231982231140137,15.238699913024902, -26.893630981445312
622,1343113493,0.80305684,0.22955962,-0.36072838,0.41506302,9.079963684082031,0.432674378156662,8.726066589355469,-9.740423202514648,27.483402252197266, -33.2762336730957
623,1343130160,0.8078287,0.22838868,-0.35495508,0.4114102,8.675198554992676,0.6108571887016296,9.275246620178223,-7.845822811126709,40.47532272338867, -39.21754837036133
624,1343146827,0.8134621,0.22655421,-0.34740078,0.4077569,8.403779029846191,0.2350362092256546,9.652360916137695,-7.829730033874512,54.32114791870117, -42.85567092895508
625,1343163494,0.81973416,0.22429736,-0.3376684,0.40460733,8.020185470581055,0.053900208324193954,10.338977813720703,-3.855329751968384,69.96952056884766, -44.24193572998047
626,1343180161,0.8265669,0.22087283,-0.32602403,0.4021329,7.873362064361572,-0.40828660130500793,10.318270683288574,-4.390863418579102,86.29869842529297, -42.266876220703125
627,1343196828,0.83380896,0.21653673,-0.3127517,0.40007618,7.904805660247803,-0.188371941447258,10.15078067779541,-4.726058006286621,99.59104919433594, -41.495269775390625
628,1343213495,0.84148824,0.21103634,-0.29799944,0.3981931,7.63788366317749,-0.010392587631940842,9.865106582641602,-7.581872940063477,112.4552993774414, -41.443138122558594
629,1343230162,0.84961253,0.20371674,-0.28185782,0.39650288,7.381126880645752,-0.10247760266065598,9.804254531860352,-14.53062629699707,126.65266418457031, -39.87599563598633
630,1343246829,0.8578631,0.19515894,-0.26443753,0.39504024,6.875755310058594,0.0019569136202335358,9.347851753234863,-17.99056625366211,138.05287170410156, -38.327789306640625
631,1343263496,0.8660944,0.18505844,-0.24608245,0.39379892,6.31187629699707,-0.08496474474668503,9.126102447509766,-24.102069854736328,148.01821899414062, -35.46604537963867
632,1343280163,0.8739196,0.17406738,-0.2267317,0.39313895,6.152705192565918,-0.15045201778411865,8.918067932128906,-25.188953399658203,156.4145050048828, -30.711200714111328
633,1343296830,0.881272,0.16233332,-0.20648755,0.39290038,5.638657569885254,0.04803301766514778,8.904814720153809,-25.995986938476562,163.57168579101562, -26.858694076538086
634,1343313497,0.8879481,0.15041652,-0.18542321,0.39311787,4.892353057861328,0.10667519271373749,8.515057563781738,-23.469690322875977,168.5992431640625, -22.965436935424805
635,1343330164,0.8940007,0.13824596,-0.16382113,0.39346355,4.401050090789795,0.26421651244163513,8.017580032348633,-22.630817413330078,171.96163940429688, -20.489543914794922
636,1343346831,0.8994211,0.1263861,-0.1419399,0.39360067,3.8527045249938965,0.34291136264801025,7.261513710021973,-19.277118682861328,172.07008361816406, -19.76929473876953
637,1343363498,0.9040703,0.11493291,-0.12022625,0.39369163,3.2060487270355225,0.1813143789768219,6.775661468505859,-16.458675384521484,169.24273681640625, -17.59383201599121
638,1343380165,0.9078119,0.104141474,-0.098890126,0.39402142,2.6838550567626953,0.182455912232399,6.850901126861572,-12.524835586547852,164.56773376464844, -13.862253189086914
639,1343396832,0.91039795,0.09444046,-0.07787203,0.39521226,2.3095932006835938,0.21812480688095093,6.758235931396484,-5.621544361114502,159.24659729003906, -7.813560485839844
640,1343413499,0.9121651,0.08509864,-0.057308912,0.39677346,1.9532513618469238,0.5421181917190552,6.646258354187012,-3.874993085861206,155.24859619140625, -3.1840574741363525
641,1343430166,0.9131249,0.07729807,-0.036646787,0.39860383,1.6753482818603516,0.5300822854042053,6.392784595489502,6.637012481689453,151.52882385253906, 0.028682146221399307
642,1343446833,0.91331166,0.072331525,-0.015713047,0.40047902,0.7054097056388855,0.8767620921134949,6.18098783493042,25.59383201599121,145.32269287109375, 1.565062403678894
643,1343463500,0.91288096,0.069969915,0.0042440873,0.40216264,0.1743791103363037,1.5947462320327759,4.6445631980896,39.539058685302734,131.86953735351562, 2.270582914352417
644,1343480167,0.9121231,0.068237305,0.021822313,0.40360776,-0.7195850610733032,2.073164701461792,4.52897310256958,37.04726791381836,115.1044921875, 2.8495407104492188
645,1343496834,0.91123205,0.06726777,0.03675691,0.404698,-1.3043891191482544,2.3817126750946045,4.347150802612305,34.57891845703125,96.2586898803711, 2.3566792011260986
646,1343513501,0.9103996,0.06718939,0.048999157,0.4052868,-1.8148010969161987,2.720818042755127,3.855422258377075,32.733238220214844,76.6543197631836, 0.5320592522621155
647,1343530168,0.9098494,0.06733192,0.057715498,0.40535116,-2.114091634750366,2.3432624340057373,2.0910696983337402,24.296100616455078,53.61339569091797, -1.8247606754302979
648,1343546835,0.90960914,0.06820066,0.062827885,0.40498495,-2.505686044692993,2.4570484161376953,1.691519856452942,18.786331176757812,28.698795318603516, -3.4166839122772217
649,1343563502,0.90966797,0.06917824,0.064454384,0.40443078,-2.5960757732391357,1.9445559978485107,2.000020742416382,9.66500186920166,6.347348690032959, -3.7345383167266846
650,1343580169,0.9100754,0.06980147,0.0628759,0.403655,-2.687809705734253,2.2467172145843506,2.718179941177368,-1.5541667938232422,-13.004471778869629, -4.7143659591674805
651,1343596836,0.910965,0.06877234,0.057661448,0.4026024,-2.5458974838256836,3.327178955078125,3.622563362121582,-22.12004280090332,-31.544952392578125, -6.750404357910156
652,1343613503,0.91228473,0.06493065,0.04948321,0.40133792,-2.269777774810791,3.409198045730591,5.6387457847595215,-48.098567962646484,-42.62632369995117, -8.987808227539062
653,1343630170,0.91375405,0.05954253,0.04031358,0.3998541,-2.163090944290161,2.812307834625244,7.198091506958008,-60.55986785888672,-44.754459381103516, -10.874911308288574
654,1343646837,0.9151973,0.052818492,0.029874785,0.39841136,-1.6995294094085693,1.5544143915176392,5.654300689697266,-72.46234893798828,-49.05834197998047, -10.415278434753418
655,1343663504,0.9160523,0.04228054,0.009899489,0.3987011,2.7570879459381104,-3.2062344551086426,-7.271729946136475,-122.73824310302734,-97.89563751220703, 4.745504856109619
656,1343680171,0.9173291,0.02915966,-0.020718869,0.39651984,13.58920955657959,-4.879363059997559,0.16444644331932068,-168.0978240966797,-158.5544891357422, -9.114113807678223
657,1343696838,0.9168738,0.032184962,-0.04623327,0.3951828,4.693991184234619,-10.844573020935059,9.771531105041504,-51.75343704223633,-170.1810302734375, -2.4339261054992676
658,1343713505,0.9156525,0.040868387,-0.07012895,0.3936908,3.3082337379455566,-2.988079309463501,8.634016990661621,-11.346100807189941,-175.5447540283203, -3.515406370162964
659,1343730172,0.9143869,0.05010587,-0.094086125,0.39055574,1.4855397939682007,2.9236533641815186,6.005542755126953,-8.737691879272461,-177.86459350585938, -13.997967720031738
660,1343746839,0.9125389,0.058290266,-0.11565127,0.38794315,1.940415382385254,5.837546348571777,5.53286075592041,-8.440345764160156,-160.17259216308594, -9.274242401123047
661,1343763506,0.91059214,0.062133968,-0.13602853,0.38530195,2.483670711517334,5.88817024230957,7.223116397857666,-32.58660125732422,-141.2059783935547, -6.180393218994141
662,1343780173,0.9087307,0.06337279,-0.15435272,0.3825805,3.460127592086792,4.482210159301758,8.984063148498535,-43.661930084228516,-121.38414001464844, -5.314332485198975
663,1343796840,0.9066099,0.06553577,-0.16992755,0.38064176,4.143624305725098,-0.19234369695186615,9.109968185424805,-29.777931213378906,-106.5445556640625, -1.8893896341323853
664,1343813507,0.9046733,0.068297915,-0.18347803,0.37846723,4.785581111907959,-0.7214818000793457,8.426466941833496,-21.087852478027344,-95.3515625, -5.451885223388672
665,1343830174,0.9029368,0.06995044,-0.19635744,0.37584022,5.476926326751709,0.6934130191802979,7.99970006942749,-26.8837833404541,-88.2042465209961, -7.706376075744629
666,1343846841,0.90146023,0.06411529,-0.21098937,0.37248144,6.043856620788574,-2.7385895252227783,7.17270565032959,-79.01144409179688,-79.6813735961914, -1.9700368642807007
667,1343863508,0.8985724,0.066309884,-0.2223827,0.37244722,6.657531261444092,-2.2942702770233154,8.128135681152344,-18.768693923950195,-80.34222412109375, 1.4299336671829224
668,1343880175,0.8960176,0.07094315,-0.23184013,0.371981,6.4639177322387695,-1.6694350242614746,9.158815383911133,0.8115478157997131,-74.28428649902344, -5.531285285949707
669,1343896842,0.8935074,0.0768263,-0.23987155,0.371758,6.374962329864502,-1.0720467567443848,8.679098129272461,12.640860557556152,-68.49542999267578, -6.309298038482666
670,1343913509,0.8910576,0.08242656,-0.24651435,0.3720931,6.56819486618042,-0.7621130347251892,9.48351001739502,15.495059967041016,-58.846614837646484, -2.759420394897461
671,1343930176,0.88823915,0.08937964,-0.252156,0.37344342,6.554082870483398,-0.7100690603256226,10.19195556640625,28.430959701538086,-56.2320556640625, 2.038280725479126
672,1343946843,0.88555396,0.095968455,-0.25716236,0.37476912,6.501037120819092,-0.15520519018173218,9.606593132019043,30.302209854125977,-51.326805114746094, 6.675682544708252
673,1343963510,0.8826895,0.10317324,-0.2613834,0.3766877,6.675815105438232,0.09487269073724747,9.949459075927734,37.249515533447266,-48.02299118041992, 9.147069931030273
674,1343980177,0.8793171,0.111782774,-0.26474503,0.37975833,7.2388811111450195,-0.7196518182754517,9.980648040771484,50.435150146484375,-46.50783920288086, 14.328725814819336
675,1343996844,0.875568,0.12265399,-0.26658282,0.3837584,7.333812713623047,-0.20095181465148926,10.880725860595703,70.08525848388672,-43.134925842285156, 15.64456558227539
676,1344013511,0.8715358,0.1337472,-0.26828066,0.38802424,7.619846820831299,-0.34688425064086914,9.984447479248047,72.52716827392578,-43.145694732666016, 17.47166633605957
677,1344030178,0.86699593,0.14516716,-0.270646,0.39242262,7.664157390594482,-0.3984435498714447,11.160650253295898,73.42977142333984,-48.7952766418457, 19.632617950439453
678,1344046845,0.8623625,0.15575175,-0.27375787,0.3963953,5.857410430908203,-0.2131471335887909,12.058036804199219,65.75370788574219,-51.568634033203125, 19.644330978393555
679,1344063512,0.8573242,0.16557924,-0.27803776,0.40034208,6.668198108673096,-0.3509451746940613,11.38215446472168,58.482566833496094,-57.23295211791992, 23.26830291748047
680,1344080179,0.85159487,0.17579883,-0.282862,0.40480873,6.61004114151001,-1.574760913848877,11.564705848693848,61.093994140625,-62.248931884765625, 28.099382400512695
681,1344096846,0.84509397,0.18687525,-0.28757313,0.4101167,6.700766086578369,-0.7112936973571777,11.946832656860352,69.02684783935547,-64.46009826660156, 33.3535270690918
682,1344113513,0.83872,0.20059907,-0.28865945,0.4159145,7.009332180023193,1.4741449356079102,13.132903099060059,95.45806884765625,-49.9921989440918, 25.942466735839844
683,1344130180,0.83281875,0.20806721,-0.29745167,0.41790393,4.68364143371582,4.817698001861572,7.9148993492126465,29.137542724609375,-80.87347412109375, 25.682191848754883
684,1344146847,0.82822007,0.20561697,-0.31486836,0.41548944,7.238035202026367,3.218602180480957,6.202062129974365,-63.3435173034668,-105.3978271484375, 29.37872314453125
685,1344163514,0.82445675,0.20020783,-0.33137515,0.4127693,7.28612756729126,-1.5694235563278198,12.507124900817871,-79.4551010131836,-90.3504638671875, 30.37850570678711
686,1344180181,0.82018924,0.20189852,-0.3424297,0.411423,5.112709045410156,3.6632235050201416,14.734566688537598,-19.878664016723633,-78.87588500976562, 15.88074016571045
687,1344196848,0.81684536,0.20312214,-0.35229716,0.40913552,7.104421615600586,6.004826068878174,11.01443099975586,-22.670339584350586,-70.06047821044922, 7.435695648193359
688,1344213515,0.814388,0.20317882,-0.36091125,0.40648943,7.7264275550842285,2.6018712520599365,9.710509300231934,-27.84168243408203,-58.1077995300293, 4.04878044128418
689,1344230182,0.81081283,0.20843318,-0.36595407,0.40646732,7.216838836669922,2.0765998363494873,11.586272239685059,19.307876586914062,-51.74457931518555, 3.991443157196045
690,1344246849,0.806467,0.21775322,-0.3673818,0.40893158,6.5990190505981445,3.7411181926727295,13.537590980529785,59.43476486206055,-41.35029602050781, 4.611312389373779
691,1344263516,0.8019481,0.22783642,-0.36714306,0.41252416,5.679872989654541,3.6910526752471924,12.337282180786133,71.44863891601562,-33.0445556640625, 6.965853691101074
692,1344280183,0.7972508,0.23788314,-0.36600953,0.41694102,6.215696811676025,3.0287890434265137,10.140810012817383,76.13488006591797,-27.19969940185547, 10.740189552307129
693,1344296850,0.79271394,0.24761337,-0.36461818,0.42112443,7.157756328582764,3.7018001079559326,9.650477409362793,74.283447265625,-24.865942001342773, 9.400009155273438
694,1344313517,0.7891709,0.25465184,-0.36457813,0.4236089,7.610597610473633,3.3805136680603027,9.524954795837402,49.74037551879883,-24.83515167236328, 6.336042881011963
695,1344330184,0.78661203,0.2594923,-0.36601144,0.42419446,8.031576156616211,2.985358715057373,9.06246566772461,27.037363052368164,-27.283226013183594, 1.2715426683425903
696,1344346851,0.78498584,0.26272744,-0.3682722,0.42325786,8.554956436157227,2.958197593688965,9.689996719360352,10.44877815246582,-27.437894821166992, -4.159835338592529
697,1344363518,0.78417766,0.26431096,-0.37145856,0.42097968,8.910327911376953,2.9797871112823486,10.27113151550293,-6.029874801635742,-27.97793960571289, -7.925271987915039
