PacketCounter,SampleTimeFine,Quat_W,Quat_X,Quat_Y,Quat_Z,Acc_X,Acc_Y,Acc_Z,Gyr_X,Gyr_Y,Gyr_Z 
1,811958855,0.3790369,-0.0445528,-0.008904425,0.9242656,0.1825011521577835,-0.08543562889099121,-0.03728892654180527,0.1714605987071991,0.15356378257274628, 0.1551995724439621
2,811975522,0.37945706,-0.039370157,-0.0067523173,0.9243468,-0.4091421067714691,-0.3308057487010956,9.728801727294922,3.0698037147521973,-0.7346746921539307, 3.0584444999694824
3,811992189,0.38058403,-0.03531168,-0.0053850478,0.92405635,-0.3135715425014496,-0.26199981570243835,9.958080291748047,4.599138259887695,0.9327312707901001, 3.016746997833252
4,812008856,0.3819352,-0.03192687,-0.004061285,0.9236285,-0.42383262515068054,-0.11892415583133698,11.134026527404785,6.791265487670898,2.002868413925171, 1.6813265085220337
5,812025523,0.38361287,-0.029537395,-0.0029415062,0.923017,-0.6484484076499939,-0.2539788484573364,11.073750495910645,2.3780555725097656,1.9851055145263672, -1.167349934577942
6,812042190,0.38540703,-0.028670939,-0.0021993,0.92229855,-0.39161762595176697,-0.14703500270843506,11.371235847473145,0.044354796409606934,2.660205602645874, -2.36159348487854
7,812058857,0.38696474,-0.028285548,-0.0024266688,0.9216575,-0.44963863492012024,0.14260649681091309,10.5916166305542,-6.375833988189697,2.813805103302002, -2.2395360469818115
8,812075524,0.38845786,-0.02886348,-0.0035443737,0.9210076,-0.36151209473609924,0.3281033933162689,10.374249458312988,-16.345630645751953,4.9696946144104, -2.7769570350646973
9,812092191,0.38961476,-0.029874694,-0.00516521,0.920479,-0.23540271818637848,-0.044888608157634735,9.289530754089355,-22.704524993896484,5.919624328613281, -0.7537063956260681
10,812108858,0.39022204,-0.030010954,-0.006482242,0.9202087,-0.6282978057861328,-0.349656343460083,9.245987892150879,-16.795299530029297,1.2309668064117432, 2.797415256500244
11,812125525,0.39048997,-0.029555794,-0.0079528475,0.92009825,-0.9139270186424255,-0.277925580739975,9.66187572479248,-13.616528511047363,-5.067848205566406, 5.051922798156738
12,812142192,0.3908369,-0.02856231,-0.009373471,0.919969,-0.8324580788612366,-0.3354256749153137,9.731446266174316,-10.64852523803711,-10.779995918273926, 4.5291290283203125
13,812158859,0.39112192,-0.027532874,-0.011462658,0.9198555,-0.7911936044692993,-0.6219054460525513,9.364908218383789,-13.810041427612305,-14.035292625427246, 4.1815032958984375
14,812175526,0.39145178,-0.026679916,-0.013519747,0.9197125,-0.5582364201545715,-0.9898403286933899,9.310744285583496,-12.550787925720215,-13.590356826782227, 3.644223928451538
15,812192193,0.39196172,-0.026092177,-0.0151053285,0.9194876,-0.4948655664920807,-1.006137490272522,9.683011054992676,-8.329729080200195,-10.533037185668945, 2.0463855266571045
16,812208860,0.3926599,-0.025578983,-0.015855748,0.9191915,-0.49464845657348633,-0.69437175989151,9.504646301269531,-2.000826120376587,-7.562073707580566, 0.4931533634662628
17,812225527,0.39320195,-0.025440848,-0.01634183,0.91895485,-0.521194338798523,-0.3801811635494232,9.526057243347168,-1.182128667831421,-4.3643412590026855, 1.2804621458053589
18,812242194,0.39370242,-0.025617164,-0.016606981,0.91873085,-0.5374962687492371,-0.290031373500824,9.541520118713379,-1.1117832660675049,-1.7271411418914795, 1.3050503730773926
19,812258861,0.3940902,-0.025944106,-0.016626129,0.918555,-0.5388270020484924,-0.3827090263366699,9.4449462890625,-0.468558669090271,-0.06911586225032806, 1.4426031112670898
20,812275528,0.39449352,-0.026143044,-0.016373063,0.9183808,-0.6039391160011292,-0.48952382802963257,9.422725677490234,1.3425215482711792,-0.11108226329088211, 1.5402898788452148
21,812292195,0.39466506,-0.026428211,-0.016191233,0.9183023,-0.5929998755455017,-0.4933199882507324,9.57595443725586,0.6227151155471802,0.23579691350460052, 1.8496146202087402
22,812308862,0.39484724,-0.026955655,-0.016197981,0.91820836,-0.4838194251060486,-0.5015668272972107,9.480534553527832,-1.2886900901794434,1.2495732307434082, 2.184603452682495
23,812325529,0.39491886,-0.027433466,-0.016146848,0.9181644,-0.5350244641304016,-0.7776148319244385,9.208602905273438,-0.827456533908844,1.220259428024292, 2.9161784648895264
24,812342196,0.39503855,-0.028517367,-0.015440333,0.918092,-0.19838251173496246,-0.8489657640457153,9.400238990783691,1.9398232698440552,6.9424333572387695, 2.1119277477264404
25,812358863,0.395726,-0.03162004,-0.012970736,0.91773254,-0.6899045705795288,-0.8299737572669983,9.094352722167969,7.934070587158203,25.01319694519043, -2.4103145599365234
26,812375530,0.39633977,-0.033745013,-0.0112589905,0.9174145,-0.7281131744384766,-0.6136246919631958,9.589594841003418,5.937676906585693,16.668052673339844, -1.1091208457946777
27,812392197,0.3968991,-0.03584019,-0.0097603975,0.9171103,-0.3079637885093689,-0.21406610310077667,11.137533187866211,4.726590633392334,15.967592239379883, -2.3969409465789795
28,812408864,0.39775863,-0.037989847,-0.009003911,0.9166591,-0.49593880772590637,-0.15896299481391907,10.885684967041016,-0.3933601379394531,14.708160400390625, -4.508606910705566
29,812425531,0.3983366,-0.039559014,-0.008850489,0.9163433,-0.523402988910675,-0.418362557888031,10.660252571105957,-2.9402360916137695,9.590274810791016, -3.07157826423645
30,812442198,0.3986501,-0.040312182,-0.00872212,0.9161754,-0.6978532075881958,-0.29596734046936035,10.227685928344727,-1.0236629247665405,4.5014777183532715, -0.9656116962432861
31,812458865,0.39862093,-0.04045102,-0.008467058,0.91618425,-0.6567910313606262,-0.33116844296455383,10.29823112487793,1.305344820022583,1.0116056203842163, 0.6706621050834656
32,812475532,0.39864302,-0.040200677,-0.008114108,0.9161889,-0.7814749479293823,-0.32171234488487244,10.314433097839355,2.8547980785369873,-1.1281497478485107, 1.098202109336853
33,812492199,0.39852396,-0.039718892,-0.008218829,0.91626066,-0.7060331702232361,-0.2472478300333023,9.943368911743164,0.5344409346580505,-3.829047203063965, 1.3512554168701172
34,812508866,0.39828408,-0.039099805,-0.009003241,0.91638434,-0.7582802772521973,-0.21776844561100006,9.695018768310547,-3.505892515182495,-6.560322284698486, 2.2482640743255615
35,812525533,0.39800128,-0.038656153,-0.010688622,0.91650784,-0.7660455703735352,-0.3024778366088867,9.769243240356445,-9.778843879699707,-7.9514288902282715, 2.5584731101989746
36,812542200,0.39762974,-0.03821278,-0.012355344,0.91666687,-0.696073055267334,-0.48146259784698486,9.525717735290527,-9.690863609313965,-7.902084827423096, 2.5825233459472656
37,812558867,0.39735398,-0.037680283,-0.01348778,0.9167923,-0.6464704275131226,-0.5876777172088623,9.498393058776855,-6.068597793579102,-7.0181379318237305, 2.5786681175231934
38,812575534,0.3970756,-0.037201747,-0.014202387,0.9169216,-0.5926556587219238,-0.6494585275650024,9.706677436828613,-3.496915340423584,-5.49633264541626, 2.1338133811950684
39,812592201,0.39691085,-0.036792573,-0.014725567,0.9170012,-0.5470128059387207,-0.6756563186645508,9.76431941986084,-2.415828227996826,-4.5038909912109375, 1.6585056781768799
40,812608868,0.3968518,-0.03655107,-0.015381535,0.9170256,-0.494318425655365,-0.5956928133964539,9.936178207397461,-3.6495540142059326,-3.7651443481445312, 1.0972802639007568
41,812625535,0.39679635,-0.03642125,-0.016179796,0.9170411,-0.5390782356262207,-0.589750349521637,9.907964706420898,-4.807645320892334,-3.374345302581787, 0.5942978858947754
42,812642202,0.39681673,-0.036315054,-0.016909555,0.91702336,-0.5543357133865356,-0.4894714057445526,9.723272323608398,-4.428679943084717,-3.0135648250579834, 0.32938575744628906
43,812658869,0.3968214,-0.036224175,-0.017450294,0.9170148,-0.5625739097595215,-0.44862931966781616,9.739460945129395,-3.285572052001953,-2.376718282699585, 0.24510715901851654
44,812675536,0.39694014,-0.036392078,-0.017631527,0.9169533,-0.5709609985351562,-0.4932187795639038,9.620224952697754,-1.7526899576187134,0.24859046936035156, -0.1381164938211441
45,812692203,0.39706886,-0.036843788,-0.017648023,0.91687924,-0.6403999924659729,-0.5803869366645813,9.489118576049805,-1.4771101474761963,2.5253419876098633, -0.6529445648193359
46,812708870,0.39717048,-0.03767858,-0.017541924,0.91680336,-0.6249154210090637,-0.6134951710700989,9.528495788574219,-1.6997997760772705,5.313310146331787, -1.2946836948394775
47,812725537,0.39727122,-0.038338915,-0.017871123,0.91672593,-0.87043297290802,-0.6525986194610596,8.636847496032715,-4.008003234863281,2.9577994346618652, -0.44476455450057983
48,812742204,0.3971721,-0.039432473,-0.01737243,0.91673213,-0.40225982666015625,-0.7273426055908203,9.050798416137695,0.06393571197986603,7.886798858642578, 0.49237221479415894
49,812758871,0.39754334,-0.04164762,-0.015535867,0.91650623,-0.8720549941062927,-0.6515960693359375,9.184825897216797,5.506834030151367,18.70849609375, -1.528414249420166
50,812775538,0.39753076,-0.0429444,-0.01421517,0.91647315,-0.7160091400146484,-0.665039598941803,9.80044937133789,4.787918567657471,11.459723472595215, -0.2686389088630676
51,812792205,0.39764717,-0.044221845,-0.013013897,0.91637987,-0.43377816677093506,-0.3969041109085083,11.10541820526123,4.09153413772583,11.00831127166748, -0.6131682991981506
52,812808872,0.39754835,-0.045546412,-0.012176665,0.91636944,-0.6774188876152039,-0.549952507019043,10.590182304382324,1.8213645219802856,10.564249038696289, -2.722169876098633
53,812825539,0.3976173,-0.04650485,-0.011704816,0.91629744,-0.6378668546676636,-0.6610956192016602,10.422176361083984,0.3595447242259979,7.161215305328369, -1.3446027040481567
54,812842206,0.39749125,-0.046915937,-0.011160371,0.91633797,-0.6857029795646667,-0.7749893069267273,10.24885368347168,2.3053417205810547,3.921964168548584, -0.23363907635211945
55,812858873,0.39722356,-0.04672588,-0.010308836,0.9164737,-0.6449943780899048,-0.9259989261627197,10.026995658874512,5.854480266571045,0.9403254985809326, 1.2939088344573975
56,812875540,0.39710608,-0.04592235,-0.008374925,0.91658497,-0.5849771499633789,-0.9527729749679565,9.817177772521973,14.405318260192871,0.04085869342088699, 1.2621500492095947
57,812892207,0.39715737,-0.044985104,-0.0062312023,0.9166264,-0.6738790273666382,-0.49240046739578247,10.40915584564209,16.229110717773438,-0.1493990123271942, -0.18106913566589355
58,812908874,0.3975313,-0.044593148,-0.0054211626,0.9164885,-0.7731084823608398,-0.2602206766605377,10.643662452697754,6.382948398590088,-0.2815604507923126, -2.6443324089050293
59,812925541,0.3977935,-0.045000054,-0.0060939174,0.91635066,-0.7439953088760376,-0.294099897146225,10.057357788085938,-5.127753257751465,0.7611904144287109, -3.5014870166778564
60,812942208,0.39802742,-0.04562837,-0.007371182,0.9162085,-0.8597201704978943,-0.1871468871831894,9.18145751953125,-9.621349334716797,0.48750588297843933, -2.9831249713897705
61,812958875,0.39797714,-0.04618411,-0.009096857,0.91618687,-0.9923451542854309,-0.01455311756581068,9.246066093444824,-12.307792663574219,-1.2255810499191284, -1.785718321800232
62,812975542,0.3978032,-0.046311766,-0.010711831,0.91623867,-0.9869667887687683,0.11505889892578125,9.357793807983398,-10.612446784973145,-3.732757806777954, 0.1056332066655159
63,812992209,0.39740935,-0.04616971,-0.012420133,0.9163951,-0.9256430268287659,0.09022270888090134,9.639984130859375,-10.625945091247559,-5.780096530914307, 1.931588888168335
64,813008876,0.39667526,-0.045829985,-0.014203253,0.91670436,-0.9195379018783569,-0.02702658623456955,9.455105781555176,-10.69668960571289,-7.296794414520264, 3.946502923965454
65,813025543,0.39586517,-0.045445252,-0.0158157,0.91704714,-0.9101588129997253,-0.009161455556750298,9.428383827209473,-9.571765899658203,-7.1428985595703125, 4.398080825805664
66,813042210,0.39507023,-0.04524057,-0.017432615,0.9173706,-0.890782356262207,-0.21754103899002075,9.636707305908203,-10.180707931518555,-6.05731725692749, 4.636458396911621
67,813058877,0.39427143,-0.045354456,-0.01883942,0.9176808,-0.7147195935249329,-0.320368230342865,9.747495651245117,-9.778485298156738,-3.5049591064453125, 4.915329456329346
68,813075544,0.39366,-0.04580072,-0.019680602,0.9179035,-0.7089545130729675,-0.12508197128772736,9.497904777526855,-7.113134384155273,0.1610206514596939, 3.9856503009796143
69,813092211,0.39305514,-0.04656099,-0.02026632,0.9181117,-0.8434607982635498,-0.15891627967357635,9.579273223876953,-6.376141548156738,2.867553472518921, 3.6699867248535156
70,813108878,0.39238074,-0.047584243,-0.021048244,0.91833013,-0.7954778671264648,-0.42336881160736084,9.413490295410156,-8.382847785949707,3.9831154346466064, 3.958322525024414
71,813125545,0.39157182,-0.048585773,-0.021514732,0.9186121,-0.6722934246063232,-0.879173994064331,9.41718578338623,-6.361760139465332,4.671994209289551, 4.806345462799072
72,813142212,0.39076903,-0.049491894,-0.021572527,0.9189042,-0.6193262338638306,-0.9533025622367859,9.510907173156738,-3.503190517425537,5.156855583190918, 5.172530651092529
73,813158879,0.38994497,-0.050278433,-0.021176731,0.9192208,-0.6531543731689453,-1.1352646350860596,9.820242881774902,-0.2650402784347534,5.640179634094238, 5.334812164306641
74,813175546,0.3892278,-0.0510843,-0.020623336,0.9194928,-0.5758908987045288,-0.8915259838104248,9.975855827331543,0.7599993348121643,6.227146148681641, 4.651849269866943
75,813192213,0.38867658,-0.052089535,-0.02028143,0.9196772,-0.6500484943389893,-0.9343966245651245,10.046087265014648,-1.0981191396713257,6.94527530670166, 4.0529093742370605
76,813208880,0.38807473,-0.053059284,-0.020082535,0.91988015,-0.7074892520904541,-0.8552045226097107,10.000105857849121,-1.821037769317627,6.417731285095215, 3.4539313316345215
77,813225547,0.38765883,-0.05393539,-0.019820662,0.92001027,-0.6968176364898682,-0.945707380771637,10.08175277709961,-1.1307367086410522,6.028813362121582, 2.5200271606445312
78,813242214,0.3873417,-0.054642797,-0.019196242,0.9201154,-0.7132576107978821,-0.9867306351661682,10.333139419555664,1.6617330312728882,5.960134029388428, 2.0660297870635986
79,813258881,0.38718998,-0.055216856,-0.01854387,0.9201582,-0.8068158626556396,-0.6664738655090332,10.036197662353516,2.2695093154907227,5.251467227935791, 0.8895994424819946
80,813275548,0.38712385,-0.055502653,-0.017791811,0.9201836,-0.8847820162773132,-0.7105990052223206,9.93370246887207,3.6762101650238037,3.7035391330718994, 0.5018104314804077
81,813292215,0.38711137,-0.05552044,-0.017182902,0.9201995,-0.9475964307785034,-0.5964645147323608,10.219344139099121,3.5498759746551514,1.6760247945785522, -0.45080918073654175
82,813308882,0.38725317,-0.05558668,-0.01709429,0.9201374,-0.8872205018997192,-0.4906034469604492,10.415717124938965,0.10690101236104965,0.5915573835372925, -1.1416348218917847
83,813325549,0.38742372,-0.055686604,-0.017459126,0.9200528,-0.8396311402320862,-0.354341983795166,9.983926773071289,-2.853433847427368,-0.37662193179130554, -1.632156491279602
84,813342216,0.38750443,-0.05579181,-0.01780926,0.92000574,-0.794830858707428,-0.5586822628974915,9.942505836486816,-2.773573398590088,-0.2713153064250946, -1.6299152374267578
85,813358883,0.3876212,-0.055851024,-0.018151594,0.9199463,-0.8845499753952026,-0.6006764769554138,9.689901351928711,-2.66587233543396,-0.5791928172111511, -1.17653226852417
86,813375550,0.38763165,-0.055828914,-0.018354679,0.9199391,-0.8347063660621643,-0.5949270129203796,9.77086353302002,-1.5342903137207031,-0.6923753023147583, -1.1253962516784668
87,813392217,0.38765243,-0.055690903,-0.01851212,0.9199356,-0.9487630724906921,-0.6186436414718628,9.780189514160156,-0.9685570001602173,-1.3253674507141113, -0.8844448924064636
88,813408884,0.3876723,-0.055585366,-0.018689454,0.91993,-0.8861504197120667,-0.6359307765960693,9.654928207397461,-1.1863033771514893,-1.178901195526123, -0.8484078645706177
89,813425551,0.38764712,-0.055535365,-0.018821977,0.9199409,-0.8476711511611938,-0.5578839182853699,9.760648727416992,-1.0471111536026,-0.7029021382331848, -0.7587634325027466
90,813442218,0.3876271,-0.05560851,-0.01915148,0.9199381,-0.8597133755683899,-0.5694145560264587,9.816155433654785,-2.6371731758117676,-0.44560977816581726, -0.8011780381202698
91,813458885,0.38765264,-0.05557004,-0.019354384,0.9199256,-0.8516930341720581,-0.6244023442268372,9.640188217163086,-1.5568292140960693,-0.8246519565582275, -0.8234353065490723
92,813475552,0.38763222,-0.055425365,-0.019386614,0.91994214,-0.8748708963394165,-0.6620087623596191,9.66787338256836,-0.20351850986480713,-1.0503640174865723, -0.5009971857070923
93,813492219,0.3876368,-0.055340342,-0.019436346,0.91994435,-0.8698207139968872,-0.6318402886390686,9.716781616210938,-0.4809040129184723,-0.7247241139411926, -0.574057400226593
94,813508886,0.38759205,-0.055273935,-0.019586576,0.91996396,-0.8618709444999695,-0.6875097751617432,9.55240249633789,-1.166620135307312,-0.8708445429801941, -0.4590691924095154
95,813525553,0.38757256,-0.055189796,-0.019690674,0.91997504,-0.8895742893218994,-0.7256463170051575,9.53306770324707,-0.8111413717269897,-0.8486127257347107, -0.6866764426231384
96,813542220,0.3875882,-0.055113666,-0.019628705,0.9199743,-0.857771098613739,-0.7086222767829895,9.754673957824707,0.21553725004196167,-0.3667994737625122, -0.7014678120613098
97,813558887,0.38762462,-0.055166442,-0.019476961,0.91995895,-0.8020806908607483,-0.5399763584136963,10.022031784057617,0.4724070429801941,0.7191470265388489, -1.077974557876587
98,813575554,0.387635,-0.055368606,-0.019456083,0.9199429,-0.7828950881958008,-0.4837751090526581,9.824254989624023,-0.765089750289917,1.329395055770874, -1.0917540788650513
99,813592221,0.3876215,-0.055592924,-0.019464295,0.9199349,-0.859971821308136,-0.5471658706665039,9.62711238861084,-1.0694583654403687,1.359375, -0.516262412071228
100,813608888,0.38752696,-0.055795074,-0.019487536,0.91996205,-0.8659430146217346,-0.6108749508857727,9.70985221862793,-1.1198256015777588,1.1746944189071655, -0.16274309158325195
101,813625555,0.38745373,-0.055955175,-0.019486872,0.9199832,-0.8824587464332581,-0.5923011898994446,9.71065616607666,-0.8817171454429626,0.9538617730140686, -0.04338790848851204
102,813642222,0.38730803,-0.05604646,-0.019480607,0.92003906,-0.8806754350662231,-0.5843648314476013,9.86571979522705,-0.6384605169296265,0.5588755011558533, -0.07754244655370712
103,813658889,0.38718122,-0.056056518,-0.019481514,0.9200918,-0.8826187252998352,-0.587760329246521,9.919958114624023,-0.49414578080177307,0.008253691717982292, 0.022161386907100677
104,813675556,0.38707578,-0.05611271,-0.019556537,0.9201312,-0.835130512714386,-0.5626150369644165,9.92740249633789,-1.0825718641281128,0.1164289265871048, -0.2391841858625412
105,813692223,0.3869808,-0.05615953,-0.019611945,0.92016715,-0.8376154899597168,-0.6422619819641113,9.758187294006348,-0.948451042175293,0.11006417125463486, -0.2165297567844391
106,813708890,0.38687328,-0.056210212,-0.019649182,0.92020845,-0.8463324904441833,-0.6079198718070984,9.738454818725586,-0.8364723324775696,0.19559776782989502, -0.3059948980808258
107,813725557,0.38674676,-0.05626228,-0.019690862,0.92025745,-0.8769984841346741,-0.5819592475891113,9.721954345703125,-0.8722404837608337,0.19726260006427765, -0.24349993467330933
108,813742224,0.38661668,-0.056330193,-0.019763904,0.92030644,-0.8838755488395691,-0.5713381171226501,9.747037887573242,-1.1380746364593506,0.19979825615882874, -0.07330354303121567
109,813758891,0.3864595,-0.056363814,-0.019840501,0.9203688,-0.8777852654457092,-0.6153060793876648,9.807210922241211,-1.0885781049728394,-0.03693350777029991, 0.12628981471061707
110,813775558,0.3863409,-0.05636132,-0.019888535,0.9204177,-0.8837541937828064,-0.5672290325164795,9.8071870803833,-0.8397507667541504,-0.2099088728427887, 0.18907934427261353
111,813792225,0.38620377,-0.056390237,-0.019957954,0.9204719,-0.8431029915809631,-0.6050503253936768,9.87465763092041,-1.0420269966125488,-0.04233779013156891, -0.018774107098579407
112,813808892,0.38608742,-0.056431223,-0.020080248,0.92051554,-0.7995989322662354,-0.6232035160064697,9.8421630859375,-1.4035630226135254,-0.09034879505634308, -0.25831687450408936
113,813825559,0.3860317,-0.056414925,-0.020161154,0.9205381,-0.8219820857048035,-0.640157163143158,9.844609260559082,-1.0039280652999878,-0.3463861346244812, -0.40744680166244507
114,813842226,0.38597125,-0.056369014,-0.020250557,0.9205643,-0.8516063690185547,-0.6393018960952759,9.91828727722168,-0.9713871479034424,-0.5411706566810608, -0.5276344418525696
115,813858893,0.38593546,-0.05631366,-0.02035576,0.92058045,-0.8606221675872803,-0.5585991740226746,9.746598243713379,-1.0614030361175537,-0.6484623551368713, -0.5637355446815491
116,813875560,0.38585377,-0.056237176,-0.020417014,0.9206181,-0.8819175362586975,-0.5732494592666626,9.654411315917969,-0.7507209777832031,-0.6777504086494446, -0.20779582858085632
117,813892227,0.3857608,-0.05620318,-0.02049902,0.9206572,-0.87489253282547,-0.6399257183074951,9.754735946655273,-0.9840911030769348,-0.44576337933540344, -0.3708590865135193
118,813908894,0.3856938,-0.056204423,-0.020552974,0.920684,-0.808134138584137,-0.606499969959259,9.762584686279297,-0.9216858148574829,-0.16326814889907837, -0.3165217339992523
119,813925561,0.38559252,-0.056214314,-0.020589514,0.9207249,-0.8533785939216614,-0.5754229426383972,9.892939567565918,-0.8180439472198486,-0.03578094393014908, -0.4271557629108429
120,813942228,0.38555655,-0.05629067,-0.020681899,0.92073333,-0.8351983428001404,-0.5853304862976074,9.834369659423828,-1.376579999923706,0.22429679334163666, -0.510038435459137
121,813958895,0.38542753,-0.056314442,-0.020732434,0.92078483,-0.879732608795166,-0.581108033657074,9.714192390441895,-0.9714127779006958,0.012274885550141335, -0.23609784245491028
122,813975562,0.38533998,-0.056318462,-0.020759223,0.92082053,-0.8830010890960693,-0.5854822993278503,9.778883934020996,-0.7943650484085083,-0.06714368611574173, -0.24104110896587372
123,813992229,0.3851941,-0.056341253,-0.020838114,0.92087847,-0.8440334796905518,-0.581808865070343,9.789372444152832,-1.1652495861053467,-0.069564089179039, -0.19036637246608734
124,814008896,0.38507888,-0.05634618,-0.020916415,0.9209245,-0.8418903350830078,-0.6363338828086853,9.842972755432129,-1.1337846517562866,-0.18907296657562256, -0.2217419594526291
125,814025563,0.38494915,-0.05631501,-0.020963825,0.92097956,-0.8376455903053284,-0.635489821434021,9.8223295211792,-0.8363185524940491,-0.32382136583328247, -0.2733258903026581
126,814042230,0.38491032,-0.056339104,-0.02104197,0.9209925,-0.8880276083946228,-0.5934216976165771,9.725072860717773,-1.2198817729949951,-0.08516223728656769, -0.3239878714084625
127,814058897,0.38480392,-0.056364793,-0.021072956,0.9210347,-0.8584560751914978,-0.6010969281196594,9.72480583190918,-0.9032317996025085,0.07621698826551437, -0.3123212456703186
128,814075564,0.38472697,-0.056417216,-0.021084886,0.9210634,-0.8382776379585266,-0.613623321056366,9.797505378723145,-0.8618801236152649,0.2960315942764282, -0.4025804102420807
129,814092231,0.3846888,-0.056510646,-0.021078054,0.92107373,-0.820361852645874,-0.507416844367981,9.84705924987793,-0.8792070746421814,0.5893033146858215, -0.40131255984306335
130,814108898,0.38464695,-0.05661314,-0.021099566,0.92108446,-0.8667890429496765,-0.5080981254577637,9.821816444396973,-1.1028317213058472,0.5707213282585144, -0.34173744916915894
131,814125565,0.38452873,-0.05670092,-0.021153498,0.9211273,-0.8862064480781555,-0.5846831798553467,9.827640533447266,-1.2615535259246826,0.4135618507862091, -0.24565140902996063
132,814142232,0.38440254,-0.056761336,-0.021204066,0.92117494,-0.8150386214256287,-0.6579375863075256,9.806882858276367,-1.2053592205047607,0.22082628309726715, 0.05572683364152908
133,814158899,0.38428566,-0.05680264,-0.021282211,0.9212194,-0.789496898651123,-0.67423415184021,9.767208099365234,-1.3431684970855713,0.02193087339401245, 0.09212248027324677
134,814175566,0.38418937,-0.056799393,-0.021332772,0.92125857,-0.8669232130050659,-0.701409101486206,9.77872085571289,-1.0500438213348389,-0.18035182356834412, -0.025574281811714172
135,814192233,0.38409448,-0.056719627,-0.021349924,0.9213027,-0.8846195340156555,-0.6158695220947266,9.849493026733398,-0.6146023273468018,-0.557153046131134, -0.21973133087158203
136,814208900,0.38400728,-0.056622498,-0.021388294,0.9213441,-0.8668869733810425,-0.4950742721557617,9.896510124206543,-0.7031198143959045,-0.7166945338249207, -0.34144288301467896
137,814225567,0.38393864,-0.05658402,-0.021483885,0.9213729,-0.8592860698699951,-0.49219849705696106,9.788000106811523,-1.2703642845153809,-0.5258031487464905, -0.14686322212219238
138,814242234,0.38385144,-0.056580786,-0.021533376,0.9214081,-0.8407025337219238,-0.5878753662109375,9.704731941223145,-1.075912594795227,-0.1691078543663025, -0.13468436896800995
139,814258901,0.38373655,-0.056610383,-0.021530969,0.92145425,-0.8172820210456848,-0.609041690826416,9.694458961486816,-0.8134849071502686,0.2049720138311386, -0.3004113435745239
140,814275568,0.3836672,-0.05668021,-0.021511724,0.92147934,-0.8193147778511047,-0.6353382468223572,9.74344539642334,-0.8448604941368103,0.48349729180336, -0.24781566858291626
141,814292235,0.38356632,-0.05679742,-0.021525623,0.9215138,-0.8077976107597351,-0.6200351715087891,9.840737342834473,-1.1758918762207031,0.7106179594993591, -0.21722131967544556
142,814308902,0.38349363,-0.056930974,-0.0215672,0.92153484,-0.8063617944717407,-0.6344482898712158,9.763839721679688,-1.4081863164901733,0.7394834756851196, -0.278576523065567
143,814325569,0.38335723,-0.057039145,-0.021577973,0.92158467,-0.8358224630355835,-0.6235446333885193,9.73393440246582,-1.1488065719604492,0.6657060980796814, -0.04083945229649544
144,814342236,0.38323417,-0.057132516,-0.021586137,0.92162997,-0.8643004894256592,-0.6086060404777527,9.80118465423584,-1.1157402992248535,0.5647152662277222, 0.08730729669332504
145,814358903,0.38314763,-0.05725129,-0.021601077,0.9216582,-0.8469786047935486,-0.5674765706062317,9.834518432617188,-1.2324575185775757,0.7094398140907288, -0.09963340312242508
146,814375570,0.38310128,-0.05733418,-0.021622274,0.9216717,-0.8519089818000793,-0.5599619150161743,9.824414253234863,-1.1887751817703247,0.46524831652641296, -0.26943278312683105
147,814392237,0.38303715,-0.057349134,-0.021632735,0.92169714,-0.8960326910018921,-0.5750601291656494,9.770916938781738,-0.9424448609352112,0.07195247709751129, -0.28015169501304626
148,814408904,0.38296643,-0.057275344,-0.021622136,0.9217314,-0.8990406394004822,-0.6200177669525146,9.776649475097656,-0.5915893316268921,-0.4457505941390991, -0.1545342206954956
149,814425571,0.3828736,-0.057186488,-0.021647211,0.9217749,-0.881705105304718,-0.6473234295845032,9.806097030639648,-0.7950437664985657,-0.6471431851387024, 0.013235362246632576
150,814442238,0.38278064,-0.057076477,-0.021677587,0.9218197,-0.8452754020690918,-0.6154116988182068,9.820576667785645,-0.7716977596282959,-0.7902926206588745, -0.0408010296523571
151,814458905,0.38270304,-0.056951337,-0.02170183,0.92185915,-0.8547421097755432,-0.666291356086731,9.834997177124023,-0.6861769556999207,-0.8555025458335876, -0.23794196546077728
152,814475572,0.3826786,-0.056812573,-0.021721063,0.9218773,-0.8775523900985718,-0.5892960429191589,9.80598258972168,-0.6309559941291809,-0.9371431469917297, -0.3852790296077728
153,814492239,0.38266066,-0.05666577,-0.021735683,0.9218935,-0.8616545796394348,-0.5385825037956238,9.798124313354492,-0.5718162655830383,-0.9603994488716125, -0.5638251900672913
154,814508906,0.38263872,-0.056504816,-0.021762058,0.9219119,-0.8273139595985413,-0.5635818243026733,9.74304485321045,-0.6057403683662415,-1.0670379400253296, -0.7007507085800171
155,814525573,0.3826927,-0.056366757,-0.02173942,0.9218984,-0.7767459750175476,-0.6441847085952759,9.779966354370117,-0.363930881023407,-0.7913172841072083, -1.0117145776748657
156,814542240,0.38276705,-0.056292664,-0.021665106,0.92187375,-0.7384843230247498,-0.7033429741859436,9.920000076293945,-0.198383167386055,-0.23342134058475494, -1.1772621870040894
157,814558907,0.38283527,-0.056315977,-0.02160166,0.9218455,-0.7680526971817017,-0.5948891639709473,9.739829063415527,-0.5277496576309204,0.36343780159950256, -1.1365635395050049
158,814575574,0.38284397,-0.056383196,-0.021542957,0.9218392,-0.8899515271186829,-0.5895144939422607,9.680782318115234,-0.698330283164978,0.6184763312339783, -0.7089467644691467
159,814592241,0.38279322,-0.056454953,-0.021498948,0.9218568,-0.8767424821853638,-0.5308567881584167,9.743430137634277,-0.8162895441055298,0.6007266044616699, -0.40655040740966797
160,814608908,0.3827308,-0.056534175,-0.021459116,0.9218788,-0.8346713185310364,-0.49075865745544434,9.805208206176758,-0.8877617716789246,0.621127188205719, -0.21834824979305267
161,814625575,0.3826582,-0.05659606,-0.021398414,0.92190653,-0.8134962916374207,-0.5128729939460754,9.889586448669434,-0.7233667373657227,0.5667770504951477, -0.16083496809005737
162,814642242,0.38255367,-0.05665834,-0.021416726,0.92194575,-0.8277302384376526,-0.5337283611297607,9.857483863830566,-1.2454432249069214,0.3581872284412384, 0.018383517861366272
163,814658909,0.38243625,-0.056707576,-0.021427248,0.9219912,-0.806380033493042,-0.5856792330741882,9.81031608581543,-1.1724469661712646,0.2977924346923828, 0.07799707353115082
164,814675576,0.38231668,-0.056753684,-0.021418214,0.92203814,-0.8391161561012268,-0.5912752151489258,9.795720100402832,-1.0540393590927124,0.32596641778945923, 0.15982964634895325
165,814692243,0.38217178,-0.0568042,-0.021427412,0.92209494,-0.8572304248809814,-0.6094058752059937,9.772623062133789,-1.193257212638855,0.3025948405265808, 0.3127502501010895
166,814708910,0.3820336,-0.056872185,-0.021412998,0.9221483,-0.8636218309402466,-0.6115576028823853,9.73071002960205,-1.1023449897766113,0.468206524848938, 0.3609277606010437
167,814725577,0.38190612,-0.05694268,-0.021382315,0.9221974,-0.8735691905021667,-0.6170487403869629,9.788413047790527,-1.0037360191345215,0.5326865315437317, 0.24385210871696472
168,814742244,0.38178712,-0.05696506,-0.02135902,0.9222458,-0.9049792289733887,-0.5770303606987,9.823076248168945,-0.9224796891212463,0.21247653663158417, 0.14633174240589142
169,814758911,0.3816982,-0.05697042,-0.021403387,0.9222813,-0.8660399913787842,-0.5588621497154236,9.836313247680664,-1.3105378150939941,-0.07151065766811371, -0.024741869419813156
170,814775578,0.3816083,-0.056980874,-0.0214455,0.92231685,-0.8018894791603088,-0.6309753060340881,9.795397758483887,-1.3158268928527832,-0.030914530158042908, -0.04647424817085266
171,814792245,0.3815269,-0.056976825,-0.021427076,0.92235124,-0.7926870584487915,-0.623300313949585,9.769789695739746,-0.8926922082901001,0.04335589334368706, -0.09554816782474518
172,814808912,0.38147834,-0.056992818,-0.021383455,0.9223714,-0.8119426369667053,-0.6187446117401123,9.728328704833984,-0.7975154519081116,0.23262092471122742, -0.15285657346248627
173,814825579,0.3814028,-0.057013243,-0.021303382,0.9224032,-0.8344221711158752,-0.5842986106872559,9.779990196228027,-0.5682305097579956,0.37290164828300476, -0.14592835307121277
174,814842246,0.38134146,-0.05706446,-0.021254854,0.92242646,-0.8386031985282898,-0.5486295819282532,9.861272811889648,-0.8571546673774719,0.48626354336738586, -0.20970399677753448
175,814858913,0.38128242,-0.057130754,-0.021241229,0.9224471,-0.8864471912384033,-0.5670119524002075,9.816716194152832,-1.133054494857788,0.4869038462638855, -0.17987798154354095
176,814875580,0.38123125,-0.05713488,-0.021207165,0.9224687,-0.9416725039482117,-0.6275689005851746,9.775891304016113,-0.8488560318946838,0.14133726060390472, -0.18099212646484375
177,814892247,0.38120294,-0.05706404,-0.021162733,0.9224858,-0.8962297439575195,-0.6677100658416748,9.76982307434082,-0.5894634127616882,-0.3137683570384979, -0.2704957127571106
178,814908914,0.38119286,-0.05698129,-0.021121377,0.92249614,-0.8168199062347412,-0.6915204524993896,9.82168960571289,-0.5556035041809082,-0.3775183856487274, -0.5618530511856079
179,814925581,0.38123602,-0.056905586,-0.02106495,0.9224842,-0.7736451625823975,-0.6387577056884766,9.849575996398926,-0.4639612138271332,-0.2772574722766876, -0.9165248274803162
180,814942248,0.38130334,-0.056863874,-0.021010904,0.92246026,-0.7984012961387634,-0.4986725449562073,9.796189308166504,-0.554924726486206,-0.046487048268318176, -1.1723700761795044
181,814958915,0.3813463,-0.056892175,-0.020994056,0.9224412,-0.8282318115234375,-0.44129306077957153,9.697076797485352,-1.000739574432373,0.29122281074523926, -0.9398836493492126
182,814975582,0.38133037,-0.057017133,-0.020943929,0.9224412,-0.8358175754547119,-0.5267227292060852,9.76369857788086,-1.0853382349014282,0.9683457016944885, -0.40132540464401245
183,814992249,0.38124415,-0.05713679,-0.020856911,0.92247134,-0.8549879789352417,-0.5885955691337585,9.754548072814941,-0.8601640462875366,1.019455909729004, 0.04797898977994919
184,815008916,0.38112062,-0.057220925,-0.02075575,0.92251956,-0.874539852142334,-0.5924662947654724,9.785173416137695,-0.6918758153915405,0.8211750984191895, 0.31650251150131226
185,815025583,0.38098088,-0.057234485,-0.02074454,0.9225766,-0.8807593584060669,-0.5648338794708252,9.832507133483887,-1.0951862335205078,0.12399748712778091, 0.48002681136131287
186,815042250,0.38082862,-0.057195637,-0.020781893,0.922641,-0.8764035105705261,-0.5051295757293701,9.8538236618042,-1.268507480621338,-0.33377188444137573, 0.4723173975944519
187,815058917,0.38067156,-0.057164047,-0.020846607,0.92270637,-0.833132803440094,-0.488493412733078,9.842076301574707,-1.4775581359863281,-0.3652626872062683, 0.5628454089164734
188,815075584,0.38052434,-0.05712287,-0.020862099,0.92276925,-0.8373368978500366,-0.5836362242698669,9.822418212890625,-1.1446443796157837,-0.29066571593284607, 0.4778240919113159
189,815092251,0.38038945,-0.057087824,-0.020871215,0.92282677,-0.847083568572998,-0.611501932144165,9.789251327514648,-1.133489966392517,-0.24157896637916565, 0.5076372027397156
190,815108918,0.3802559,-0.057080843,-0.020899847,0.9228816,-0.8261778354644775,-0.6502772569656372,9.75316047668457,-1.335062026977539,-0.11343865096569061, 0.5196753144264221
191,815125585,0.38013116,-0.05706085,-0.020914568,0.922934,-0.8331423401832581,-0.6877961158752441,9.746100425720215,-1.205026388168335,-0.1503593772649765, 0.41928631067276
192,815142252,0.38002196,-0.057057265,-0.020916793,0.92297906,-0.8580166101455688,-0.6662477254867554,9.752561569213867,-1.1598199605941772,-0.005250603426247835, 0.2869967222213745
193,815158919,0.37996596,-0.05704204,-0.020857101,0.9230043,-0.8651489019393921,-0.6041215658187866,9.755139350891113,-0.7345849871635437,0.08265858143568039, 0.07085112482309341
194,815175586,0.37993088,-0.05698477,-0.020796057,0.9230237,-0.851963460445404,-0.6036280393600464,9.835495948791504,-0.6059707999229431,-0.16986341774463654, -0.12356846034526825
195,815192253,0.379896,-0.056914147,-0.020782385,0.9230427,-0.8499069809913635,-0.5854539275169373,9.80103588104248,-0.8662342429161072,-0.3693479299545288, -0.24178387224674225
196,815208920,0.3798957,-0.056845147,-0.020763552,0.9230476,-0.8271837830543518,-0.6100707650184631,9.820469856262207,-0.8201954960823059,-0.32490992546081543, -0.5804861783981323
197,815225587,0.3799588,-0.056797463,-0.020731471,0.9230253,-0.8238642811775208,-0.6411579251289368,9.81002426147461,-0.7866045236587524,-0.14588995277881622, -0.9290238618850708
198,815242254,0.38005874,-0.056775235,-0.020684902,0.92298657,-0.8280313014984131,-0.6040619015693665,9.747598648071289,-0.7603386044502258,0.057378850877285004, -1.0798571109771729
199,815258921,0.3801081,-0.056758642,-0.020647995,0.92296815,-0.8394467234611511,-0.5591433644294739,9.747896194458008,-0.8264065980911255,0.08122427761554718, -0.9960907697677612
200,815275588,0.3801364,-0.05676063,-0.020595333,0.92295736,-0.8565866351127625,-0.5482152700424194,9.778671264648438,-0.8051353096961975,0.21780401468276978, -0.6582977175712585
201,815292255,0.38010573,-0.05678098,-0.020545853,0.92296994,-0.842405378818512,-0.5162211656570435,9.805109024047852,-0.8875440359115601,0.3188076615333557, -0.3113223612308502
202,815308922,0.38006935,-0.056821994,-0.02052497,0.9229829,-0.8334872722625732,-0.5094774961471558,9.862967491149902,-1.1539802551269531,0.35506245493888855, -0.0760953351855278
203,815325589,0.37996715,-0.05684322,-0.020509852,0.923024,-0.842808187007904,-0.5199676156044006,9.79171085357666,-1.1420319080352783,0.21987861394882202, 0.14461570978164673
204,815342256,0.37988913,-0.056852512,-0.020504197,0.92305565,-0.8598766326904297,-0.5410666465759277,9.821162223815918,-1.1951525211334229,0.10354574024677277, 0.2238357812166214
205,815358923,0.37979633,-0.056849007,-0.02050746,0.923094,-0.8411773443222046,-0.5386789441108704,9.831530570983887,-1.2237364053726196,-0.0010885397205129266, 0.27057895064353943
206,815375590,0.37967753,-0.05683351,-0.020526186,0.92314345,-0.8493906259536743,-0.5631882548332214,9.76616382598877,-1.299409031867981,-0.1195344626903534, 0.4202723801136017
207,815392257,0.3795671,-0.056804657,-0.020519724,0.9231908,-0.8356994390487671,-0.6174406409263611,9.777448654174805,-1.1042020320892334,-0.13481244444847107, 0.36199069023132324
208,815408924,0.37946722,-0.056790084,-0.020512583,0.92323285,-0.8176211714744568,-0.6336106657981873,9.816725730895996,-1.1399956941604614,-0.04245305061340332, 0.34548330307006836
209,815425591,0.37938952,-0.056811284,-0.020510742,0.92326355,-0.8386435508728027,-0.6451318860054016,9.768534660339355,-1.2524226903915405,0.18786275386810303, 0.09773166477680206
210,815442258,0.37933564,-0.056850042,-0.02047116,0.9232842,-0.8420030474662781,-0.6499756574630737,9.765856742858887,-1.0471240282058716,0.408682644367218, -0.09713616222143173
211,815458925,0.3792929,-0.056886584,-0.02042356,0.92330056,-0.8688300848007202,-0.6145800352096558,9.780126571655273,-0.985192596912384,0.42034924030303955, -0.19036638736724854
212,815475592,0.3792634,-0.05690347,-0.02037544,0.9233126,-0.8460882902145386,-0.5585147738456726,9.792491912841797,-0.9275894165039062,0.29947006702423096, -0.2672429084777832
213,815492259,0.37924856,-0.056930494,-0.020337641,0.9233179,-0.8366938233375549,-0.5561914443969727,9.803982734680176,-1.0219084024429321,0.3391953706741333, -0.3472185730934143
214,815508926,0.37924057,-0.056981668,-0.020286877,0.9233192,-0.8007826209068298,-0.6052932739257812,9.802908897399902,-1.0028204917907715,0.5315915942192078, -0.39982062578201294
215,815525593,0.3792762,-0.05703174,-0.020205084,0.9233031,-0.830571174621582,-0.6280267238616943,9.814581871032715,-0.8140868544578552,0.599433183670044, -0.48495084047317505
216,815542260,0.37931466,-0.057048976,-0.020132745,0.92328787,-0.8397554159164429,-0.5651950836181641,9.828092575073242,-0.792008638381958,0.3640780746936798, -0.456956148147583
217,815558927,0.3792967,-0.057028785,-0.020101229,0.9232972,-0.8599990010261536,-0.5467715859413147,9.819852828979492,-0.9500517845153809,0.026912543922662735, -0.2948661744594574
218,815575594,0.37928423,-0.056989685,-0.020066708,0.9233055,-0.8718081712722778,-0.5511859059333801,9.815479278564453,-0.9113638997077942,-0.10880274325609207, -0.07467381656169891
219,815592261,0.37923774,-0.05696061,-0.02003938,0.9233271,-0.8465417623519897,-0.5421311855316162,9.80124282836914,-0.9827592372894287,-0.06003617122769356, 0.022443128749728203
220,815608928,0.37916923,-0.056976542,-0.020013822,0.9233547,-0.835598349571228,-0.5384904146194458,9.782427787780762,-1.1167263984680176,0.2223118096590042, 0.12197406589984894
221,815625595,0.37912714,-0.0570348,-0.019974869,0.9233692,-0.8295525312423706,-0.545677900314331,9.791229248046875,-1.157271385192871,0.5183305740356445, 0.14178551733493805
222,815642262,0.37906832,-0.057086427,-0.019953951,0.9233907,-0.8450804352760315,-0.5596099495887756,9.78921890258789,-1.2517439126968384,0.4366260766983032, 0.13834060728549957
223,815658929,0.37901,-0.057140276,-0.019915415,0.92341214,-0.8710121512413025,-0.5900591015815735,9.814763069152832,-1.1423135995864868,0.5030526518821716, 0.07058221101760864
224,815675596,0.37892455,-0.057167534,-0.01988758,0.9234461,-0.8695160150527954,-0.6498602032661438,9.745683670043945,-1.1401878595352173,0.3077046275138855, 0.1360226422548294
225,815692263,0.37887546,-0.05719022,-0.019846093,0.9234656,-0.848752498626709,-0.638028621673584,9.760302543640137,-1.0486736297607422,0.305732399225235, 0.100728340446949
226,815708930,0.3788364,-0.057206295,-0.019809246,0.9234814,-0.8195451498031616,-0.6070866584777832,9.812124252319336,-1.05027437210083,0.2606668472290039, -0.034705210477113724
227,815725597,0.37886104,-0.057244696,-0.019768542,0.92346984,-0.8283023238182068,-0.5981783866882324,9.79603385925293,-1.0964540243148804,0.4047894775867462, -0.15290780365467072
228,815742264,0.37882087,-0.057263087,-0.019738562,0.9234859,-0.8598694205284119,-0.5933459401130676,9.7963285446167,-1.0889623165130615,0.2725639343261719, -0.14221449196338654
229,815758931,0.37883863,-0.05727761,-0.019694405,0.92347866,-0.8491446375846863,-0.5528852939605713,9.823372840881348,-0.9939008355140686,0.2820022702217102, -0.3435303568840027
230,815775598,0.37886143,-0.057267774,-0.019654913,0.92347074,-0.8612204790115356,-0.5531092882156372,9.809090614318848,-0.959195613861084,0.11855478584766388, -0.3817957043647766
231,815792265,0.3788514,-0.05727123,-0.019607294,0.9234757,-0.8528200387954712,-0.5787093043327332,9.799394607543945,-0.939191997051239,0.22982914745807648, -0.30657121539115906
232,815808932,0.37883717,-0.057266194,-0.019542245,0.92348313,-0.8396340012550354,-0.5864503383636475,9.789589881896973,-0.8074146509170532,0.22203008830547333, -0.2814067006111145
233,815825599,0.378842,-0.057288766,-0.019484825,0.92348105,-0.8182945251464844,-0.6075802445411682,9.73918628692627,-0.9485023021697998,0.36298954486846924, -0.18255451321601868
234,815842266,0.37881127,-0.057310596,-0.019409964,0.9234938,-0.8422470688819885,-0.6075267195701599,9.782169342041016,-0.8231922388076782,0.41657137870788574, -0.15917015075683594
235,815858933,0.37880713,-0.057351254,-0.019376872,0.9234937,-0.8704394698143005,-0.5274545550346375,9.784371376037598,-1.149741291999817,0.4187996983528137, -0.15172964334487915
236,815875600,0.37877607,-0.05739227,-0.019347576,0.92350453,-0.8545430898666382,-0.524050772190094,9.824783325195312,-1.1746240854263306,0.413984477519989, -0.07248394191265106
237,815892267,0.37878734,-0.057427816,-0.019315997,0.92349833,-0.8371259570121765,-0.5370075702667236,9.840415954589844,-1.1692967414855957,0.3698025941848755, -0.06095822528004646
238,815908934,0.3787763,-0.057432674,-0.019283755,0.9235032,-0.8406811952590942,-0.5785779356956482,9.785103797912598,-1.0703163146972656,0.1923193484544754, -0.13243046402931213
239,815925601,0.3787795,-0.057415634,-0.019237364,0.92350394,-0.8460624814033508,-0.607869029045105,9.807387351989746,-0.9305861592292786,0.08527107536792755, -0.10765017569065094
240,815942268,0.3787688,-0.057418685,-0.019200642,0.92350894,-0.8586834669113159,-0.6325328946113586,9.763195037841797,-1.0413994789123535,0.19203761219978333, -0.0934223160147667
241,815958935,0.3787603,-0.05744099,-0.01916578,0.92351174,-0.8591180443763733,-0.6029276251792908,9.743608474731445,-1.1003726720809937,0.3117513656616211, -0.11715249717235565
242,815975602,0.37872395,-0.057471693,-0.019112693,0.92352587,-0.8469305038452148,-0.5791339874267578,9.785958290100098,-1.0044019222259521,0.4150601327419281, -0.04013510048389435
243,815992269,0.37872285,-0.057517596,-0.01904485,0.92352486,-0.8592138290405273,-0.5661770105361938,9.791068077087402,-0.9628069400787354,0.5414844155311584, -0.04379771649837494
244,816008936,0.3787418,-0.057561733,-0.018980542,0.9235157,-0.8540825843811035,-0.5644702911376953,9.804133415222168,-0.9903151392936707,0.515129029750824, -0.04752436280250549
245,816025603,0.37870926,-0.05759803,-0.018918192,0.9235281,-0.8649393320083618,-0.5755724310874939,9.821033477783203,-0.9616928696632385,0.47901514172554016, -0.05359457805752754
246,816042270,0.37872225,-0.05764548,-0.018877288,0.9235205,-0.8724959492683411,-0.5760994553565979,9.774955749511719,-1.1394449472427368,0.48610979318618774, -0.13570888340473175
247,816058937,0.37877342,-0.057654653,-0.018804116,0.9235005,-0.8927274346351624,-0.6044939756393433,9.775169372558594,-0.8400197625160217,0.3219836950302124, -0.21786163747310638
248,816075604,0.37879154,-0.057637997,-0.018752549,0.9234951,-0.8552769422531128,-0.5862536430358887,9.851680755615234,-0.9007857441902161,0.10751570016145706, -0.1853206902742386
249,816092271,0.3788042,-0.057651233,-0.01869701,0.9234902,-0.7903514504432678,-0.568456768989563,9.81645393371582,-0.9610140323638916,0.3043364882469177, -0.09878817200660706
250,816108938,0.37878424,-0.057660528,-0.018629724,0.9234993,-0.8726673126220703,-0.5883788466453552,9.766257286071777,-0.8753907680511475,0.313992440700531, 0.040589723736047745
251,816125605,0.37878084,-0.057642035,-0.018554885,0.9235033,-0.9136816263198853,-0.5891873240470886,9.76960563659668,-0.7578797340393066,0.15533462166786194, -0.013369828462600708
252,816142272,0.37879455,-0.057599414,-0.018514868,0.92350113,-0.8949399590492249,-0.5788089632987976,9.81871509552002,-0.9131054878234863,-0.08840222656726837, -0.11393808573484421
253,816158939,0.37881994,-0.05754921,-0.018522318,0.9234937,-0.8519448041915894,-0.6017455458641052,9.816780090332031,-1.1855734586715698,-0.2528485655784607, -0.2722629904747009
254,816175606,0.3788253,-0.057492472,-0.018529443,0.92349494,-0.8714586496353149,-0.5972068905830383,9.811267852783203,-1.1515470743179321,-0.28198301792144775, -0.3093886077404022
255,816192273,0.37887445,-0.05748438,-0.018500216,0.92347574,-0.8776341676712036,-0.5634269118309021,9.719350814819336,-1.061492681503296,0.11354750394821167, -0.36957845091819763
256,816208940,0.37886652,-0.05750385,-0.018433556,0.92347914,-0.8913451433181763,-0.5283574461936951,9.771793365478516,-0.8940752148628235,0.3864379823207855, -0.1288062483072281
257,816225607,0.37886462,-0.05753349,-0.0184106,0.92347854,-0.8054457306861877,-0.594407320022583,9.750380516052246,-1.1998909711837769,0.33722320199012756, -0.168800488114357
258,816242274,0.378883,-0.05756258,-0.018348642,0.92347044,-0.8543986082077026,-0.6225265264511108,9.803471565246582,-0.9649711847305298,0.4270981252193451, -0.10578044503927231
259,816258941,0.37889645,-0.05761516,-0.018292664,0.9234628,-0.8830291628837585,-0.5889254212379456,9.852718353271484,-1.0606603622436523,0.5634602308273315, -0.09764842689037323
260,816275608,0.3788747,-0.057638478,-0.01827294,0.9234706,-0.8502966165542603,-0.5629715919494629,9.787151336669922,-1.206563115119934,0.2891097664833069, -0.05643758550286293
261,816292275,0.37884626,-0.057689317,-0.018255625,0.92347944,-0.8497203588485718,-0.5541409254074097,9.720113754272461,-1.3173381090164185,0.4405704736709595, 0.20433171093463898
262,816308942,0.3788424,-0.057791397,-0.018228518,0.92347515,-0.8807050585746765,-0.6106467843055725,9.73837661743164,-1.3844050168991089,0.7990843057632446, 0.04157581552863121
263,816325609,0.37885642,-0.057884973,-0.018149985,0.9234652,-0.8906587958335876,-0.595495879650116,9.77988052368164,-1.0248793363571167,0.8858600854873657, -0.09915957599878311
264,816342276,0.3788815,-0.057952754,-0.018129854,0.92345095,-0.8949280977249146,-0.6311501264572144,9.859885215759277,-1.3208340406417847,0.5737692713737488, -0.20880752801895142
265,816358943,0.37898785,-0.057983015,-0.018101847,0.923406,-0.9269486665725708,-0.5777471661567688,9.808934211730957,-1.1984566450119019,0.3344314396381378, -0.2635803520679474
266,816375610,0.37905234,-0.05803829,-0.018128399,0.9233755,-0.9438513517379761,-0.5903611779212952,9.765715599060059,-1.5989880561828613,0.3603002429008484, -0.25594770908355713
267,816392277,0.37906832,-0.058076017,-0.0180595,0.92336786,-1.0141927003860474,-0.5932940244674683,9.747258186340332,-0.9514862298965454,0.488914430141449, 0.04417550191283226
268,816408944,0.37906343,-0.05812564,-0.017998526,0.923368,-0.9719487428665161,-0.5555078983306885,9.760809898376465,-1.01519775390625,0.5517807602882385, -0.0378427617251873
269,816425611,0.3790795,-0.058250498,-0.01789203,0.9233556,-0.9471371173858643,-0.6013370752334595,9.762887954711914,-0.9475162029266357,1.1309223175048828, 0.08233842253684998
270,816442278,0.37907165,-0.058483094,-0.017767541,0.9233466,-0.9058435559272766,-0.5896574854850769,9.643065452575684,-1.1128078699111938,1.860192894935608, 0.21839310228824615
271,816458945,0.3790718,-0.058882855,-0.017569253,0.923325,-0.8946720361709595,-0.5659555792808533,9.65035629272461,-1.0777182579040527,3.119466543197632, 0.17709259688854218
272,816475612,0.37910074,-0.059393823,-0.01735586,0.9232845,-0.8414493203163147,-0.4818144738674164,9.655823707580566,-1.263474464416504,3.875361442565918, -0.02690614014863968
273,816492279,0.3791041,-0.06000088,-0.017112775,0.9232483,-0.7468942999839783,-0.5476140379905701,9.735601425170898,-1.3310025930404663,4.566315650939941, 0.09609245508909225
274,816508946,0.37906125,-0.0606533,-0.016745962,0.92323,-0.7791225910186768,-0.632209062576294,9.798219680786133,-0.6751123666763306,5.177204608917236, 0.4100017547607422
275,816525613,0.37893936,-0.061351098,-0.016361265,0.9232406,-0.8623148798942566,-0.718117892742157,9.733133316040039,-0.7071154713630676,5.498489856719971, 0.9803325533866882
276,816542280,0.37880915,-0.062025886,-0.015927633,0.9232565,-0.9057048559188843,-0.6548505425453186,9.807455062866211,-0.352533221244812,5.467549800872803, 1.22627854347229
277,816558947,0.37866214,-0.062709615,-0.015633121,0.9232757,-0.9710053205490112,-0.6153475046157837,9.802743911743164,-1.2740014791488647,5.154050350189209, 1.3800956010818481
278,816575614,0.3784815,-0.06333824,-0.015396818,0.92331094,-1.0383961200714111,-0.5779163837432861,9.767213821411133,-1.4811441898345947,4.664873123168945, 1.3251307010650635
279,816592281,0.37834942,-0.063874185,-0.015124588,0.9233326,-1.0754882097244263,-0.5048003196716309,9.90557861328125,-0.9978579878807068,4.17518424987793, 1.0446460247039795
280,816608948,0.3782702,-0.06434113,-0.014934768,0.9233358,-1.0707533359527588,-0.42179441452026367,9.930519104003906,-1.3020473718643188,3.547865390777588, 0.4481774866580963
281,816625615,0.3782336,-0.064635366,-0.01476849,0.9233329,-1.0632911920547485,-0.5415725708007812,9.873714447021484,-1.0200001001358032,2.378312110900879, 0.36035144329071045
282,816642282,0.3782097,-0.06476468,-0.014580705,0.9233366,-1.0443941354751587,-0.5885137319564819,9.851407051086426,-0.47211891412734985,1.3703498840332031, 0.4755958318710327
283,816658949,0.37817156,-0.06482768,-0.014388822,0.9233508,-0.9978833198547363,-0.6603730916976929,9.906158447265625,-0.25196489691734314,0.9710221886634827, 0.37116000056266785
284,816675616,0.3781649,-0.064886175,-0.014314366,0.92335063,-0.9658650755882263,-0.654797375202179,9.89074420928955,-0.9841423034667969,0.6409001350402832, 0.1853911131620407
285,816692283,0.37818062,-0.06489253,-0.014278922,0.9233443,-0.9800862669944763,-0.6471296548843384,9.788376808166504,-1.111898422241211,0.19695524871349335, 0.25711947679519653
286,816708950,0.37820178,-0.06490364,-0.014260751,0.9233351,-0.9592798352241516,-0.6285039782524109,9.764999389648438,-1.2292815446853638,0.1905777007341385, 0.15739643573760986
287,816725617,0.37820438,-0.06490574,-0.014215931,0.9233346,-1.0141741037368774,-0.5463606715202332,9.768644332885742,-1.0062973499298096,0.22041647136211395, 0.041947197169065475
288,816742284,0.37828362,-0.06494026,-0.01417061,0.92330027,-1.0356446504592896,-0.5111982226371765,9.759612083435059,-1.117315649986267,0.41180741786956787, -0.017378218472003937
289,816758951,0.37832743,-0.06497104,-0.014105543,0.92328113,-1.1029770374298096,-0.5421611666679382,9.750588417053223,-0.9624227285385132,0.4514046013355255, -0.036357223987579346
290,816775618,0.37833917,-0.0649759,-0.0140232565,0.92327726,-1.0836008787155151,-0.5660074949264526,9.745940208435059,-0.7818403840065002,0.33096083998680115, 0.06635609269142151
291,816792285,0.3783362,-0.06496199,-0.013926211,0.9232811,-1.048715591430664,-0.6005703806877136,9.78730297088623,-0.6329410076141357,0.2543661296367645, 0.044188305735588074
292,816808952,0.3783918,-0.064983055,-0.013870342,0.92325747,-0.9540835618972778,-0.6563935875892639,9.807005882263184,-1.0096269845962524,0.35440927743911743, 0.01610398292541504
293,816825619,0.37838614,-0.064998165,-0.013800999,0.92325985,-0.98264479637146,-0.6108677983283997,9.785249710083008,-0.8742638230323792,0.37249186635017395, 0.018345095217227936
294,816842286,0.3783876,-0.065032385,-0.013724774,0.92325795,-1.0735483169555664,-0.5223105549812317,9.756649017333984,-0.8969568014144897,0.5061134099960327, 0.10723397880792618
295,816858953,0.3784117,-0.06507635,-0.013704625,0.92324525,-1.0481544733047485,-0.5232937335968018,9.78381633758545,-1.282325267791748,0.41593101620674133, 0.06494739651679993
296,816875620,0.37844983,-0.06519132,-0.013656447,0.92322224,-1.0110760927200317,-0.5780488848686218,9.667468070983887,-1.3033663034439087,0.9377386569976807, 0.07628101855516434
297,816892287,0.37850258,-0.06531223,-0.013467107,0.9231949,-1.0830552577972412,-0.6320440769195557,9.743639945983887,-0.42989638447761536,1.3368741273880005, 0.16624563932418823
298,816908954,0.37848562,-0.065499865,-0.013306356,0.923191,-1.071300983428955,-0.57730633020401,9.709931373596191,-0.7480188608169556,1.7080659866333008, 0.1278650015592575
299,816925621,0.3785142,-0.06567794,-0.013114742,0.9231693,-1.067319393157959,-0.5477226376533508,9.793658256530762,-0.5614175796508789,1.70615816116333, 0.24908992648124695
300,816942288,0.3785309,-0.06600916,-0.013039591,0.92313987,-0.999822199344635,-0.5705074071884155,9.763467788696289,-1.7087385654449463,2.3770828247070312, 0.27303779125213623
301,816958955,0.3784966,-0.0663359,-0.012798784,0.9231339,-1.0543681383132935,-0.6130555868148804,9.6064453125,-0.6260384321212769,2.7894086837768555, 0.42390936613082886
302,816975622,0.3785713,-0.06666275,-0.012472963,0.9230844,-1.1097042560577393,-0.6054441928863525,9.776955604553223,-0.14466054737567902,2.9798007011413574, 0.48919618129730225
303,816992289,0.37852472,-0.066964075,-0.012184295,0.92308533,-1.0876309871673584,-0.5560331344604492,9.812430381774902,-0.22893911600112915,2.762694835662842, 0.33138352632522583
304,817008956,0.37848967,-0.06726843,-0.011975059,0.9230804,-1.0710182189941406,-0.5619702935218811,9.831565856933594,-0.7837485671043396,2.5555388927459717, 0.5418814420700073
305,817025623,0.37848315,-0.067606546,-0.0117869545,0.9230609,-1.1012617349624634,-0.58694988489151,9.739726066589355,-1.0380828380584717,2.7004942893981934, 0.6501207947731018
306,817042290,0.3784356,-0.06791206,-0.011578022,0.92306036,-1.126110315322876,-0.5731137990951538,9.763557434082031,-0.8007938265800476,2.5564610958099365, 0.6807406544685364
307,817058957,0.3784187,-0.0681804,-0.011366732,0.9230502,-1.1092886924743652,-0.5610477328300476,9.818833351135254,-0.6953336000442505,2.320939779281616, 0.6269668340682983
308,817075624,0.37837976,-0.06844827,-0.011176046,0.9230487,-1.0908678770065308,-0.570388913154602,9.778433799743652,-0.8105778694152832,2.2729029655456543, 0.590455949306488
309,817092291,0.37833816,-0.068681166,-0.010944439,0.92305106,-1.1118823289871216,-0.62120521068573,9.797032356262207,-0.45521456003189087,2.1597461700439453, 0.5905328392982483
310,817108958,0.37835038,-0.0688204,-0.010746355,0.9230381,-1.1583538055419922,-0.6064685583114624,9.861066818237305,-0.4024011194705963,1.4860424995422363, 0.238832026720047
311,817125625,0.37845108,-0.06880779,-0.010603578,0.92299944,-1.1557157039642334,-0.5804471373558044,9.940857887268066,-0.3766731321811676,0.36753585934638977, -0.00040980317862704396
312,817142292,0.37855062,-0.06872332,-0.010610558,0.9229648,-1.1587655544281006,-0.531019389629364,9.803525924682617,-1.1368581056594849,-0.4772670567035675, -0.08995180577039719
313,817158959,0.37864807,-0.06859195,-0.0105774,0.92293495,-1.115134835243225,-0.5964818000793457,9.718657493591309,-0.7563302516937256,-0.6762521266937256, -0.03158045932650566
314,817175626,0.37875003,-0.068471655,-0.010525594,0.92290264,-1.1331992149353027,-0.5919947028160095,9.811318397521973,-0.6345546245574951,-0.5420030355453491, -0.24740585684776306
315,817192293,0.37889302,-0.06831304,-0.010465602,0.92285645,-1.0864393711090088,-0.5448248386383057,9.743597984313965,-0.47475701570510864,-0.7604666948318481, -0.4510268568992615
316,817208960,0.3790338,-0.06803623,-0.010375966,0.9228201,-1.1240861415863037,-0.5585552453994751,9.811617851257324,-0.007005071733146906,-1.4464770555496216, -0.2481486201286316
317,817225627,0.3791588,-0.06758957,-0.010329986,0.92280215,-1.1325736045837402,-0.547487199306488,9.902348518371582,0.17748962342739105,-2.6373910903930664, -0.2786405682563782
318,817242294,0.37935668,-0.066892825,-0.010318142,0.92277163,-1.1151494979858398,-0.6012519598007202,9.901670455932617,0.6122907400131226,-4.32020902633667, -0.540991485118866
319,817258961,0.37962356,-0.06579467,-0.010224092,0.922742,-1.1419428586959839,-0.6808813810348511,10.008342742919922,2.2306549549102783,-6.637545108795166, -1.0957114696502686
320,817275628,0.3798119,-0.06402394,-0.009837553,0.92279327,-1.1819462776184082,-0.8650760054588318,10.508671760559082,5.812849521636963,-10.18270492553711, -0.2811635136604309
321,817292295,0.38002312,-0.062774114,-0.010053557,0.92278975,-1.1100705862045288,0.04014106094837189,9.784936904907227,0.6522595286369324,-8.427475929260254, -0.7790231704711914
322,817308962,0.3800278,-0.06298695,-0.010573605,0.9227676,-0.8279401659965515,-0.3450208604335785,8.439504623413086,-5.134501934051514,0.09189196676015854, -0.17784178256988525
323,817325629,0.3798524,-0.0642711,-0.010238159,0.92275494,-0.823205828666687,-0.42722514271736145,8.223864555358887,-2.607834815979004,9.089649200439453, 1.694594383239746
324,817342296,0.3795617,-0.06659198,-0.009319394,0.9227197,-0.9158942103385925,-0.3490840196609497,8.876655578613281,-1.6708461046218872,17.193086624145508, 2.710857391357422
325,817358963,0.3795939,-0.07078671,-0.006054283,0.9224214,-0.3843485713005066,-0.47143009305000305,10.057429313659668,8.476876258850098,35.362972259521484, 0.943172812461853
326,817375630,0.3800105,-0.076334596,-0.0008471034,0.9218267,-1.5731358528137207,-0.7253773212432861,9.980843544006348,17.431396484375,49.19742965698242, -1.2564046382904053
327,817392297,0.37997314,-0.0796333,0.002459721,0.9215601,-1.782537817955017,-0.6486459374427795,10.244542121887207,11.148063659667969,29.839508056640625, 0.6914492845535278
328,817408964,0.3800793,-0.08133115,0.0037844,0.92136353,-1.7975016832351685,-0.7596479654312134,10.430034637451172,2.7441279888153076,14.425539016723633, -0.35107356309890747
329,817425631,0.38051724,-0.08124914,0.0041956394,0.9211883,-1.8372312784194946,-0.8029828071594238,10.881494522094727,1.8048564195632935,0.7358976602554321, -2.862769842147827
330,817442298,0.38132304,-0.07949794,0.0038290105,0.92100936,-1.7321009635925293,-0.5957209467887878,11.121685028076172,1.4655405282974243,-11.882533073425293, -5.625321388244629
331,817458965,0.38237047,-0.07624871,0.002501368,0.9208544,-1.5073397159576416,-0.3302866816520691,11.158177375793457,-0.5296589732170105,-23.906612396240234, -7.681854724884033
332,817475632,0.38349107,-0.0713937,0.00016515623,0.920781,-1.2624177932739258,-0.4687867760658264,10.575434684753418,-2.622164726257324,-36.75605010986328, -8.650066375732422
333,817492299,0.38475987,-0.06444191,-0.002428743,0.9207613,-0.8969889879226685,-0.8400916457176208,10.507779121398926,1.347336769104004,-50.733219146728516, -9.551116943359375
334,817508966,0.38633913,-0.055155553,-0.004976385,0.920693,-0.6263177394866943,-0.92628413438797,10.956671714782715,7.953642845153809,-65.357666015625, -11.563687324523926
335,817525633,0.38815296,-0.043825917,-0.007924034,0.9205183,-0.1336592584848404,-0.4195694923400879,11.881701469421387,10.943862915039062,-79.29707336425781, -13.451614379882812
336,817542300,0.39016715,-0.031654328,-0.013024649,0.92010766,0.43986421823501587,0.10013490170240402,11.426131248474121,-0.3872626721858978,-90.27227020263672, -15.936103820800781
337,817558967,0.39192557,-0.01838247,-0.019681318,0.9196027,1.3321869373321533,-0.10172988474369049,10.418238639831543,-7.341948986053467,-101.37368774414062, -15.166023254394531
338,817575634,0.39358187,-0.0041259145,-0.026492633,0.91889846,1.9491357803344727,-0.5382492542266846,10.2081937789917,-5.707952976226807,-107.96331024169922, -15.169565200805664
339,817592301,0.39522898,0.010887715,-0.032547593,0.9179413,2.1931469440460205,-1.0654670000076294,10.353321075439453,1.078553318977356,-110.63069152832031, -16.142230987548828
340,817608968,0.39697197,0.02657975,-0.037236538,0.9166898,2.5502662658691406,-1.0627028942108154,10.121541976928711,11.489177703857422,-111.15243530273438, -17.78982162475586
341,817625635,0.3985735,0.04310732,-0.040779,0.9152148,2.795772075653076,-1.045236587524414,10.30448055267334,20.98375701904297,-113.31813049316406, -17.92198944091797
342,817642302,0.3998556,0.05965348,-0.043695636,0.91359055,2.3999791145324707,0.05048598349094391,10.08301830291748,25.045320510864258,-111.80853271484375, -16.504486083984375
343,817658969,0.40096825,0.07450794,-0.047161907,0.91183823,1.6505789756774902,1.1844624280929565,8.647107124328613,16.96458625793457,-102.77108764648438, -15.050827026367188
344,817675636,0.40256304,0.087397575,-0.05182392,0.90973586,1.9965922832489014,1.5246073007583618,6.656440258026123,3.6549670696258545,-93.77093505859375, -17.775081634521484
345,817692303,0.4043824,0.10018469,-0.056234837,0.90734535,3.8709161281585693,-0.8908308148384094,8.218514442443848,4.662433624267578,-92.51485443115234, -20.074447631835938
346,817708970,0.4064905,0.11361504,-0.05982769,0.9045871,4.9749908447265625,-1.402435541152954,10.429651260375977,11.236087799072266,-94.34666442871094, -23.706403732299805
347,817725637,0.4089824,0.12754479,-0.063664675,0.90133935,5.059337615966797,-0.1372414380311966,11.066316604614258,10.646965980529785,-98.3042984008789, -27.47638511657715
348,817742304,0.41130364,0.14081499,-0.068393104,0.8979548,5.382262229919434,0.9137182235717773,10.439223289489746,3.359372138977051,-96.87467193603516, -25.72684669494629
349,817758971,0.41301242,0.15364212,-0.073045634,0.8946951,3.8752803802490234,0.7771208882331848,9.76866626739502,3.203402280807495,-94.0447006225586, -21.442684173583984
350,817775638,0.41484758,0.16493052,-0.078479856,0.89137,2.8717732429504395,1.3641855716705322,6.45734167098999,-6.158580780029297,-86.79937744140625, -20.792463302612305
351,817792305,0.4164353,0.176019,-0.08353774,0.8880431,3.366816520690918,-0.055286820977926254,7.482553482055664,-4.1731367111206055,-84.63363647460938, -19.57923698425293
352,817808972,0.41784927,0.1868631,-0.087835714,0.88474244,4.526776313781738,-0.09691785275936127,8.405904769897461,-0.0020746791269630194,-81.03328704833984, -19.216588973999023
353,817825639,0.41886166,0.19774692,-0.09181167,0.88148844,5.751021862030029,0.1881292760372162,9.3281831741333,2.62241268157959,-80.51842498779297, -17.07282066345215
354,817842306,0.4193456,0.2080955,-0.09531669,0.87849903,4.61562967300415,0.871301531791687,10.184077262878418,4.822134017944336,-75.86445617675781, -13.403459548950195
355,817858973,0.41978654,0.21737678,-0.09789429,0.875753,2.385396957397461,1.3231931924819946,8.766168594360352,7.554069995880127,-66.43936920166016, -13.057605743408203
356,817875640,0.42012486,0.22560942,-0.09948574,0.8733259,0.8036101460456848,0.8481666445732117,7.786201000213623,10.81014633178711,-56.927791595458984, -12.270581245422363
357,817892307,0.4204128,0.23260425,-0.10087793,0.87119,0.7611240148544312,0.5192744731903076,7.864512920379639,8.697709083557129,-48.58620071411133, -10.579265594482422
358,817908974,0.4204145,0.23860297,-0.10221575,0.8694092,1.8645052909851074,-0.17515966296195984,8.120320320129395,6.846287250518799,-42.18031692504883, -7.228245735168457
359,817925641,0.419548,0.24399164,-0.10281743,0.8682605,3.206639528274536,-0.23178809881210327,9.719584465026855,11.366710662841797,-36.045345306396484, -0.9939186573028564
360,817942308,0.4185266,0.24817184,-0.10346113,0.86749196,3.4498813152313232,0.8975544571876526,10.281014442443848,8.175976753234863,-28.482038497924805, 1.9457194805145264
361,817958975,0.4170746,0.2511769,-0.1033903,0.86733466,2.7653391361236572,-0.06086539477109909,9.633102416992188,10.218594551086426,-18.741254806518555, 5.896098613739014
362,817975642,0.41553128,0.2527453,-0.10288913,0.8676794,1.4327423572540283,-0.9273127317428589,9.282208442687988,9.193371772766113,-8.20641803741455, 8.152303695678711
363,817992309,0.41423652,0.252816,-0.102386236,0.8683371,0.8723557591438293,-1.0805546045303345,9.277551651000977,4.745515823364258,1.360719919204712, 8.60317325592041
364,818008976,0.41319305,0.25142804,-0.10189132,0.869295,0.5953435897827148,-0.43663740158081055,9.384664535522461,0.3516177535057068,10.64179515838623, 8.98000431060791
365,818025643,0.4125279,0.24853139,-0.10126926,0.87051576,0.5110235214233398,0.2909870445728302,9.932299613952637,-3.626265287399292,20.63057518005371, 8.291313171386719
366,818042310,0.41237205,0.24403831,-0.10060679,0.87193626,-0.02125101536512375,0.2159581184387207,9.927684783935547,-8.641936302185059,30.880767822265625, 6.848816394805908
367,818058977,0.41227418,0.2380602,-0.09995501,0.8737084,0.1719329059123993,-0.30629879236221313,9.548521995544434,-12.76870346069336,40.26007080078125, 8.538208961486816
368,818075644,0.41192472,0.23053144,-0.09904382,0.875993,0.017414793372154236,-0.20944316685199738,9.286712646484375,-14.83115005493164,50.865997314453125, 12.13037109375
369,818092311,0.41134235,0.22127247,-0.09824203,0.8787404,0.5887140035629272,-0.26185667514801025,9.881400108337402,-19.700071334838867,61.44636917114258, 16.182554244995117
370,818108978,0.41044667,0.20994204,-0.09726542,0.8820416,1.046869158744812,-0.7533639073371887,9.268861770629883,-23.647024154663086,74.9921875, 20.759092330932617
371,818125645,0.4086411,0.19638799,-0.09539589,0.8861963,0.7176011204719543,-0.2636374235153198,9.267023086547852,-22.611604690551758,91.54959869384766, 28.86252784729004
372,818142312,0.40683097,0.17997576,-0.09310248,0.8907464,0.5881051421165466,1.693532943725586,10.089263916015625,-27.797128677368164,110.61599731445312, 31.286781311035156
373,818158979,0.4059875,0.1585548,-0.08950342,0.8955578,4.787106513977051,-0.2293848991394043,9.135146141052246,-34.8913459777832,145.8154296875, 27.682327270507812
374,818175646,0.40579453,0.13208508,-0.079843305,0.9008382,6.731194972991943,-3.128726005554199,7.179528713226318,-12.090130805969238,194.78262329101562, 21.465234756469727
375,818192313,0.4050523,0.10026309,-0.061463684,0.9066985,11.001646995544434,-6.234049320220947,6.821384429931641,27.869707107543945,252.62315368652344, 21.478607177734375
376,818208980,0.39997008,0.060411796,-0.034976307,0.91386604,19.53577423095703,-4.187153339385986,11.45422077178955,59.74891662597656,324.6103515625, 49.97129440307617
377,818225647,0.38942578,0.013811706,-0.0045602787,0.9209432,16.71779441833496,-5.192870616912842,14.906889915466309,68.22566986083984,376.9537658691406, 84.06279754638672
378,818242314,0.3678847,-0.033421416,0.030336274,0.9287755,12.332235336303711,2.8117475509643555,20.364826202392578,96.121826171875,393.1017761230469, 155.37640380859375
379,818258981,0.35367268,-0.069508046,0.04287599,0.93179715,9.9645357131958,7.62869119644165,-4.2520880699157715,-15.876255989074707,265.0696105957031, 93.63153076171875
380,818275648,0.3548583,-0.06681095,0.06305558,0.93039554,8.802226066589355,15.274001121520996,-13.561253547668457,135.84832763671875,32.91973114013672, -0.4653891921043396
381,818292315,0.35560277,-0.063481785,0.06293333,0.9303528,-7.225017070770264,1.4833359718322754,16.08390998840332,6.3479132652282715,-20.93133544921875, -3.344691276550293
382,818308982,0.35875523,-0.05355556,0.057670325,0.9301079,-0.912613034248352,5.087348461151123,3.9767489433288574,-9.262757301330566,-76.77230834960938, -18.668142318725586
383,818325649,0.36335516,-0.05014516,0.039872766,0.9294454,-1.7137008905410767,3.1627814769744873,15.193024635314941,-104.90057373046875,-66.46974182128906, -36.1403923034668
384,818342316,0.3651043,-0.047089867,0.023118077,0.9294876,-4.360116004943848,-2.3630361557006836,12.193544387817383,-100.32960510253906,-61.0816650390625, -16.1118106842041
385,818358983,0.36717814,-0.04298414,0.015679197,0.9290246,-5.338608741760254,-1.4845044612884521,12.670830726623535,-37.89272689819336,-44.38203430175781, -16.50731658935547
386,818375650,0.3704524,-0.03740248,0.013261812,0.92800343,-6.534423828125,-1.9265280961990356,12.578505516052246,-1.6414415836334229,-41.19998550415039, -23.925556182861328
387,818392317,0.37330037,-0.030547354,0.014327008,0.9270969,-9.176271438598633,-1.5351369380950928,13.590266227722168,23.74650001525879,-40.57877731323242, -19.893348693847656
388,818408984,0.3757996,-0.024580028,0.01649745,0.92622805,-10.693073272705078,-1.296714425086975,13.98820686340332,28.473270416259766,-32.24858093261719, -17.423093795776367
389,818425651,0.37821847,-0.020704983,0.01833436,0.92530316,-9.603135108947754,-1.3557474613189697,11.789722442626953,20.9713077545166,-19.99322509765625, -17.343761444091797
390,818442318,0.38057554,-0.016366793,0.020522341,0.92437726,-7.2462992668151855,-0.16316743195056915,10.206049919128418,24.43932342529297,-22.221439361572266, -16.83644676208496
391,818458985,0.38274667,-0.010324603,0.020404859,0.9235703,-5.26741361618042,-0.3757762014865875,12.224398612976074,14.221776008605957,-39.22084426879883, -15.355329513549805
392,818475652,0.38490826,-0.0051243454,0.017085414,0.9227824,-4.870485305786133,-0.5651086568832397,13.718046188354492,-8.308270454406738,-42.40428924560547, -15.582151412963867
393,818492319,0.38642475,-0.0012851176,0.01226658,0.9222386,-5.74505090713501,-2.1273398399353027,13.068853378295898,-21.448163986206055,-37.76511764526367, -11.051983833312988
394,818508986,0.38806796,0.0027790673,0.008673073,0.921586,-6.0124592781066895,-2.760239601135254,12.125704765319824,-13.012453079223633,-36.062232971191406, -12.111711502075195
395,818525653,0.3894151,0.006344674,0.0075661466,0.9210094,-5.245888710021973,-2.2635998725891113,11.017440795898438,1.4838056564331055,-26.372922897338867, -10.105456352233887
396,818542320,0.39091495,0.01118333,0.0068220412,0.92033374,-4.258125305175781,0.06621914356946945,9.460906028747559,7.245628833770752,-33.582115173339844, -11.28350830078125
397,818558987,0.39344397,0.017137501,0.0015809982,0.9191876,-1.558188557624817,2.94976544380188,7.746158123016357,-18.260656356811523,-52.89732360839844, -18.662128448486328
398,818575654,0.3996914,0.0444646,-0.018585792,0.91538215,5.175244331359863,22.21585464477539,-53.84474182128906,-55.24180221557617,-228.77072143554688, -47.379859924316406
399,818592321,0.4040256,0.0893731,-0.051517006,0.9089125,71.4074478149414,14.707415580749512,52.99272155761719,-87.52029418945312,-375.51873779296875, -40.97076416015625
400,818608988,0.40116316,0.120048136,-0.07196679,0.90525,46.41584014892578,-32.983787536621094,47.47709655761719,-43.90898895263672,-251.23703002929688, 9.356142044067383
401,818625655,0.40085202,0.16522276,-0.055648338,0.8994011,9.30135726928711,4.214451313018799,-0.6174704432487488,222.5012664794922,-239.9363250732422, -50.21415328979492
402,818642322,0.3977799,0.19130658,-0.07632973,0.894062,-6.592719078063965,-2.3179311752319336,4.591770648956299,-55.75796127319336,-224.10214233398438, 17.63340950012207
403,818658989,0.39388537,0.21024103,-0.08628376,0.8906224,-17.256114959716797,7.648463249206543,4.964084625244141,-7.218500137329102,-148.9002685546875, 17.53339958190918
404,818675656,0.3957476,0.2201796,-0.096643925,0.886321,-16.785255432128906,1.0000150203704834,1.8175309896469116,-43.040287017822266,-93.12574768066406, -14.05319595336914
405,818692323,0.3963,0.23023191,-0.0958839,0.8835983,-3.936263084411621,-2.1882524490356445,3.8109025955200195,28.05221176147461,-62.3829460144043, -18.67173194885254
406,818708990,0.39302313,0.23758233,-0.093653016,0.8833555,0.7081624865531921,-2.7353549003601074,9.577691078186035,37.368961334228516,-40.674076080322266, 10.77916431427002
407,818725657,0.38858682,0.24015203,-0.09448358,0.884534,-0.21724364161491394,2.362279176712036,15.87039566040039,8.725625991821289,-18.4222469329834, 29.712100982666016
408,818742324,0.38576576,0.23761888,-0.097703405,0.8861018,-1.959101915359497,0.5432434678077698,12.908758163452148,-21.885221481323242,7.75161075592041, 28.20731544494629
409,818758991,0.38288143,0.23064324,-0.10179502,0.8887315,-3.2499165534973145,-4.637229919433594,9.852874755859375,-38.168373107910156,34.02919387817383, 35.815399169921875
410,818775658,0.38077357,0.22013766,-0.103722006,0.8920723,-5.30920934677124,-4.8485798835754395,10.404036521911621,-34.88478088378906,62.81175994873047, 31.92937660217285
411,818792325,0.38112405,0.20482877,-0.10450892,0.89547074,-4.9082770347595215,-1.2088069915771484,11.726275444030762,-44.0652961730957,96.90364837646484, 18.64649772644043
412,818808992,0.38423154,0.18255581,-0.10481383,0.89891803,-1.117012619972229,-1.7270108461380005,9.973467826843262,-63.183773040771484,142.90582275390625, 6.09498405456543
413,818825659,0.38901424,0.15304026,-0.10011263,0.9028976,1.0360268354415894,-4.334536552429199,7.853508949279785,-53.0743293762207,202.6857147216797, -3.951331615447998
414,818842326,0.3951853,0.11720089,-0.08485598,0.9071342,4.231156826019287,-6.197559833526611,5.204602241516113,-5.660666465759277,271.40533447265625, -18.677644729614258
415,818858993,0.39778438,0.07426782,-0.055381652,0.91278964,12.864871978759766,-7.226477146148682,7.630576133728027,67.59831237792969,353.4818420410156, 0.1303321123123169
416,818875660,0.39335403,0.022432502,-0.0146900965,0.91899604,22.227067947387695,-9.988972663879395,13.658954620361328,117.63765716552734,438.01092529296875, 43.475433349609375
417,818892327,0.37561175,-0.032860376,0.038863033,0.9253788,16.660564422607422,-2.411491632461548,17.82228660583496,191.9228515625,493.92181396484375, 126.59224700927734
418,818908994,0.3588047,-0.06976381,0.07117213,0.928077,22.0986270904541,15.861162185668945,-14.000377655029297,105.34581756591797,322.5964660644531, 111.2015151977539
419,818925661,0.35812396,-0.08083013,0.076244876,0.92703867,5.749290943145752,23.543943405151367,1.2077391147613525,4.422676086425781,84.74153900146484, -0.975484311580658
420,818942328,0.35580292,-0.08050851,0.0620426,0.9290174,-4.575565338134766,-1.6096844673156738,-2.205059289932251,-93.31365966796875,-36.0262336730957, 11.951960563659668
421,818958995,0.36186388,-0.07125631,0.0410336,0.92859757,0.1512194126844406,8.210002899169922,10.474844932556152,-109.27460479736328,-112.08455657958984, -47.2296028137207
422,818975662,0.3648743,-0.06333652,0.015218193,0.9287754,-0.9633534550666809,-3.782233476638794,11.88969898223877,-145.0558319091797,-114.96563720703125, -29.259639739990234
423,818992329,0.36545125,-0.057675283,-0.005260497,0.92902726,-1.5833280086517334,-2.875213146209717,15.501336097717285,-117.61073303222656,-86.92489624023438, -11.573630332946777
424,819008996,0.36662143,-0.05355122,-0.0149697475,0.92870724,-3.2394800186157227,-3.8342690467834473,13.92506217956543,-52.41106414794922,-49.79544448852539, -12.533477783203125
425,819025663,0.36677298,-0.046835717,-0.012372783,0.9290485,-6.067315578460693,-3.6959118843078613,14.13888931274414,32.451133728027344,-35.7149543762207, -0.08675090968608856
426,819042330,0.3661453,-0.036575798,0.00017671907,0.92983866,-9.646246910095215,-1.1270891427993774,16.430540084838867,104.80892181396484,-33.57036590576172, 8.91705322265625
427,819058997,0.36614642,-0.0254823,0.013743798,0.9301068,-10.448615074157715,2.3892900943756104,16.20395278930664,113.58358001708984,-36.375, 3.820909023284912
428,819075664,0.36654323,-0.017530091,0.020428905,0.93001163,-8.857379913330078,2.2547788619995117,13.899648666381836,61.720218658447266,-33.76857376098633, -1.1394519805908203
429,819092331,0.36907455,-0.010397232,0.02255414,0.92906797,-7.329071521759033,2.9972574710845947,10.287666320800781,30.8388671875,-40.37616729736328, -17.592403411865234
430,819108998,0.37368786,0.00044555822,0.01866672,0.9273667,-4.758217811584473,2.5050156116485596,9.897198677062988,2.0653276443481445,-79.73532104492188, -32.66627502441406
431,819125665,0.37887162,0.013069545,0.013173975,0.92526317,-2.8238110542297363,-0.22507765889167786,14.437097549438477,-3.5796735286712646,-95.38053131103516, -37.095882415771484
432,819142332,0.3824818,0.022844732,0.010348241,0.9236226,-2.857860803604126,-1.8100639581680298,20.058237075805664,6.084231853485107,-70.1789321899414, -26.366992950439453
433,819158999,0.38605738,0.031012485,0.008459267,0.9219145,-7.829956531524658,-0.23070329427719116,17.060209274291992,7.867802619934082,-57.578060150146484, -26.57794761657715
434,819175666,0.39035034,0.034302607,0.005951534,0.92000794,-8.20989990234375,1.3453187942504883,15.020833015441895,-9.119451522827148,-28.54584503173828, -31.796886444091797
435,819192333,0.39419436,0.033257198,0.0044794222,0.9184143,-7.355392932891846,-1.068467617034912,17.58160400390625,-14.117295265197754,1.584477424621582, -28.536998748779297
436,819209000,0.3980947,0.031267367,0.003164547,0.91680604,-5.762324810028076,0.12496677786111832,16.29009437561035,-15.656709671020508,7.818480968475342, -28.998828887939453
437,819225667,0.403139,0.030894516,-0.002113472,0.9146148,-2.4575693607330322,2.559312105178833,10.74209213256836,-36.42768859863281,-13.48879623413086, -36.922977447509766
438,819242334,0.40637466,0.035809156,-0.011298915,0.9129347,2.1437859535217285,0.3037993311882019,10.129311561584473,-45.98352813720703,-57.536338806152344, -23.3886775970459
439,819259001,0.40540126,0.04567701,-0.020604625,0.91276455,1.4527339935302734,-0.7671990990638733,12.802448272705078,-31.74462890625,-88.88334655761719, 6.889809608459473
440,819275668,0.40964845,0.07261979,-0.038017496,0.9085533,-2.735175609588623,25.729494094848633,-79.82368469238281,-37.22666931152344,-219.1865997314453, -37.015708923339844
441,819292335,0.413578,0.11524407,-0.06871392,0.90052795,58.81435012817383,3.2310047149658203,52.00277328491211,-77.33171844482422,-356.55010986328125, -43.176429748535156
442,819309002,0.41688982,0.13248931,-0.0796477,0.89571536,48.55651092529297,-13.748066902160645,15.801422119140625,-25.13675880432129,-139.9330596923828, -33.771446228027344
443,819325669,0.41166395,0.17574935,-0.08338517,0.89033246,28.40546989440918,-12.576188087463379,17.56549644470215,101.4956283569336,-284.039794921875, -3.6287033557891846
444,819342336,0.40395188,0.20513472,-0.10191033,0.8856393,-4.327068328857422,5.644555568695068,13.03206729888916,-24.7066650390625,-241.16384887695312, 39.32761001586914
445,819359003,0.40108883,0.2193283,-0.11108686,0.88242996,-16.304414749145508,1.409157156944275,10.116716384887695,-15.837518692016602,-117.34847259521484, 11.418972969055176
446,819375670,0.4030856,0.22517231,-0.114218034,0.8796442,-12.675739288330078,-1.7291326522827148,5.114208698272705,-9.205018997192383,-46.022212982177734, -19.636960983276367
447,819392337,0.40295163,0.22939426,-0.11201483,0.8788977,-6.373399257659912,-5.66483736038208,4.739463806152344,23.4907283782959,-20.201128005981445, -8.10903549194336
448,819409004,0.3992397,0.22923315,-0.11195031,0.88064015,-11.436525344848633,-3.526156187057495,4.525089263916016,6.070437908172607,1.3789851665496826, 27.106101989746094
449,819425671,0.39658266,0.22226359,-0.11366304,0.8834036,-18.77557945251465,4.008557319641113,10.953119277954102,-24.204540252685547,39.929508209228516, 31.529024124145508
450,819442338,0.3974462,0.20914796,-0.11113046,0.8865347,-11.091582298278809,1.3634307384490967,12.62816333770752,-20.33353614807129,91.79739379882812, 9.470587730407715
451,819459005,0.4002569,0.19076031,-0.10641515,0.8899893,-1.0199956893920898,-7.409482955932617,11.611083030700684,-24.013639450073242,131.61508178710938, -0.6388083100318909
452,819475672,0.40184128,0.16908212,-0.10394696,0.89394075,6.001984596252441,-7.31581974029541,10.315452575683594,-44.749324798583984,145.2458953857422, 13.532485008239746
453,819492339,0.40292606,0.1394968,-0.1026045,0.8987013,8.153698921203613,-2.2236135005950928,9.566346168518066,-72.26557922363281,191.37310791015625, 25.75905990600586
454,819509006,0.40289563,0.10188263,-0.09030582,0.9050635,7.124762535095215,-1.2663583755493164,9.306733131408691,-24.584280014038086,272.2069091796875, 32.24176025390625
455,819525673,0.4003775,0.055333506,-0.06733851,0.91219604,16.193910598754883,-4.706778049468994,10.171982765197754,19.29546356201172,356.51666259765625, 47.953033447265625
456,819542340,0.39227632,0.0033169482,-0.02606393,0.91947216,19.299760818481445,-16.627689361572266,10.728734970092773,121.38983917236328,439.0508117675781, 78.99702453613281
457,819559007,0.37486827,-0.04890235,0.02864644,0.9253443,10.652820587158203,-1.1843459606170654,13.936629295349121,206.08128356933594,475.2781677246094, 133.9069366455078
458,819575674,0.3650284,-0.0709233,0.06909731,0.92571586,27.13191032409668,17.82560920715332,-25.071102142333984,196.71034240722656,246.52049255371094, 72.48807525634766
459,819592341,0.36110318,-0.08424513,0.0595163,0.9268037,1.119157314300537,22.49446678161621,12.40456485748291,-97.81146240234375,62.67558670043945, 17.107458114624023
460,819609008,0.35641044,-0.07867283,0.04256825,0.93003774,-3.903404474258423,-0.0453416109085083,-6.55968713760376,-99.38056182861328,-76.9415283203125, 30.248620986938477
461,819625675,0.363847,-0.064155295,0.026424548,0.928871,-0.9142405390739441,4.743167400360107,12.957123756408691,-64.53964233398438,-133.43707275390625, -54.432029724121094
462,819642342,0.3675477,-0.053408466,0.006223025,0.9284491,-1.0409083366394043,-1.398579478263855,15.02503490447998,-101.67059326171875,-119.16676330566406, -31.600284576416016
463,819659009,0.36933348,-0.04675392,-0.009242582,0.92807406,-1.6751075983047485,-4.382988929748535,14.641494750976562,-82.4315414428711,-80.9976806640625, -18.017993927001953
464,819675676,0.37040412,-0.040255167,-0.0131507935,0.9279048,-3.326378583908081,-3.18109130859375,14.513228416442871,-9.240099906921387,-50.77280807495117, -9.187837600708008
465,819692343,0.37069002,-0.032465864,-0.008980083,0.92814565,-7.250578880310059,-1.9055452346801758,16.122446060180664,45.44376754760742,-38.649993896484375, -1.014723777770996
466,819709010,0.37161487,-0.02181567,0.0013199104,0.9281298,-10.42697525024414,-0.6706761717796326,16.632177352905273,91.9965591430664,-41.27309036254883, -4.562912464141846
467,819725677,0.37320492,-0.010517146,0.010915832,0.92762524,-9.30943489074707,-0.23692354559898376,15.681106567382812,89.27055358886719,-47.267791748046875, -10.163309097290039
468,819742344,0.3752801,0.00038536603,0.016739886,0.9267602,-6.672420501708984,-0.6106095314025879,12.060894966125488,64.2650146484375,-54.54293441772461, -14.485405921936035
469,819759011,0.3779933,0.014421753,0.02255288,0.92542136,-4.051953315734863,0.9346071481704712,12.743988037109375,72.34862518310547,-74.69975280761719, -19.40839195251465
470,819775678,0.38128904,0.027531995,0.02286139,0.92376304,-3.4827916622161865,0.7494819164276123,14.53472900390625,34.90670394897461,-83.28376770019531, -23.537883758544922
471,819792345,0.38366407,0.03822094,0.017761057,0.92251056,-3.404595136642456,-0.92462158203125,18.480363845825195,-5.67960262298584,-81.90628814697266, -15.977301597595215
472,819809012,0.38547033,0.043007478,0.01213436,0.92163765,-6.560737133026123,-2.285795211791992,19.94164276123047,-24.454891204833984,-45.731201171875, -11.946765899658203
473,819825679,0.38827226,0.04376603,0.0058664517,0.9204862,-7.83294677734375,-0.4366113543510437,14.716075897216797,-39.41773986816406,-22.158998489379883, -19.13917350769043
474,819842346,0.3913499,0.041019946,0.0027081512,0.9193233,-6.517291069030762,1.3564949035644531,16.27292251586914,-29.15816307067871,8.203243255615234, -21.9923095703125
475,819859013,0.3948114,0.036727972,-0.0013295028,0.9180269,-4.937040328979492,2.1432175636291504,16.135656356811523,-38.9866943359375,15.477978706359863, -24.56070899963379
476,819875680,0.399542,0.033499744,-0.010709432,0.9160401,-1.914009928703308,2.6936535835266113,12.386878967285156,-70.16130065917969,-5.963928699493408, -33.11326599121094
477,819892347,0.40356943,0.036812857,-0.021363556,0.91395867,1.0630401372909546,1.5777575969696045,9.99598503112793,-60.08710861206055,-50.761600494384766, -29.141366958618164
478,819909014,0.40472034,0.046176907,-0.028202565,0.9128384,1.5613014698028564,-1.6433030366897583,13.705930709838867,-18.4694881439209,-78.3671875, -10.25613784790039
479,819925681,0.40202978,0.05198393,-0.032272562,0.91358,-5.860234260559082,-1.4563068151474,19.343307495117188,-9.389451026916504,-48.47611618041992, 18.84428596496582
480,819942348,0.40837315,0.07948801,-0.04586202,0.90819055,-2.284688711166382,31.03878402709961,-82.54072570800781,-13.784029006958008,-211.3765106201172, -56.270912170410156
481,819959015,0.4135836,0.11267336,-0.073939815,0.90043676,50.735164642333984,3.3842945098876953,38.015506744384766,-88.79266357421875,-289.2047119140625, -49.65947341918945
482,819975682,0.41032445,0.13697597,-0.08457039,0.8976187,67.1576919555664,-22.660593032836914,25.38448143005371,3.032684087753296,-184.4695587158203, 7.891562461853027
483,819992349,0.4039633,0.17789556,-0.09573546,0.8921893,10.76526927947998,-5.0831780433654785,17.49167251586914,48.30100631713867,-292.1560974121094, 10.500890731811523
484,820009016,0.39853662,0.20571063,-0.11066154,0.88690805,-10.604660987854004,2.72676157951355,10.63154411315918,-12.1639404296875,-221.33285522460938, 18.39354133605957
485,820025683,0.39820722,0.21838729,-0.11333445,0.88368183,-12.980026245117188,6.435877323150635,10.731562614440918,15.404088020324707,-88.81381225585938, -12.866928100585938
486,820042350,0.3973667,0.22355762,-0.114661306,0.8825955,-8.190749168395996,-7.192108631134033,3.638591766357422,5.400329113006592,-36.913597106933594, -0.055605437606573105
487,820059017,0.39438656,0.2260576,-0.11771181,0.8828937,-8.850688934326172,-4.501918315887451,4.058830738067627,-7.900038719177246,-25.099021911621094, 21.42510223388672
488,820075684,0.38998714,0.22320159,-0.12267575,0.8848966,-14.719672203063965,1.7157002687454224,7.447937488555908,-30.408634185791016,3.6004176139831543, 41.94446563720703
489,820092351,0.38890073,0.21348746,-0.12531745,0.88739794,-14.308314323425293,2.7181811332702637,12.486529350280762,-39.354854583740234,54.919700622558594, 25.34046173095703
490,820109018,0.38959557,0.19588779,-0.12409146,0.8913164,-5.693158149719238,-3.311603307723999,11.804285049438477,-38.271915435791016,116.79116821289062, 19.373380661010742
491,820125685,0.39070344,0.17324841,-0.120559484,0.8959919,2.182523488998413,-7.615991115570068,9.703489303588867,-37.52845764160156,155.12722778320312, 20.034969329833984
492,820142352,0.39208162,0.14451893,-0.116560675,0.9009995,7.896049976348877,-5.944410800933838,8.07866382598877,-50.99631881713867,194.51895141601562, 23.72133445739746
493,820159019,0.39442694,0.10604081,-0.10582136,0.90663373,7.371945381164551,-4.57829475402832,7.8495001792907715,-35.92941665649414,274.5781555175781, 20.523290634155273
494,820175686,0.39487526,0.05762522,-0.07883215,0.9135309,16.202939987182617,-4.602135181427002,11.01812744140625,40.786094665527344,380.30694580078125, 31.16956901550293
495,820192353,0.3896887,-0.0017621792,-0.0416359,0.9200034,28.233177185058594,-12.79981803894043,15.513632774353027,77.18746185302734,474.0479736328125, 67.37825775146484
496,820209020,0.37288147,-0.055710565,0.018103225,0.9260282,10.934309959411621,-8.620187759399414,13.474617004394531,234.39688110351562,497.16357421875, 138.55104064941406
497,820225687,0.36500955,-0.07367392,0.06500371,0.9258051,21.27030372619629,19.746450424194336,-26.81991195678711,249.0310516357422,236.06967163085938, 65.07413482666016
498,820242354,0.36455673,-0.0808445,0.06008255,0.9257175,-1.621323585510254,25.58458709716797,11.974087715148926,-50.476810455322266,34.00799560546875, -2.588068962097168
499,820259021,0.3600536,-0.0727567,0.038110796,0.92930925,-2.3810830116271973,-0.21389685571193695,-7.00623083114624,-124.66804504394531,-106.2650146484375, 28.586605072021484
500,820275688,0.36723134,-0.056093864,0.017457858,0.92827266,0.003281116485595703,3.016773223876953,12.675789833068848,-88.03075408935547,-158.59671020507812, -53.936614990234375
501,820292355,0.3711929,-0.04345691,-0.005213011,0.92752385,0.3878668248653412,-0.3190789818763733,16.21211814880371,-112.31906127929688,-137.72198486328125, -34.3404541015625
502,820309022,0.37245488,-0.03794212,-0.02586601,0.9269137,-1.0467649698257446,-4.842037200927734,15.085376739501953,-118.40059661865234,-87.25941467285156, -16.22698974609375
503,820325689,0.37309393,-0.031470906,-0.029007206,0.92680585,-3.3448712825775146,-6.134842395782471,15.886430740356445,-4.374866008758545,-48.74919891357422, -6.55811071395874
504,820342356,0.3737744,-0.022374015,-0.01908245,0.92705345,-5.610638618469238,-1.9519497156143188,18.309255599975586,85.75016021728516,-32.05820083618164, -3.6064133644104004
505,820359023,0.37404832,-0.013963425,-0.0068235025,0.92727923,-9.581052780151367,-0.886063814163208,19.747583389282227,98.81035614013672,-21.779529571533203, -0.6309787631034851
506,820375690,0.3741682,-0.008129085,0.0023910864,0.92732227,-11.187568664550781,-1.3085129261016846,18.618776321411133,72.75545501708984,-13.253840446472168, -0.2980095148086548
507,820392357,0.3748158,-0.004166946,0.009171303,0.9270446,-8.47725772857666,-1.9663547277450562,16.279827117919922,52.465389251708984,-7.666712284088135, -4.657639026641846
508,820409024,0.37653,-0.0007675998,0.016903995,0.9262499,-5.996485710144043,-0.7962098121643066,12.515307426452637,57.17056655883789,-1.7497272491455078, -12.795799255371094
509,820425691,0.38053182,0.0053345426,0.0213843,0.9245052,-5.014361381530762,2.9632112979888916,7.742542266845703,43.5892219543457,-27.694856643676758, -29.52474021911621
510,820442358,0.38541043,0.015034248,0.020137927,0.922403,-2.8574182987213135,2.9980404376983643,8.536657333374023,16.59811782836914,-65.73519134521484, -35.293487548828125
511,820459025,0.38949603,0.027050398,0.0153486645,0.92050296,-0.6258863210678101,0.10531476140022278,13.358243942260742,0.2999020516872406,-89.71147918701172, -29.04007339477539
512,820475692,0.391751,0.03877924,0.009065788,0.91920924,-2.3303513526916504,-3.077448606491089,15.281749725341797,-9.638545989990234,-91.5914535522461, -15.5810546875
513,820492359,0.39299273,0.053138778,0.0072463136,0.91797626,-4.360880374908447,-0.9243800640106201,14.350550651550293,25.959598541259766,-96.13888549804688, -10.037075996398926
514,820509026,0.39512143,0.065762535,0.005306141,0.91625667,-5.206049919128418,2.605280876159668,12.831439018249512,20.224531173706055,-85.77506256103516, -16.99012565612793
515,820525693,0.3984964,0.072046384,-0.0012189397,0.9143351,-3.8143327236175537,1.958489179611206,14.062636375427246,-26.452795028686523,-58.481536865234375, -23.544607162475586
516,820542360,0.40258852,0.07653235,-0.009215597,0.91212964,-2.986494302749634,0.21663719415664673,13.84470272064209,-40.99427795410156,-51.38995361328125, -28.086305618286133
517,820559027,0.40673664,0.083693534,-0.015754746,0.90956724,-2.2058844566345215,0.923762857913971,15.732145309448242,-24.492860794067383,-64.35498046875, -30.36408805847168
518,820575694,0.40794873,0.08912052,-0.023963839,0.9083288,-3.846970319747925,0.6118342280387878,20.461153030395508,-37.952232360839844,-57.769283294677734, -7.153145790100098
519,820592361,0.40578958,0.08512289,-0.03496551,0.90932196,-12.041960716247559,0.5336320400238037,13.351669311523438,-79.39279174804688,-5.9850006103515625, 23.41813850402832
520,820609028,0.41045123,0.11314167,-0.06502016,0.9024973,3.685421943664551,36.41152572631836,-95.09192657470703,-115.09040832519531,-262.43994140625, -37.60794448852539
521,820625695,0.41159403,0.1310026,-0.08646825,0.8977482,53.3673210144043,-6.085616588592529,61.2449951171875,-86.96908569335938,-174.90338134765625, -11.9951753616333
522,820642362,0.40857086,0.16407003,-0.08091993,0.8942054,66.00464630126953,-11.78652286529541,5.594762802124023,127.24850463867188,-193.39443969726562, -16.197023391723633
523,820659029,0.39851528,0.19678877,-0.09590968,0.8906521,8.930363655090332,-13.835911750793457,26.700233459472656,8.018884658813477,-252.34312438964844, 50.38493728637695
524,820675696,0.39360687,0.21428795,-0.11007521,0.88715154,-6.889740943908691,-3.3067500591278076,14.104110717773438,-35.450218200683594,-153.38316345214844, 27.886369705200195
525,820692363,0.39576986,0.22046584,-0.11589997,0.8839279,-12.070343017578125,5.166309356689453,12.972298622131348,-25.394784927368164,-56.101776123046875, -18.23076820373535
526,820709030,0.3980078,0.2178666,-0.11837641,0.8832389,-9.59860897064209,-3.5106709003448486,3.006431818008423,-27.065719604492188,10.098833084106445, -9.856593132019043
527,820725697,0.39857253,0.21006154,-0.116276145,0.885152,-13.932365417480469,-4.801308631896973,1.5268296003341675,-8.869229316711426,56.669151306152344, 4.787458896636963
528,820742364,0.3972336,0.2004935,-0.11332072,0.88835037,-20.782676696777344,0.12531164288520813,5.268956184387207,-4.684048652648926,69.94732666015625, 20.04503631591797
529,820759031,0.39860526,0.18502983,-0.10837317,0.8917024,-21.00038719177246,2.468390703201294,5.935976505279541,-12.239925384521484,113.53557586669922, 5.744699954986572
530,820775698,0.40285116,0.15950942,-0.10156834,0.8955176,-7.82174825668335,-2.2651405334472656,10.901363372802734,-31.750062942504883,182.84255981445312, -5.487034320831299
531,820792365,0.4066085,0.1241138,-0.09690289,0.89993066,8.402128219604492,-8.109130859375,9.79080867767334,-71.31817626953125,237.97608947753906, 8.403507232666016
532,820809032,0.40698564,0.08261054,-0.08691652,0.90552956,12.62600326538086,-5.0013556480407715,8.769465446472168,-51.73771286010742,289.4882507324219, 32.15318298339844
533,820825699,0.40170965,0.033053916,-0.06468134,0.9128818,25.188884735107422,-0.4513028562068939,14.19189453125,6.296492576599121,371.7054138183594, 70.14339447021484
534,820842366,0.38841826,-0.02790115,-0.03016761,0.92056656,35.791770935058594,-11.52239990234375,17.536291122436523,53.883636474609375,474.07830810546875, 123.750244140625
535,820859033,0.3674127,-0.0782815,0.032841843,0.9261757,2.4534945487976074,-8.376256942749023,9.68221664428711,260.906494140625,482.48138427734375, 170.4402618408203
536,820875700,0.3669316,-0.07770974,0.088994324,0.9227148,22.78826904296875,24.68785858154297,-29.462854385375977,358.98175048828125,140.4932403564453, 24.53258514404297
537,820892367,0.36293808,-0.081588864,0.06566972,0.9259085,-4.774575710296631,19.314849853515625,11.303764343261719,-162.95082092285156,-33.1041374206543, 19.143630981445312
538,820909034,0.36107922,-0.06814422,0.036239345,0.92933583,-1.688628911972046,0.005500510334968567,1.667869210243225,-157.54344177246094,-159.8221435546875, 10.010730743408203
539,820925701,0.36840838,-0.0514027,0.011664737,0.92816865,0.007644325494766235,2.7432265281677246,15.283049583435059,-112.89823913574219,-169.00193786621094, -56.60454559326172
540,820942368,0.37139022,-0.04170415,-0.012883837,0.9274504,-0.3593684434890747,-0.9692866802215576,15.752767562866211,-132.084716796875,-123.77995300292969, -29.010637283325195
541,820959035,0.37306726,-0.031478237,-0.020709714,0.9270389,-1.2218282222747803,-8.188081741333008,13.017154693603516,-24.43288230895996,-84.62374877929688, -15.14449691772461
542,820975702,0.374584,-0.01820217,-0.01429359,0.92690414,-1.960849642753601,-1.4006742238998413,14.951883316040039,74.23063659667969,-67.62100219726562, -10.758628845214844
543,820992369,0.37623635,-0.0074826446,-0.011378997,0.9264237,-5.438852310180664,0.26224541664123535,17.03843116760254,45.31929397583008,-60.29749298095703, -12.702098846435547
544,821009036,0.37801012,0.00029563284,-0.0136274835,0.9257013,-8.749622344970703,-1.7422094345092773,17.827545166015625,4.805836200714111,-54.930816650390625, -14.138422966003418
545,821025703,0.37868938,0.0060563637,-0.01596271,0.9253664,-9.847196578979492,-4.246358871459961,17.463470458984375,-0.9403122663497925,-42.4771842956543, -5.976953983306885
546,821042370,0.37928128,0.011777369,-0.01484191,0.92508745,-8.336346626281738,-4.383990287780762,13.978141784667969,20.983924865722656,-33.30329895019531, -5.416257381439209
547,821059037,0.38164538,0.019977428,-0.008505981,0.92405385,-6.4155097007751465,0.15852181613445282,10.760421752929688,60.43022155761719,-35.414249420166016, -19.332571029663086
548,821075704,0.3845445,0.03313843,-0.0021571112,0.92250896,-4.681901454925537,2.669891834259033,12.936279296875,73.42646026611328,-66.98947143554688, -24.365657806396484
549,821092371,0.386846,0.043440726,-0.0001776845,0.9211205,-4.108129024505615,-0.17022228240966797,17.44742202758789,38.2735595703125,-60.41860580444336, -19.121301651000977
550,821109038,0.38861474,0.049756356,-0.0020412635,0.9200537,-4.592423915863037,-1.6783733367919922,18.060325622558594,3.4972686767578125,-45.32709884643555, -13.737543106079102
551,821125705,0.39055374,0.055134337,-0.0010632229,0.91892713,-4.379849910736084,-0.5635642409324646,16.365196228027344,18.926424026489258,-31.8575496673584, -15.93173885345459
552,821142372,0.3928526,0.058424875,0.0014253873,0.9177427,-4.127000331878662,1.8560888767242432,15.810571670532227,22.73790740966797,-14.66857624053955, -18.91672706604004
553,821159039,0.395692,0.05915374,0.001519254,0.91647506,-4.244137287139893,2.7754628658294678,16.595699310302734,0.48506057262420654,-5.046722888946533, -21.61322593688965
554,821175706,0.39944628,0.059219636,-0.0038645864,0.9148339,-3.5391924381256104,2.444889783859253,13.969802856445312,-36.21488571166992,-15.96883773803711, -26.172657012939453
555,821192373,0.40329507,0.060997356,-0.0127647305,0.9129457,-1.6938395500183105,1.1070029735565186,12.331068992614746,-53.686988830566406,-36.52268600463867, -26.06097412109375
556,821209040,0.4057972,0.06615173,-0.021381773,0.91131526,0.42555004358291626,0.1678486168384552,15.671549797058105,-41.9626350402832,-56.961238861083984, -17.31215476989746
557,821225707,0.4055821,0.06753262,-0.03193077,0.9110012,-3.86767315864563,-0.08466683328151703,21.405160903930664,-63.164737701416016,-38.511722564697266, 4.8157877922058105
558,821242374,0.40974247,0.07683389,-0.05212737,0.9074637,-10.526227951049805,24.124296188354492,-76.33663940429688,-104.25053405761719,-115.60604858398438, -28.849172592163086
559,821259041,0.4125789,0.11384273,-0.079984725,0.9002338,46.20045471191406,7.503510475158691,20.869579315185547,-74.79145050048828,-312.6551208496094, -36.866336822509766
560,821275708,0.40793836,0.13421142,-0.09067591,0.8985274,73.97723388671875,-15.502861976623535,39.09369659423828,-6.879156112670898,-160.33203125, 20.856149673461914
561,821292375,0.4013519,0.17525004,-0.09926719,0.8935044,12.832192420959473,-13.407224655151367,11.212008476257324,63.92222595214844,-285.9971923828125, 8.76694393157959
562,821309042,0.3970108,0.20232822,-0.11357323,0.8880016,-14.290868759155273,-1.0575244426727295,12.406987190246582,-12.6661958694458,-214.9443817138672, 10.036116600036621
563,821325709,0.3992646,0.21007226,-0.118947126,0.8844824,-16.89051055908203,3.826057195663452,12.09547233581543,-18.525917053222656,-64.72364807128906, -22.151639938354492
564,821342376,0.40151808,0.21218064,-0.12100657,0.8826779,-6.607941150665283,-7.460027694702148,6.219315052032471,-12.466607093811035,-19.03653907775879, -17.61676025390625
565,821359043,0.4023757,0.2107819,-0.12539099,0.88201034,-5.623488903045654,-0.8132676482200623,1.6156822443008423,-33.22997283935547,-3.746141195297241, 0.27597153186798096
566,821375710,0.39960343,0.20327455,-0.12825866,0.88461643,-13.03750228881836,2.729398250579834,5.103243350982666,-32.84454345703125,39.056400299072266, 34.40724182128906
567,821392377,0.39812806,0.1879625,-0.1276947,0.88873976,-14.010591506958008,1.0783894062042236,11.169038772583008,-33.91259002685547,99.11222076416016, 32.773475646972656
568,821409044,0.3978427,0.16298772,-0.11944094,0.89492476,-5.57404088973999,-2.750523328781128,10.55761432647705,-13.116987228393555,182.8056640625, 29.68291664123535
569,821425711,0.40057266,0.12765934,-0.1114778,0.90045416,3.1088345050811768,-8.450935363769531,8.05129337310791,-47.14064025878906,247.427734375, 18.149147033691406
570,821442378,0.40162975,0.084664404,-0.09819133,0.90657824,10.431419372558594,-10.990772247314453,4.824665069580078,-33.32387924194336,308.8465576171875, 31.336118698120117
571,821459045,0.39721897,0.031062711,-0.06913501,0.914589,24.95947265625,-3.0404298305511475,13.127069473266602,40.24576950073242,416.1305236816406, 68.64203643798828
572,821475712,0.38381132,-0.03687875,-0.030309554,0.92217696,41.735774993896484,-4.972578525543213,21.628732681274414,64.28678894042969,529.0711669921875, 128.91693115234375
573,821492379,0.3610694,-0.08940763,0.026868163,0.9278543,2.455233097076416,-1.97334623336792,3.5789647102355957,218.74853515625,478.571533203125, 184.60260009765625
574,821509046,0.3634171,-0.08052752,0.07716566,0.9249264,8.2686767578125,25.572002410888672,-29.57353401184082,344.17333984375,69.92987823486328, 10.474371910095215
575,821525713,0.3624272,-0.07050182,0.063684426,0.92715716,-1.7308157682418823,13.066305160522461,7.713100433349609,-63.54906463623047,-97.79949188232422, 10.331605911254883
576,821542380,0.36399984,-0.053574353,0.026837874,0.9294696,1.6237576007843018,6.69911527633667,11.180606842041016,-194.14967346191406,-201.27880859375, -14.360694885253906
577,821559047,0.37062135,-0.039323572,-0.008697061,0.9279105,2.2371790409088135,-2.370264768600464,15.76285457611084,-189.8593292236328,-180.39804077148438, -56.814170837402344
578,821575714,0.37532872,-0.028098669,-0.03029375,0.9259704,1.4030470848083496,-6.28080415725708,16.067760467529297,-109.12889862060547,-125.52973937988281, -41.733009338378906
579,821592381,0.3773442,-0.011144968,-0.026075762,0.9256389,-2.3519504070281982,-11.368278503417969,14.006851196289062,69.86598205566406,-96.23400115966797, -16.636356353759766
580,821609048,0.3788771,0.0066575366,-0.011122894,0.92535627,-4.108587741851807,-1.9539034366607666,17.037139892578125,140.4375762939453,-73.8914566040039, -12.771822929382324
581,821625715,0.37999004,0.016053494,-0.005588613,0.9248345,-6.414306163787842,0.20163606107234955,18.40152931213379,58.615596771240234,-45.00572967529297, -9.655177116394043
582,821642382,0.3804025,0.018854624,-0.009015455,0.924585,-8.526047706604004,-0.35390546917915344,16.973962783813477,-15.508668899536133,-26.52235984802246, -3.248917818069458
583,821659049,0.38068032,0.020096518,-0.01521931,0.924363,-8.103217124938965,-0.8809723258018494,14.191544532775879,-37.21751022338867,-23.937091827392578, -1.8636188507080078
584,821675716,0.38281766,0.02444279,-0.020180862,0.9232801,-7.180488109588623,-0.37221407890319824,10.274923324584961,-21.53829574584961,-40.397071838378906, -16.431541442871094
585,821692383,0.38652906,0.034369633,-0.021278907,0.921391,-6.13700532913208,0.0016911886632442474,10.48013687133789,17.300554275512695,-65.62461853027344, -29.970436096191406
586,821709050,0.3896974,0.04721009,-0.02214496,0.91946554,-4.243492126464844,-2.580305576324463,12.822514533996582,26.636198043823242,-83.60165405273438, -27.108531951904297
587,821725717,0.39092383,0.05895398,-0.021637589,0.9182783,-3.7276484966278076,-3.6573262214660645,18.27081298828125,33.140464782714844,-73.07951354980469, -13.133513450622559
588,821742384,0.39124253,0.067281164,-0.01995943,0.917608,-5.694873332977295,-3.500429391860962,18.721664428710938,31.818681716918945,-48.31828308105469, -5.98043155670166
589,821759051,0.39198765,0.07042281,-0.015683014,0.9171372,-7.6762566566467285,-1.3910706043243408,16.56873321533203,34.11701583862305,-8.511035919189453, -8.625844955444336
590,821775718,0.39240134,0.06715796,-0.0097134765,0.91728777,-7.585883617401123,0.3389424681663513,16.827770233154297,27.766952514648438,36.652793884277344, -4.988968372344971
591,821792385,0.39323464,0.060713325,-0.002274374,0.91742855,-6.423569679260254,3.178110361099243,16.99747657775879,28.26353645324707,60.63547134399414, -8.12437629699707
592,821809052,0.39631352,0.052631453,-0.0017767167,0.9166038,-4.251514434814453,3.9517080783843994,14.701273918151855,-20.916019439697266,51.77717208862305, -21.973041534423828
593,821825719,0.40017956,0.047174357,-0.008872339,0.915179,-0.6235999464988708,2.6145334243774414,9.33339786529541,-61.92978286743164,14.304398536682129, -25.85466957092285
594,821842386,0.40275985,0.04835207,-0.017315824,0.9138638,2.9538516998291016,2.379814863204956,8.138883590698242,-51.74551010131836,-31.20298194885254, -17.434795379638672
595,821859053,0.40445116,0.053647656,-0.027834615,0.91256046,-1.3574382066726685,2.0663809776306152,4.727941513061523,-53.09959030151367,-62.90934753417969, -11.62070083618164
596,821875720,0.41280532,0.10598562,-0.043138955,0.90360284,16.452245712280273,33.16158676147461,-89.92045593261719,43.78050994873047,-373.1244812011719, -81.98678588867188
597,821892387,0.41478398,0.13609923,-0.07406263,0.8966304,35.18019104003906,0.14542841911315918,65.00363159179688,-111.37079620361328,-279.57806396484375, -18.68048858642578
598,821909054,0.4139068,0.1630902,-0.08292246,0.89174366,48.5528678894043,-7.6309943199157715,6.01444149017334,19.519214630126953,-196.68563842773438, -14.160748481750488
599,821925721,0.4027666,0.19990714,-0.09280418,0.88837147,29.0111026763916,-15.025856971740723,26.511260986328125,53.65925598144531,-263.7262878417969, 48.63457489013672
600,821942388,0.3952607,0.22518697,-0.10725294,0.88405687,-4.5631022453308105,2.987921714782715,12.721968650817871,-11.692937850952148,-204.71995544433594, 37.426971435546875
601,821959055,0.3926227,0.2403214,-0.110213205,0.88087815,-7.912685871124268,3.4509825706481934,12.151756286621094,23.856050491333008,-106.53111267089844, 0.6236505508422852
602,821975722,0.39185712,0.24656998,-0.109894544,0.8795309,-8.5210599899292,-3.3996307849884033,4.039271354675293,18.002193450927734,-39.5085334777832, -4.4483795166015625
603,821992389,0.3901964,0.24820603,-0.11072767,0.8797044,-10.153297424316406,-9.50938892364502,3.3911333084106445,1.2978160381317139,-12.89161491394043, 10.486471176147461
604,822009056,0.38626358,0.24412565,-0.109665215,0.88270986,-13.951286315917969,-0.8791877031326294,7.932936668395996,3.5155017375946045,29.79024887084961, 32.911643981933594
605,822025723,0.38514337,0.23134214,-0.10783921,0.8868575,-22.25309944152832,5.88139533996582,9.564627647399902,-18.820268630981445,88.56179809570312, 24.150840759277344
606,822042390,0.3866789,0.21185243,-0.10325995,0.89159155,-13.228767395019531,-0.824591338634491,11.180156707763672,-23.618427276611328,139.4840850830078, 10.114538192749023
607,822059057,0.38862762,0.1870331,-0.097010486,0.8969817,4.577927112579346,-8.324479103088379,11.1043062210083,-27.684606552124023,177.74105834960938, 10.666726112365723
608,822075724,0.38996834,0.1543671,-0.09361628,0.90295714,14.791211128234863,-3.3915910720825195,7.804553985595703,-65.04769134521484,218.87229919433594, 24.862627029418945
609,822092391,0.39160937,0.11077619,-0.09194014,0.90880036,11.731087684631348,-3.179140567779541,8.99990463256836,-105.41238403320312,282.27105712890625, 31.49662208557129
610,822109058,0.39184123,0.0580807,-0.07268906,0.91531605,19.48420524597168,-7.249844074249268,10.928162574768066,-18.572546005249023,386.27532958984375, 34.48999786376953
611,822125725,0.38454258,-0.0026412713,-0.037613463,0.922337,36.984153747558594,-12.406633377075195,17.356813430786133,62.75293731689453,476.1651611328125, 80.99713134765625
612,822142392,0.36780095,-0.05474583,0.025315972,0.9279463,3.4054276943206787,-5.519432544708252,12.551854133605957,261.9591064453125,493.15802001953125, 135.54461669921875
613,822159059,0.36362112,-0.06417631,0.07718807,0.92612267,21.424156188964844,21.181459426879883,-30.690656661987305,305.2089538574219,193.09376525878906, 39.81209182739258
614,822175726,0.36799094,-0.06710524,0.0662137,0.9250383,-1.3487565517425537,31.44228172302246,14.066789627075195,-75.76974487304688,-10.207223892211914, -36.193626403808594
615,822192393,0.36471835,-0.05991827,0.027550593,0.92877954,-2.0000245571136475,-3.6794841289520264,-3.765255928039551,-232.0511932373047,-143.48240661621094, 15.100081443786621
616,822209060,0.37152553,-0.042166136,0.0023862715,0.92746186,0.021357357501983643,-3.433709144592285,15.400562286376953,-114.24922943115234,-176.92942810058594, -53.82199478149414
617,822225727,0.3747194,-0.029140603,-0.016145263,0.92653966,-0.6617190837860107,-4.729862213134766,18.370012283325195,-85.03111267089844,-129.8732452392578, -28.128501892089844
618,822242394,0.37581676,-0.020945353,-0.024575163,0.9261313,-2.517016649246216,-8.826738357543945,15.646143913269043,-33.45448684692383,-73.39844512939453, -10.875828742980957
619,822259061,0.37534174,-0.012562821,-0.017446887,0.92663723,-3.2967615127563477,-6.89637565612793,16.257469177246094,66.07962036132812,-34.79918670654297, 3.7098612785339355
620,822275728,0.3742208,-0.0062430226,-0.0074935853,0.9272885,-5.030584812164307,-1.7833009958267212,17.5523738861084,78.75837707519531,-14.475359916687012, 8.688314437866211
621,822292395,0.37313765,-0.003112885,-0.0023365805,0.927768,-8.529705047607422,0.5357135534286499,17.053913116455078,39.97394561767578,-6.5008111000061035, 7.959059715270996
622,822309062,0.37197253,-0.0011722901,-0.00015800963,0.92824304,-9.921574592590332,0.13901212811470032,15.830390930175781,17.917499542236328,-6.609673976898193, 8.423113822937012
623,822325729,0.37185743,0.0018348966,0.0014360212,0.9282871,-9.210779190063477,-0.8005121946334839,13.07315444946289,16.922040939331055,-14.97172737121582, 0.6119717955589294
624,822342396,0.37312856,0.0076072095,0.0037651062,0.92774093,-7.493330955505371,0.05966060236096382,10.832297325134277,28.677030563354492,-30.823318481445312, -9.726678848266602
625,822359063,0.3750519,0.016611602,0.0068785287,0.92682946,-5.0069580078125,0.8499788641929626,11.783413887023926,41.947757720947266,-49.51524353027344, -14.781166076660156
626,822375730,0.37681484,0.025785465,0.0070293546,0.9259031,-3.7301323413848877,0.09529052674770355,12.91105842590332,23.521318435668945,-58.26313400268555, -13.450471878051758
627,822392397,0.3780699,0.032438964,0.0048820907,0.9251957,-4.151962757110596,-0.8023912906646729,14.06572437286377,2.4438371658325195,-48.135135650634766, -9.36362075805664
628,822409064,0.37925777,0.039886065,0.005009995,0.92441756,-5.877960681915283,-0.5407510995864868,12.675263404846191,19.005821228027344,-47.31306076049805, -9.59994888305664
629,822425731,0.38064265,0.045492105,0.008354881,0.9235649,-7.176108360290527,2.873894453048706,13.337423324584961,34.607421875,-27.294475555419922, -11.989840507507324
630,822442398,0.3826198,0.046725303,0.008036698,0.9226887,-7.022468090057373,3.7941954135894775,14.826282501220703,-0.2949049472808838,-9.20877456665039, -14.914368629455566
631,822459065,0.38570598,0.045676228,0.0029384934,0.9214858,-5.999176025390625,4.1872735023498535,14.256983757019043,-36.98003005981445,-7.524343967437744, -21.398977279663086
632,822475732,0.38989583,0.043660365,-0.0065356754,0.9198002,-3.1010615825653076,2.797489643096924,13.5973482131958,-67.6273193359375,-13.224030494689941, -28.318500518798828
633,822492399,0.39315176,0.044899102,-0.016508354,0.9182283,-0.1987222582101822,0.908474862575531,15.06358528137207,-61.78326416015625,-35.176719665527344, -22.109403610229492
634,822509066,0.39452082,0.046450038,-0.028702341,0.9172633,-1.3473767042160034,1.0531076192855835,17.879724502563477,-74.31492614746094,-43.18507385253906, -7.9119954109191895
635,822525733,0.40083256,0.047815576,-0.049055647,0.9135867,-11.229741096496582,11.14374828338623,-47.44483947753906,-128.40103149414062,-64.0579833984375, -43.80854034423828
636,822542400,0.40092877,0.099226065,-0.07889667,0.9072959,49.40476989746094,18.57209587097168,-16.403148651123047,-49.0001106262207,-407.8140869140625, -25.744047164916992
637,822559067,0.40295494,0.11219635,-0.09303886,0.9035391,45.09116744995117,-7.198451042175293,50.466064453125,-57.06611251831055,-121.382080078125, -20.580307006835938
638,822575734,0.39700136,0.15276484,-0.10620105,0.8987626,46.9471435546875,-21.40325355529785,11.40773868560791,31.0407657623291,-295.8367919921875, 7.7848944664001465
639,822592401,0.38999683,0.1839077,-0.11514631,0.8948866,-14.803753852844238,2.1854255199432373,14.196370124816895,33.27779006958008,-225.56381225585938, 19.17438316345215
640,822609068,0.38896266,0.1993329,-0.11787336,0.8916728,-14.0065279006958,0.24990203976631165,13.793044090270996,22.345701217651367,-106.72885131835938, -11.21178150177002
641,822625735,0.38943237,0.20241752,-0.120397985,0.89043474,-6.795175075531006,-3.7108073234558105,3.7120814323425293,-9.881844520568848,-26.739953994750977, -5.431534290313721
642,822642402,0.38880557,0.2021584,-0.11915719,0.8909343,-10.7195405960083,-1.656916618347168,3.442516565322876,7.202849388122559,5.258909702301025, 3.4469127655029297
643,822659069,0.38551578,0.19635062,-0.121169366,0.893388,-15.622468948364258,0.16933280229568481,2.9335474967956543,-22.246383666992188,30.99993324279785, 34.040225982666016
644,822675736,0.38247046,0.18370011,-0.12512705,0.89683557,-18.749225616455078,3.758176326751709,10.14256477355957,-51.84234619140625,69.30797576904297, 43.49152755737305
645,822692403,0.3816546,0.16065907,-0.12519528,0.90158457,-6.708502769470215,-1.5298144817352295,11.269482612609863,-56.913997650146484,147.0320587158203, 37.188377380371094
646,822709070,0.38174132,0.12866512,-0.117720425,0.907668,5.499143600463867,-8.337318420410156,8.859854698181152,-33.497066497802734,224.5345001220703, 34.45556640625
647,822725737,0.38346645,0.08761971,-0.10965056,0.912827,9.493885040283203,-10.340319633483887,4.965827465057373,-55.70219421386719,283.15362548828125, 28.588335037231445
648,822742404,0.38327578,0.03735396,-0.085603386,0.9188998,20.910741806030273,-6.5802083015441895,11.607961654663086,22.195770263671875,382.421142578125, 40.35386276245117
649,822759071,0.3770816,-0.027663602,-0.053103883,0.9242425,40.715431213378906,-7.157598495483398,19.688697814941406,37.88972854614258,494.5399169921875, 82.94625854492188
650,822775738,0.35963058,-0.085059986,0.008779366,0.92916816,9.074353218078613,-11.64522647857666,11.217838287353516,242.37396240234375,518.7288208007812, 156.36630249023438
651,822792405,0.35710028,-0.08586776,0.064547546,0.9278684,14.579961776733398,22.49799156188965,-36.002811431884766,352.2330627441406,144.3369140625, 45.61322784423828
652,822809072,0.36118013,-0.07528272,0.064414375,0.92721754,-5.980033874511719,25.34058952331543,13.501842498779297,26.68685531616211,-68.88776397705078, -22.03670310974121
653,822825739,0.35939398,-0.05761207,0.033173405,0.93081486,-0.3616636097431183,1.8788127899169922,-0.6774125099182129,-159.05677795410156,-191.0029296875, 12.715493202209473
654,822842406,0.36676273,-0.03981989,0.0012935093,0.9294611,1.5845160484313965,-0.22254672646522522,18.02542495727539,-158.057861328125,-193.5500030517578, -58.23190689086914
655,822859073,0.3709386,-0.032613065,-0.030935964,0.92756885,0.47073596715927124,-2.51192045211792,18.82889175415039,-187.7552947998047,-126.57130432128906, -40.46281051635742
656,822875740,0.37170884,-0.02891433,-0.04805139,0.92665404,-0.9135240316390991,-11.630106925964355,15.39077091217041,-100.8283462524414,-66.56597900390625, -12.092076301574707
657,822892407,0.37193498,-0.020423746,-0.039051805,0.92721224,-3.6979103088378906,-8.168717384338379,16.258195877075195,78.25257110595703,-30.828125, -1.2465883493423462
658,822909074,0.37233314,-0.013310857,-0.026067404,0.92763764,-6.017693996429443,-1.8573256731033325,16.981603622436523,100.16718292236328,-11.812066078186035, -1.7591817378997803
659,822925741,0.37198988,-0.008957012,-0.02028328,0.92797196,-9.223380088806152,0.188634991645813,16.864538192749023,47.10084915161133,-12.808940887451172, 2.5651137828826904
660,822942408,0.3719193,-0.004574972,-0.020962384,0.9280171,-9.835638999938965,0.8486644625663757,15.205435752868652,5.9083757400512695,-29.521726608276367, -0.3207872807979584
661,822959075,0.37202656,0.0008329003,-0.025688842,0.9278662,-8.887563705444336,-0.22133949398994446,13.105162620544434,-17.323286056518555,-46.44887924194336, -2.2348809242248535
662,822975742,0.37263998,0.007778409,-0.028934848,0.9274922,-6.995113849639893,-2.3423662185668945,14.546375274658203,-3.9888458251953125,-52.442596435546875, -6.317332744598389
663,822992409,0.3746102,0.014345337,-0.030543398,0.92656827,-5.847039699554443,-2.870595693588257,13.384787559509277,5.313662052154541,-45.6392822265625, -16.393020629882812
664,823009076,0.37672853,0.019949261,-0.030260986,0.9256144,-4.201439380645752,-1.8223549127578735,13.790109634399414,14.875043869018555,-34.64621353149414, -17.40007972717285
665,823025743,0.37926367,0.024787627,-0.027625058,0.92454404,-3.5872933864593506,-0.5233574509620667,14.31623363494873,27.79800033569336,-23.637683868408203, -20.51883316040039
666,823042410,0.38219813,0.027992645,-0.024122259,0.9233413,-4.14263391494751,0.7879459857940674,15.038938522338867,28.95792579650879,-10.967862129211426, -23.240249633789062
667,823059077,0.38528788,0.030290192,-0.020969203,0.9220607,-5.0291547775268555,1.8875521421432495,14.781213760375977,24.304576873779297,-6.145754814147949, -24.21164894104004
668,823075744,0.3888382,0.032324936,-0.018965771,0.9205435,-5.139427661895752,1.8453505039215088,15.104177474975586,16.178712844848633,-7.5446457862854, -27.480302810668945
669,823092411,0.393662,0.034018096,-0.01963203,0.91841584,-4.283824920654297,1.5985264778137207,13.3518705368042,-2.0037946701049805,-12.527339935302734, -36.53398132324219
670,823109078,0.39925477,0.038904138,-0.023723977,0.9157071,-2.1281914710998535,1.9421672821044922,9.78917407989502,-15.259047508239746,-42.025360107421875, -42.59304428100586
671,823125745,0.4041262,0.047140434,-0.029284257,0.9130183,1.0618114471435547,0.2019565999507904,14.65903377532959,-15.120749473571777,-67.2801284790039, -38.15080261230469
672,823142412,0.40548047,0.052418996,-0.03752288,0.91182786,-3.4682929515838623,-2.9038758277893066,21.500473022460938,-38.7099494934082,-56.3748779296875, -10.446598052978516
673,823159079,0.40839592,0.053859714,-0.05050416,0.9098139,-16.118953704833984,9.246981620788574,-34.59452438354492,-79.89869689941406,-45.46356964111328, -19.83907127380371
674,823175746,0.41404617,0.09514756,-0.09093485,0.9006908,40.02755355834961,35.39493179321289,-30.339839935302734,-143.33399963378906,-373.78814697265625, -60.62034225463867
675,823192413,0.41590726,0.10495159,-0.1093187,0.8966917,42.07453918457031,-8.325916290283203,54.70972442626953,-90.89409637451172,-114.5826187133789, -17.196809768676758
676,823209080,0.40841523,0.1434321,-0.11765759,0.89374554,46.92184829711914,-27.89510154724121,5.869619846343994,60.63996505737305,-268.7635498046875, 14.711112976074219
677,823225747,0.40200862,0.17181094,-0.13039516,0.88986945,-3.0751476287841797,-3.3970046043395996,17.676403045654297,3.592899799346924,-218.75477600097656, 17.9187068939209
678,823242414,0.40213063,0.18854465,-0.13299496,0.88603294,-11.353610038757324,-5.449529647827148,14.53326416015625,25.771175384521484,-113.62580871582031, -23.466012954711914
679,823259081,0.40610495,0.19023702,-0.13835731,0.88303244,-7.407279968261719,-3.1624574661254883,4.844428062438965,-36.85066223144531,-25.14197540283203, -27.3104305267334
680,823275748,0.40887544,0.18819417,-0.14127968,0.881728,-8.134807586669922,-4.973321437835693,1.5955748558044434,-29.26422882080078,5.351467132568359, -14.917275428771973
681,823292415,0.40576887,0.1811715,-0.14344995,0.88427985,-15.60158634185791,-0.46510788798332214,3.638462781906128,-27.327957153320312,36.870948791503906, 35.396453857421875
682,823309082,0.4020631,0.16544062,-0.14558217,0.88869613,-20.089893341064453,5.288064479827881,8.349069595336914,-48.810665130615234,91.54316711425781, 52.770660400390625
