PacketCounter,SampleTimeFine,Quat_W,Quat_X,Quat_Y,Quat_Z,Acc_X,Acc_Y,Acc_Z,Gyr_X,Gyr_Y,Gyr_Z 
1,189699320,0.41679165,0.2325076,-0.15617944,0.86477333,0,0,0,0,0, 0
2,189715987,0.4164304,0.23315212,-0.15641794,0.8647308,5.272459983825684,-0.7588247060775757,8.275605201721191,-0.6001567244529724,0.08793479949235916, -0.26584699749946594
3,189732654,0.41663268,0.23343821,-0.15680592,0.86448586,5.273350238800049,-0.763698935508728,8.243119239807129,-0.9096350073814392,0.2030382603406906, -0.3235139846801758
4,189749321,0.41672134,0.23365209,-0.15712981,0.8643265,5.239694595336914,-0.7772037982940674,8.235315322875977,-0.8867628574371338,0.2598600387573242, -0.5559364557266235
5,189765988,0.4168314,0.23368435,-0.15742062,0.8642118,5.2331647872924805,-0.7828313112258911,8.222743034362793,-0.8692566752433777,0.23450347781181335, -0.4597351849079132
6,189782655,0.41680738,0.23366751,-0.15763736,0.8641885,5.225607395172119,-0.7580142617225647,8.222987174987793,-0.8750962615013123,0.21753504872322083, -0.5719571709632874
7,189799322,0.41689366,0.23363431,-0.1577746,0.8641308,5.205774307250977,-0.7401066422462463,8.2391357421875,-0.7717618942260742,0.16501621901988983, -0.8512764573097229
8,189815989,0.41694903,0.23359327,-0.15778029,0.86411417,5.224989891052246,-0.714745819568634,8.240951538085938,-0.4843105375766754,0.19625088572502136, -0.8817683458328247
9,189832656,0.41703245,0.23358463,-0.15769374,0.86409193,5.201608180999756,-0.7267609238624573,8.244179725646973,-0.12039250135421753,0.1826505810022354, -0.8453472256660461
10,189849323,0.41708285,0.23359847,-0.15753356,0.8640931,5.190282344818115,-0.7241098880767822,8.237616539001465,0.2943091094493866,0.10720834881067276, -0.7865275144577026
11,189865990,0.41712028,0.23360899,-0.15736489,0.864103,5.175540924072266,-0.708335816860199,8.215810775756836,0.37137770652770996,0.04253628849983215, -0.6136674284934998
12,189882657,0.417122,0.23362878,-0.1571967,0.8641274,5.182786464691162,-0.7158815860748291,8.241376876831055,0.27303776144981384,-0.052441999316215515, -0.5606491565704346
13,189899324,0.4171417,0.23360866,-0.15710455,0.86414015,5.203975200653076,-0.7165145874023438,8.25027084350586,-0.21806654334068298,-0.0844578817486763, -0.36450716853141785
14,189915991,0.41711375,0.23357472,-0.15708736,0.86416584,5.207451343536377,-0.7106496095657349,8.26623821258545,-0.778267502784729,-0.18835578858852386, -0.20819281041622162
15,189932658,0.4170987,0.23353165,-0.15708278,0.8641856,5.2312331199646,-0.7085861563682556,8.247760772705078,-0.7943010926246643,-0.16201312839984894, -0.11000654101371765
16,189949325,0.41708246,0.23347864,-0.15709366,0.8642057,5.259027481079102,-0.6816251277923584,8.262630462646484,-0.7935197949409485,-0.07254797220230103, 0.10690099745988846
17,189965992,0.41702136,0.2334417,-0.15709695,0.8642446,5.240422248840332,-0.6895310878753662,8.246551513671875,-0.8324511647224426,-0.03772750496864319, 0.13442184031009674
18,189982659,0.41701123,0.23341227,-0.1570941,0.86425793,5.246860980987549,-0.6880408525466919,8.263298988342285,-0.7227392196655273,-0.012447773478925228, 0.02127775177359581
19,189999326,0.4169604,0.23338619,-0.15706588,0.86429465,5.253133773803711,-0.7083036303520203,8.245048522949219,-0.6304693818092346,0.09946051239967346, 0.04963100701570511
20,190015993,0.41701105,0.23331217,-0.15706089,0.86429113,5.262735843658447,-0.7292636632919312,8.232429504394531,-0.7150681018829346,0.3649745583534241, -0.011308005079627037
21,190032660,0.41700533,0.23323919,-0.15706573,0.8643127,5.246580123901367,-0.7506461143493652,8.235127449035645,-0.8109108805656433,0.40157511830329895, 0.06305205821990967
22,190049327,0.41702482,0.23312885,-0.15713185,0.86432105,5.237970352172852,-0.7480698823928833,8.223219871520996,-1.2613871097564697,0.48408645391464233, 0.006896219216287136
23,190065994,0.41705617,0.2329866,-0.15725346,0.86432225,5.209375858306885,-0.7416825890541077,8.217439651489258,-1.6535942554473877,0.5396915674209595, 0.03127950802445412
24,190082661,0.41704738,0.23287307,-0.15735662,0.86433834,5.154298782348633,-0.7226953506469727,8.22722339630127,-1.5143382549285889,0.42735427618026733, -0.021924471482634544
25,190099328,0.41703856,0.23277159,-0.15744364,0.86435413,5.169797420501709,-0.6985401511192322,8.254703521728516,-1.4325183629989624,0.3667162358760834, -0.15946467220783234
26,190115995,0.41706708,0.23266976,-0.15753429,0.8643511,5.2109503746032715,-0.6903252601623535,8.266986846923828,-1.3423616886138916,0.3047463297843933, -0.10175925493240356
27,190132662,0.41706827,0.23257245,-0.1576071,0.8643634,5.211619853973389,-0.7098714709281921,8.256614685058594,-1.2632824182510376,0.3314347565174103, -0.053658612072467804
28,190149329,0.41709316,0.23247616,-0.15770066,0.8643602,5.225830078125,-0.6981351971626282,8.275365829467773,-1.272925615310669,0.2433142364025116, 0.05598295107483864
29,190165996,0.41703922,0.2323577,-0.15781787,0.8643967,5.229946136474609,-0.6960703134536743,8.307050704956055,-1.6230382919311523,0.33362460136413574, 0.220672607421875
30,190182663,0.4170401,0.23226121,-0.15791295,0.8644049,5.2266621589660645,-0.6963708996772766,8.266629219055176,-1.3782577514648438,0.2504345774650574, 0.03852790221571922
31,190199330,0.41707233,0.23220561,-0.15797916,0.8643922,5.183577060699463,-0.7118184566497803,8.268755912780762,-1.1475130319595337,0.09534967690706253, -0.25971275568008423
32,190215997,0.41713482,0.23218319,-0.15801275,0.86436194,5.180424213409424,-0.7397831082344055,8.246720314025879,-0.843592643737793,-0.027905037626624107, -0.451948881149292
33,190232664,0.4171466,0.2321686,-0.15804094,0.8643551,5.2161407470703125,-0.7440046668052673,8.246691703796387,-0.7926746010780334,-0.06403174251317978, -0.30728834867477417
34,190249331,0.41716644,0.23214605,-0.15808728,0.864343,5.219372272491455,-0.7462457418441772,8.225908279418945,-0.8411210179328918,-0.07179239392280579, -0.20254522562026978
35,190265998,0.41716024,0.23212968,-0.1581168,0.864345,5.207025527954102,-0.7221328616142273,8.248626708984375,-0.7166944742202759,-0.042363401502370834, -0.14645341038703918
36,190282665,0.41715068,0.23214005,-0.15813778,0.864343,5.207823276519775,-0.7095300555229187,8.255809783935547,-0.6149352192878723,-0.1792120486497879, -0.23383110761642456
37,190299332,0.41709608,0.23216091,-0.15815304,0.8643609,5.218283653259277,-0.708103358745575,8.273759841918945,-0.6905695796012878,-0.20574678480625153, -0.2954680621623993
38,190315999,0.41704908,0.23216319,-0.15819788,0.8643748,5.239152431488037,-0.713566243648529,8.264811515808105,-0.9303812980651855,-0.17826437950134277, -0.2699194550514221
39,190332666,0.41698015,0.23215233,-0.1582785,0.8643963,5.226261138916016,-0.7131248712539673,8.234664916992188,-1.1771597862243652,-0.19958695769309998, -0.11105667054653168
40,190349333,0.4169594,0.23212615,-0.1583512,0.86439997,5.23509407043457,-0.7089693546295166,8.215519905090332,-0.9972304701805115,-0.09348636120557785, -0.01869727298617363
41,190366000,0.41693285,0.23208025,-0.15842801,0.86441106,5.21683931350708,-0.6955922245979309,8.239270210266113,-1.0239317417144775,0.02487633377313614, 0.1277497559785843
42,190382667,0.41691777,0.23202072,-0.15849341,0.8644223,5.216423988342285,-0.6890650391578674,8.242846488952637,-0.9580686092376709,0.14619089663028717, 0.15229950845241547
43,190399334,0.41691676,0.23196119,-0.1585578,0.864427,5.236841678619385,-0.7011018991470337,8.299529075622559,-0.940126895904541,0.14963579177856445, 0.1281595379114151
44,190416001,0.41691917,0.23191325,-0.15864159,0.86442333,5.215915203094482,-0.7473334670066833,8.279197692871094,-1.0473672151565552,0.015745405107736588, 0.08971487730741501
45,190432668,0.41685545,0.23190081,-0.15873645,0.86443985,5.216574668884277,-0.761231541633606,8.26242446899414,-1.134220004081726,-0.22984835505485535, 0.10568439960479736
46,190449335,0.41673538,0.23190655,-0.15882477,0.86448,5.223254680633545,-0.7335206270217896,8.243704795837402,-1.1756742000579834,-0.3038434684276581, 0.06885334104299545
47,190466002,0.41668892,0.23188914,-0.15893783,0.8644863,5.250651836395264,-0.7203781008720398,8.241633415222168,-1.2652288675308228,-0.24881456792354584, 0.028705431148409843
48,190482669,0.41662258,0.23187292,-0.15901478,0.86450845,5.233300685882568,-0.7064717411994934,8.237043380737305,-1.1380490064620972,-0.11856118589639664, -0.08819732815027237
49,190499336,0.41661373,0.23185128,-0.15907098,0.8645082,5.204265594482422,-0.71588534116745,8.23704719543457,-0.9550079703330994,-0.02426803484559059, -0.21728534996509552
50,190516003,0.41656095,0.23183,-0.15908183,0.8645373,5.182855606079102,-0.7326706647872925,8.236099243164062,-0.8694742918014526,0.1453072428703308, -0.38704627752304077
51,190532670,0.41658154,0.23180744,-0.1591029,0.86452955,5.170098781585693,-0.7575541138648987,8.245176315307617,-0.8563606142997742,0.1053130105137825, -0.5483551025390625
52,190549337,0.41643953,0.23184456,-0.15908341,0.86459166,5.178435325622559,-0.7518343925476074,8.225241661071777,-0.9849364757537842,-0.07043492794036865, -0.9112614393234253
53,190566004,0.41648406,0.23185639,-0.15910244,0.8645636,5.208715915679932,-0.749756395816803,8.256452560424805,-0.8613806962966919,-0.09876256436109543, -0.9022585153579712
54,190582671,0.41650164,0.23183212,-0.15918201,0.86454695,5.2576775550842285,-0.7036797404289246,8.246654510498047,-1.304249882698059,-0.0641598105430603, -0.6331714987754822
55,190599338,0.41643313,0.23180473,-0.1592722,0.8645707,5.273767948150635,-0.7083654999732971,8.250541687011719,-1.4740619659423828,-0.05543868616223335, -0.4182681739330292
56,190616005,0.4164857,0.2317389,-0.15937583,0.86454386,5.271154403686523,-0.676722526550293,8.261634826660156,-1.3758245706558228,0.11206195503473282, -0.3702187240123749
57,190632672,0.41641665,0.23172025,-0.15939961,0.8645778,5.24653959274292,-0.6815188527107239,8.258464813232422,-1.0109972953796387,0.10702906548976898, -0.428308367729187
58,190649339,0.4162251,0.23172271,-0.15938838,0.86467147,5.253292560577393,-0.6917166709899902,8.248272895812988,-0.9842575788497925,0.12281928956508636, -0.38846778869628906
59,190666006,0.41615167,0.2316959,-0.15940927,0.8647101,5.242074489593506,-0.7135385274887085,8.245438575744629,-0.9418045282363892,0.16317208111286163, -0.2640668749809265
60,190682673,0.41600475,0.23164564,-0.15944345,0.864788,5.252542972564697,-0.7074812650680542,8.210091590881348,-1.1663384437561035,0.2863564193248749, -0.038162924349308014
61,190699340,0.4159267,0.23159733,-0.1594956,0.8648289,5.253030776977539,-0.7108643054962158,8.254167556762695,-1.0918182134628296,0.19545690715312958, -0.006761753000319004
62,190716007,0.41584438,0.23153391,-0.15954795,0.8648757,5.242526054382324,-0.7016419172286987,8.247562408447266,-1.1486269235610962,0.29662707448005676, 0.01685955747961998
63,190732674,0.415765,0.23147285,-0.1596108,0.8649186,5.201201915740967,-0.705414891242981,8.242839813232422,-1.2141956090927124,0.25185608863830566, 0.006883413530886173
64,190749341,0.41563988,0.23142597,-0.15965597,0.8649829,5.208775997161865,-0.737758994102478,8.26030158996582,-1.161292552947998,0.2291504144668579, 0.005718034692108631
65,190766008,0.41558027,0.23136972,-0.15970775,0.86501706,5.166479587554932,-0.7368625402450562,8.254798889160156,-1.104291558265686,0.24663108587265015, -0.037625059485435486
66,190782675,0.41551048,0.23136689,-0.15973155,0.86504704,5.1418914794921875,-0.7368992567062378,8.256954193115234,-0.8281865119934082,-0.006262304726988077, -0.18240082263946533
67,190799342,0.41542682,0.23138258,-0.15973729,0.8650819,5.143168926239014,-0.7200334072113037,8.234638214111328,-0.7194990515708923,-0.06848835200071335, -0.25971275568008423
68,190816009,0.41534448,0.23140638,-0.15974624,0.86511344,5.166643142700195,-0.7224961519241333,8.241957664489746,-0.7757574319839478,-0.12833242118358612, -0.36367470026016235
69,190832676,0.41531417,0.23141629,-0.15978862,0.8651175,5.213122844696045,-0.7256237864494324,8.24514389038086,-0.9660853147506714,-0.15776140987873077, -0.4252476394176483
70,190849343,0.41530454,0.23141913,-0.15985246,0.86510956,5.232596397399902,-0.7220425605773926,8.266779899597168,-1.02321457862854,-0.19565540552139282, -0.32133689522743225
71,190866010,0.41526663,0.23140806,-0.15992178,0.86511797,5.282632350921631,-0.7244489789009094,8.271215438842773,-1.1672859191894531,-0.11146647483110428, -0.29097306728363037
72,190882677,0.41524893,0.2313969,-0.15997359,0.86512,5.256589412689209,-0.6996440887451172,8.244769096374512,-1.0662566423416138,-0.049688637256622314, -0.39367997646331787
73,190899344,0.4152459,0.23140424,-0.15998049,0.8651181,5.263416290283203,-0.7189329266548157,8.289078712463379,-0.784145712852478,-0.01623845100402832, -0.591192364692688
74,190916011,0.41525683,0.2314053,-0.15998068,0.8651124,5.240445137023926,-0.7286189794540405,8.238518714904785,-0.7311528921127319,0.04147335886955261, -0.5920759439468384
75,190932678,0.4152627,0.23142564,-0.15998125,0.8651041,5.205916881561279,-0.723048746585846,8.246713638305664,-0.67554771900177,-0.08148679882287979, -0.5890408754348755
76,190949345,0.41530877,0.23143129,-0.16000567,0.86507595,5.165229320526123,-0.6889835596084595,8.202667236328125,-0.7499781847000122,-0.082511305809021, -0.519835352897644
77,190966012,0.41529167,0.23142332,-0.16005051,0.86507803,5.1813483238220215,-0.7170326113700867,8.229571342468262,-1.0438584089279175,-0.04109557345509529, -0.4224942624568939
78,190982679,0.4152753,0.23142627,-0.16008659,0.86507845,5.20489501953125,-0.6742099523544312,8.258711814880371,-0.9085209369659424,-0.09533046931028366, -0.3654419779777527
79,190999346,0.41527206,0.23141785,-0.16013601,0.865073,5.242960453033447,-0.7067205905914307,8.230171203613281,-1.0051831007003784,-0.0698714479804039, -0.3454000651836395
80,191016013,0.41519347,0.23140359,-0.16015036,0.86511195,5.2781782150268555,-0.7132386565208435,8.249505043029785,-0.9876640439033508,0.11043554544448853, -0.3525203764438629
81,191032680,0.41517708,0.23136738,-0.160157,0.86512834,5.315635681152344,-0.7214853763580322,8.264547348022461,-0.8899517059326172,0.26142242550849915, -0.3937184512615204
82,191049347,0.41510993,0.23131017,-0.16017488,0.8651725,5.27132511138916,-0.6991931200027466,8.249297142028809,-1.1501383781433105,0.38873031735420227, -0.3494724631309509
83,191066014,0.41506693,0.23126715,-0.16017362,0.8652049,5.242900371551514,-0.7010867595672607,8.260490417480469,-0.9637290239334106,0.3560997545719147, -0.4338662922382355
84,191082681,0.41500288,0.2312343,-0.16015506,0.86524785,5.204267978668213,-0.7336966395378113,8.268223762512207,-0.9981139898300171,0.37352919578552246, -0.639805257320404
85,191099348,0.41496164,0.23121506,-0.1601735,0.86526936,5.1914448738098145,-0.7213237881660461,8.253138542175293,-1.0899100303649902,0.15085239708423615, -0.5546814203262329
86,191116015,0.4149354,0.23120303,-0.16022529,0.86527556,5.1649489402771,-0.7123957276344299,8.23652172088623,-1.1291487216949463,-0.026419498026371002, -0.3547615110874176
87,191132682,0.41490042,0.23121455,-0.16029167,0.86527693,5.158602714538574,-0.6399435997009277,8.239904403686523,-1.097017526626587,-0.23689185082912445, -0.24151493608951569
88,191149349,0.41481456,0.23127903,-0.16031717,0.8652962,5.167926788330078,-0.6314968466758728,8.250329971313477,-0.7719539403915405,-0.4413323998451233, -0.26114708185195923
89,191166016,0.41476196,0.23138025,-0.16033038,0.8652919,5.175644397735596,-0.65770024061203,8.266579627990723,-0.5542203783988953,-0.6508955359458923, -0.37846606969833374
90,191182683,0.41471586,0.23148431,-0.16032591,0.865287,5.220744609832764,-0.6877880096435547,8.262080192565918,-0.4521794021129608,-0.6167281270027161, -0.4355567395687103
91,191199350,0.41466624,0.2315878,-0.16032815,0.8652827,5.269331932067871,-0.729124128818512,8.259029388427734,-0.5011252760887146,-0.6350027918815613, -0.4094190001487732
92,191216017,0.4145818,0.2317131,-0.16032934,0.8652893,5.346504211425781,-0.7094922065734863,8.246421813964844,-0.4433174431324005,-0.7667161822319031, -0.318442702293396
93,191232684,0.41451287,0.2317946,-0.16039637,0.8652881,5.348738670349121,-0.7252973318099976,8.298711776733398,-0.9636906981468201,-0.686881422996521, -0.22283048927783966
94,191249351,0.414504,0.23189785,-0.16049653,0.8652461,5.247751235961914,-0.6084176301956177,8.295005798339844,-1.2726566791534424,-0.8982374668121338, -0.712750256061554
95,191266018,0.41453248,0.23198627,-0.16054744,0.86519927,5.171966552734375,-0.7238332033157349,8.256401062011719,-1.0951989889144897,-0.637538492679596, -0.9995484352111816
96,191282685,0.41461372,0.23205495,-0.16056374,0.86513895,5.076542854309082,-0.764878511428833,8.193092346191406,-0.9285627603530884,-0.4098544120788574, -1.198699951171875
97,191299352,0.4146911,0.23213837,-0.16047357,0.8650963,5.106823444366455,-0.7193734645843506,8.072803497314453,-0.302076131105423,-0.16671305894851685, -1.4298417568206787
98,191316019,0.41472742,0.23220676,-0.1603762,0.8650785,5.189050197601318,-0.7097505331039429,8.132711410522461,-0.3356800675392151,-0.044220324605703354, -1.3052616119384766
99,191332686,0.41476402,0.23219939,-0.16031003,0.8650751,5.296238899230957,-0.6856176853179932,8.164528846740723,-0.638678252696991,0.3286941647529602, -0.9973584413528442
100,191349353,0.41476917,0.2321967,-0.16023766,0.86508685,5.419470310211182,-0.6651152968406677,8.254317283630371,-0.5309768319129944,0.31590062379837036, -0.7879618406295776
101,191366020,0.41477397,0.23214512,-0.1602034,0.8651048,5.49928092956543,-0.6528189778327942,8.320859909057617,-0.7860280275344849,0.5012340545654297, -0.4760119915008545
102,191382687,0.41473907,0.2320322,-0.16020472,0.86515164,5.506272315979004,-0.6951440572738647,8.339710235595703,-1.163764238357544,0.7935134172439575, -0.1515759527683258
103,191399354,0.4146903,0.23187466,-0.16025692,0.86520743,5.413549900054932,-0.6508908867835999,8.286259651184082,-1.5395408868789673,0.9223068356513977, 0.1331668198108673
104,191416021,0.414633,0.23167145,-0.160391,0.86526453,5.272910118103027,-0.618492603302002,8.24297046661377,-2.057788372039795,0.9477916359901428, 0.5166530013084412
105,191432688,0.41453078,0.23148482,-0.1605366,0.8653365,5.109699249267578,-0.5956764817237854,8.230844497680664,-2.0831451416015625,0.8068705201148987, 0.7026268243789673
106,191449355,0.41431937,0.23136082,-0.16060458,0.8654583,5.029489040374756,-0.6071642637252808,8.219411849975586,-1.509676456451416,0.6527203917503357, 0.8586080074310303
107,191466022,0.41414648,0.23131631,-0.1606371,0.8655468,4.978825092315674,-0.6337544918060303,8.24077033996582,-0.8176470994949341,0.19892744719982147, 0.9658741354942322
108,191482689,0.41394365,0.23135713,-0.16062294,0.86563563,5.004307746887207,-0.6570916771888733,8.252778053283691,-0.29096031188964844,-0.21865563094615936, 0.9289150238037109
109,191499356,0.41374233,0.23146129,-0.16060033,0.8657082,5.078481674194336,-0.6872637867927551,8.262813568115234,-0.04649985581636429,-0.6170739531517029, 0.8583007454872131
110,191516023,0.4135437,0.23160239,-0.1605387,0.8657768,5.161173343658447,-0.6890172362327576,8.236966133117676,0.14981509745121002,-0.7175398468971252, 0.52958744764328
111,191532690,0.41337544,0.23172556,-0.16050102,0.86583114,5.293605804443359,-0.7164931297302246,8.214558601379395,-0.11455278843641281,-0.6719619035720825, 0.3669210970401764
112,191549357,0.4132211,0.23176894,-0.16046585,0.8658998,5.320774555206299,-0.8284427523612976,8.2765531539917,-0.26665377616882324,-0.17685569822788239, 0.5760359764099121
113,191566024,0.41307142,0.2318234,-0.16042371,0.8659643,5.400856971740723,-0.776791512966156,8.160486221313477,-0.26830580830574036,-0.2087947279214859, 0.4059036374092102
114,191582691,0.4129691,0.23185427,-0.16044088,0.8660017,5.477290630340576,-0.7432896494865417,8.230644226074219,-0.7217786312103271,-0.22578874230384827, 0.28069597482681274
115,191599358,0.41288015,0.23179369,-0.16058382,0.8660339,5.42832612991333,-0.7266099452972412,8.343395233154297,-1.892586350440979,0.005769260227680206, 0.28006845712661743
116,191616025,0.41282275,0.23168856,-0.16069146,0.86606944,5.244801044464111,-0.6759505867958069,8.194539070129395,-1.7445963621139526,0.40024325251579285, 0.2784420847892761
117,191632692,0.41277054,0.23160946,-0.16076045,0.8661025,5.163699150085449,-0.6296194791793823,8.223913192749023,-1.4982149600982666,0.3660246729850769, 0.08999662846326828
118,191649359,0.41275823,0.23151165,-0.16081113,0.8661251,5.134073257446289,-0.6636436581611633,8.32056713104248,-1.488661289215088,0.5466582775115967, -0.12090474367141724
119,191666026,0.4127764,0.23144545,-0.16082071,0.86613244,5.108304500579834,-0.6821119785308838,8.198678970336914,-1.2122362852096558,0.47267594933509827, -0.41906216740608215
120,191682693,0.41277805,0.2314372,-0.16081874,0.8661343,5.192276954650879,-0.6690413951873779,8.150634765625,-0.9846417903900146,0.13137392699718475, -0.4473769962787628
121,191699360,0.41274703,0.23139259,-0.16080698,0.8661631,5.244238376617432,-0.6997118592262268,8.251092910766602,-1.0987720489501953,0.40749168395996094, -0.3754694163799286
122,191716027,0.41272548,0.23131745,-0.16079259,0.8661962,5.243281364440918,-0.704105019569397,8.230142593383789,-1.0367380380630493,0.5900332927703857, -0.1540347784757614
123,191732694,0.41269392,0.23125038,-0.16075028,0.866237,5.308911323547363,-0.6923657655715942,8.230620384216309,-0.7656404376029968,0.6130591630935669, -0.02439609356224537
124,191749361,0.4126347,0.23117763,-0.1607203,0.8662902,5.331131935119629,-0.7245834469795227,8.332976341247559,-0.9101472496986389,0.6248025298118591, 0.03631240874528885
125,191766028,0.4126236,0.23109214,-0.16076808,0.8663094,5.3375630378723145,-0.7447366118431091,8.311779975891113,-1.4118874073028564,0.4623412787914276, -0.023474039509892464
126,191782695,0.41261175,0.23100004,-0.16090418,0.8663143,5.294224262237549,-0.7009617686271667,8.24995231628418,-1.9998009204864502,0.23600177466869354, 0.04943890497088432
127,191799362,0.41255602,0.23092021,-0.16105059,0.8663349,5.189453601837158,-0.6942266821861267,8.26404857635498,-2.116466999053955,0.1434759497642517, 0.09008626639842987
128,191816029,0.41249794,0.2308781,-0.16113813,0.8663575,5.095099449157715,-0.6727100014686584,8.2279691696167,-1.5954790115356445,0.07333555817604065, 0.0779842734336853
129,191832696,0.41244617,0.23086655,-0.1611526,0.86638254,5.056399345397949,-0.6333989500999451,8.205644607543945,-1.1038304567337036,0.10477515310049057, -0.1250540167093277
130,191849363,0.41239798,0.2309112,-0.1611087,0.86640173,5.0919365882873535,-0.6361284852027893,8.22419548034668,-0.6440569162368774,-0.07290654629468918, -0.35399308800697327
131,191866030,0.41240025,0.23098096,-0.16106755,0.86638975,5.130437850952148,-0.6722590327262878,8.256278991699219,-0.545268714427948,-0.260391503572464, -0.497001588344574
132,191882697,0.41237083,0.23106876,-0.16104217,0.86638504,5.223836421966553,-0.703267514705658,8.238422393798828,-0.7121226191520691,-0.4111350178718567, -0.555232048034668
133,191899364,0.41237608,0.23116122,-0.16104835,0.8663568,5.292153835296631,-0.7035387754440308,8.253556251525879,-0.8002047538757324,-0.5577676892280579, -0.5077333450317383
134,191916031,0.41233614,0.2312352,-0.16101693,0.8663619,5.3202128410339355,-0.7024529576301575,8.249130249023438,-0.6585665345191956,-0.31102779507637024, -0.3920919895172119
135,191932698,0.4122666,0.23128317,-0.16099596,0.8663862,5.336784839630127,-0.686149001121521,8.232089042663574,-0.7620546817779541,-0.17743197083473206, -0.1599256992340088
136,191949365,0.4122367,0.23129459,-0.16099504,0.8663974,5.345566749572754,-0.7002254724502563,8.24493408203125,-0.8845985531806946,-0.018633238971233368, -0.06601672619581223
137,191966032,0.41218778,0.23128381,-0.16100647,0.8664214,5.291105270385742,-0.7003810405731201,8.24459171295166,-1.0384796857833862,0.09382571280002594, 0.03982134535908699
138,191982699,0.41214684,0.23124136,-0.16102536,0.8664487,5.2647857666015625,-0.6886737942695618,8.253358840942383,-1.1740220785140991,0.27732789516448975, 0.07183722406625748
139,191999366,0.41213256,0.23118886,-0.16107506,0.8664603,5.24049186706543,-0.6783332228660583,8.238055229187012,-1.341362714767456,0.23651409149169922, 0.1079639419913292
140,192016033,0.41205445,0.23115413,-0.16110246,0.8665016,5.220599174499512,-0.6875592470169067,8.248709678649902,-1.2503094673156738,0.20939022302627563, 0.1707022339105606
141,192032700,0.4119435,0.23114139,-0.1611148,0.8665554,5.222345352172852,-0.65831059217453,8.289968490600586,-1.138253927230835,0.12143620103597641, 0.1994652897119522
142,192049367,0.41186118,0.23113804,-0.16112003,0.86659443,5.1823554039001465,-0.6538962125778198,8.263422966003418,-0.9758438467979431,0.06416621059179306, 0.2271013855934143
143,192066034,0.41176635,0.23116753,-0.16110507,0.86663437,5.1607279777526855,-0.6620274782180786,8.25222396850586,-0.8018952012062073,-0.08128190040588379, 0.15650001168251038
144,192082701,0.41170347,0.2312111,-0.1610805,0.8666573,5.149899482727051,-0.6839532256126404,8.23001480102539,-0.6811057329177856,-0.1511661559343338, 0.04927242919802666
145,192099368,0.41163605,0.23127781,-0.16106077,0.86667514,5.174914836883545,-0.7156421542167664,8.226600646972656,-0.6331843137741089,-0.322310209274292, 0.07004433125257492
146,192116035,0.41152376,0.23135714,-0.16102327,0.86671424,5.224048614501953,-0.68682861328125,8.224130630493164,-0.587440013885498,-0.33258089423179626, 0.06275751441717148
147,192132702,0.4114449,0.23140974,-0.16099295,0.86674327,5.296484470367432,-0.6891637444496155,8.248815536499023,-0.6430836915969849,-0.19477176666259766, 0.08831898868083954
148,192149369,0.4113601,0.2314283,-0.16098511,0.86678004,5.325387954711914,-0.6807389855384827,8.25370979309082,-0.9039361476898193,-0.03958442434668541, 0.15402835607528687
149,192166036,0.4113109,0.23142149,-0.16098973,0.86680436,5.295791149139404,-0.694501519203186,8.233526229858398,-1.0288493633270264,0.08415692299604416, 0.11129357665777206
150,192182703,0.4112704,0.23139323,-0.16099672,0.8668299,5.276294231414795,-0.710468590259552,8.23452377319336,-1.1404310464859009,0.22374612092971802, 0.0636027380824089
151,192199370,0.41127563,0.23134853,-0.16100097,0.86683863,5.2282843589782715,-0.7452524900436401,8.217909812927246,-1.1645070314407349,0.3384014070034027, -0.08066720515489578
152,192216037,0.41124287,0.2313184,-0.1609829,0.8668655,5.215088844299316,-0.7296132445335388,8.222005844116211,-1.153262972831726,0.34466367959976196, -0.23447145521640778
153,192232704,0.4112651,0.23129578,-0.1609759,0.8668623,5.198221683502197,-0.7301496267318726,8.189689636230469,-1.169744849205017,0.25459665060043335, -0.3969968259334564
154,192249371,0.41129467,0.23127866,-0.16097273,0.86685324,5.190243244171143,-0.7052926421165466,8.223640441894531,-1.2761783599853516,0.22379738092422485, -0.5791414976119995
155,192266038,0.41128865,0.23129167,-0.16095667,0.86685574,5.20971155166626,-0.6968267560005188,8.226232528686523,-1.217576503753662,0.08779393136501312, -0.6528293490409851
156,192282705,0.41134763,0.23127487,-0.16096957,0.8668298,5.251863956451416,-0.6755102872848511,8.256521224975586,-1.2929291725158691,0.15322159230709076, -0.5324496626853943
157,192299372,0.41137227,0.23126736,-0.1609828,0.8668176,5.290572166442871,-0.6605238318443298,8.272198677062988,-1.3530420064926147,0.10757973790168762, -0.5304005742073059
158,192316039,0.41141295,0.23124187,-0.16099076,0.86680377,5.272043228149414,-0.6605910658836365,8.265274047851562,-1.3447179794311523,0.23592498898506165, -0.5183882713317871
159,192332706,0.41142777,0.2312196,-0.16098043,0.86680454,5.247924327850342,-0.6456533670425415,8.254491806030273,-1.2735275030136108,0.28183576464653015, -0.5046470165252686
160,192349373,0.41146764,0.23120196,-0.16093375,0.866799,5.224456310272217,-0.6672872304916382,8.252514839172363,-0.9557121992111206,0.350311279296875, -0.507899820804596
161,192366040,0.41145512,0.23121318,-0.16085778,0.8668161,5.230713367462158,-0.6909409165382385,8.253994941711426,-0.7327408790588379,0.2622804045677185, -0.42029157280921936
162,192382707,0.4114317,0.23124671,-0.16081314,0.8668264,5.250516414642334,-0.7063769698143005,8.237589836120605,-0.8380090594291687,0.015899082645773888, -0.3268052041530609
163,192399374,0.41138607,0.23127551,-0.16082597,0.866838,5.230523586273193,-0.7051089406013489,8.22778034210205,-1.1426976919174194,-0.14288043975830078, -0.06339142471551895
164,192416041,0.4113268,0.23132017,-0.16088416,0.8668434,5.2158050537109375,-0.6718892455101013,8.258561134338379,-1.3195663690567017,-0.39694562554359436, 0.11599351465702057
165,192432708,0.4112737,0.23135786,-0.16092688,0.8668507,5.224558353424072,-0.6510280966758728,8.246284484863281,-1.2251194715499878,-0.30911970138549805, 0.12518848478794098
166,192449375,0.41126662,0.23140454,-0.16093002,0.866841,5.215364933013916,-0.6385502219200134,8.228466987609863,-0.972590982913971,-0.24320538341999054, -0.1262834072113037
167,192466042,0.41122502,0.2314495,-0.16087331,0.8668593,5.208106517791748,-0.6744319796562195,8.239909172058105,-0.7997437119483948,-0.011218361556529999, -0.33717837929725647
168,192482709,0.41118312,0.2314871,-0.16082796,0.86687756,5.227719783782959,-0.7101981043815613,8.23425579071045,-0.8335525393486023,-0.012217258103191853, -0.2118554562330246
169,192499376,0.4111588,0.23150575,-0.16080305,0.8668887,5.259664535522461,-0.7257584929466248,8.231490135192871,-1.009294033050537,0.04422673210501671, -0.22326591610908508
170,192516043,0.41115478,0.23151001,-0.16082223,0.8668859,5.299700736999512,-0.7138531804084778,8.239169120788574,-1.2714911699295044,-0.008708316832780838, -0.1522803157567978
171,192532710,0.4110969,0.23149201,-0.16084361,0.8669142,5.328677654266357,-0.688285768032074,8.256412506103516,-1.4264864921569824,0.14566583931446075, -0.024421710520982742
172,192549377,0.411018,0.23145698,-0.16085793,0.8669583,5.346478462219238,-0.6797354817390442,8.256413459777832,-1.4399330615997314,0.28274497389793396, 0.0721573755145073
173,192566044,0.41098058,0.23139054,-0.16087586,0.86699045,5.326447486877441,-0.6623151898384094,8.251191139221191,-1.4342982769012451,0.45693689584732056, 0.14922599494457245
174,192582711,0.41094416,0.23133534,-0.16086583,0.8670243,5.241469860076904,-0.6592419147491455,8.259590148925781,-1.2633976936340332,0.48123058676719666, 0.058224067091941833
175,192599378,0.41090307,0.23129393,-0.16084562,0.8670586,5.171616554260254,-0.6654411554336548,8.23488998413086,-1.1754052639007568,0.4254973828792572, 0.03665817528963089
176,192616045,0.41086248,0.23126052,-0.16085812,0.86708444,5.099564075469971,-0.6737051606178284,8.218252182006836,-1.3345367908477783,0.26468801498413086, 0.10008802264928818
177,192632712,0.4107991,0.23124753,-0.16086495,0.8671167,5.108892440795898,-0.6862043142318726,8.198506355285645,-1.2491698265075684,0.14649824798107147, 0.1531575471162796
178,192649379,0.4107022,0.23128562,-0.16087702,0.86715007,5.148011684417725,-0.6949992775917053,8.216287612915039,-1.1299554109573364,-0.2050040364265442, 0.2377946972846985
179,192666046,0.41059506,0.2313419,-0.16087344,0.8671865,5.2104363441467285,-0.6742417216300964,8.232269287109375,-0.8719587326049805,-0.2956730127334595, 0.416917085647583
180,192682713,0.410514,0.23138948,-0.16087855,0.8672113,5.2944769859313965,-0.6849998235702515,8.24052906036377,-0.8746481537818909,-0.2820342481136322, 0.46289196610450745
181,192699380,0.41041476,0.2314305,-0.16088478,0.86724603,5.34418249130249,-0.7047630548477173,8.27098274230957,-0.9726422429084778,-0.22760725021362305, 0.44001975655555725
182,192716047,0.41034266,0.23143676,-0.16089791,0.8672761,5.333905220031738,-0.709545910358429,8.251839637756348,-1.113627314567566,-0.021681146696209908, 0.39542803168296814
183,192732714,0.41027737,0.23143175,-0.1608878,0.86731017,5.311136722564697,-0.7332162857055664,8.239322662353516,-1.1090811491012573,0.14608842134475708, 0.19653263688087463
184,192749381,0.41027603,0.23139493,-0.16088429,0.8673213,5.236244201660156,-0.7420058846473694,8.235350608825684,-1.2358384132385254,0.3323824107646942, -0.00011525714944582433
185,192766048,0.41028303,0.23133038,-0.16090935,0.8673306,5.200737476348877,-0.7576382756233215,8.21250057220459,-1.6387518644332886,0.44799819588661194, -0.19282521307468414
186,192782715,0.4103459,0.23127154,-0.16095886,0.86730736,5.166306018829346,-0.7271563410758972,8.187419891357422,-1.8082181215286255,0.3396948277950287, -0.45310142636299133
187,192799382,0.41043118,0.23123159,-0.16095789,0.8672778,5.141866683959961,-0.7161359786987305,8.21849250793457,-1.5599029064178467,0.39351990818977356, -0.8028684854507446
188,192816049,0.41052532,0.23122679,-0.1609128,0.86724293,5.1688642501831055,-0.6655876636505127,8.246234893798828,-1.2604904174804688,0.31314724683761597, -1.043243646621704
189,192832716,0.4106614,0.2312311,-0.16083111,0.86719257,5.204855442047119,-0.6705496311187744,8.245079040527344,-0.9640234708786011,0.3555362820625305, -1.1817443370819092
190,192849383,0.41079384,0.23122583,-0.16074248,0.8671477,5.248419284820557,-0.6998427510261536,8.25072193145752,-0.9731801152229309,0.44145408272743225, -1.1925784349441528
191,192866050,0.4109317,0.23123834,-0.16063324,0.8670992,5.2459282875061035,-0.7008426785469055,8.25417709350586,-0.8293392062187195,0.39647814631462097, -1.3058891296386719
192,192882717,0.41101763,0.2312593,-0.16054362,0.8670695,5.252154350280762,-0.6998463273048401,8.241121292114258,-0.9495395421981812,0.28578007221221924, -1.1238083839416504
193,192899384,0.41109738,0.23125531,-0.16051093,0.86703885,5.258118152618408,-0.7034567594528198,8.249098777770996,-1.2399746179580688,0.24710491299629211, -0.7910481095314026
194,192916051,0.41114974,0.23124307,-0.16054355,0.86701113,5.275829315185547,-0.650330662727356,8.24456787109375,-1.5140436887741089,0.0711456760764122, -0.35857781767845154
195,192932718,0.41108412,0.23125578,-0.16055545,0.8670367,5.240573883056641,-0.6245125532150269,8.271568298339844,-1.4033966064453125,-0.006044596899300814, -0.07768331468105316
196,192949385,0.41100416,0.2312788,-0.16056202,0.8670673,5.264319896697998,-0.6061863899230957,8.285683631896973,-1.2583006620407104,-0.07143381237983704, 0.1058252677321434
197,192966052,0.410889,0.23130019,-0.16053466,0.8671213,5.283523082733154,-0.6203224658966064,8.273885726928711,-0.9652273058891296,0.029678713530302048, 0.36283591389656067
198,192982719,0.41073036,0.23133643,-0.16049378,0.8671942,5.26434326171875,-0.6641314029693604,8.243413925170898,-0.7766153812408447,-0.0335526317358017, 0.614595890045166
199,192999386,0.41060662,0.23137823,-0.16045852,0.8672482,5.234917640686035,-0.71222984790802,8.262017250061035,-0.6670058369636536,-0.10844416171312332, 0.6852229237556458
200,193016053,0.4104953,0.23140909,-0.1604614,0.86729217,5.204043388366699,-0.7176997661590576,8.252108573913574,-1.0360463857650757,-0.13946114480495453, 0.5313930511474609
201,193032720,0.41042644,0.23143601,-0.16048855,0.8673125,5.190724849700928,-0.7469486594200134,8.238508224487305,-1.273028016090393,-0.17857173085212708, 0.27722546458244324
202,193049387,0.4103686,0.23145016,-0.16050547,0.86733294,5.208283424377441,-0.7535660266876221,8.21390438079834,-1.3072720766067505,-0.0560021698474884, 0.1411067694425583
203,193066054,0.41032347,0.23147073,-0.16050659,0.8673486,5.226147174835205,-0.7536082863807678,8.21560001373291,-1.2603882551193237,-0.03612671419978142, -0.044386811554431915
204,193082721,0.4103008,0.23147799,-0.16047122,0.8673639,5.231721878051758,-0.7282764315605164,8.237749099731445,-1.1475259065628052,0.17622177302837372, -0.2769629657268524
205,193099388,0.41028133,0.2314903,-0.16041815,0.8673797,5.24957799911499,-0.6917730569839478,8.246977806091309,-1.0590851306915283,0.20477993786334991, -0.36651772260665894
206,193116055,0.41033372,0.2314957,-0.16035761,0.8673647,5.235855579376221,-0.6536116600036621,8.2573881149292,-0.9965901374816895,0.26581498980522156, -0.5896555185317993
207,193132722,0.41042304,0.23150234,-0.1603176,0.86732805,5.235045433044434,-0.6887648701667786,8.265259742736816,-1.065782904624939,0.18340612947940826, -0.6219275593757629
208,193149389,0.4104601,0.2314929,-0.16029076,0.867318,5.2354865074157715,-0.6824219822883606,8.23289966583252,-1.2301651239395142,0.25184327363967896, -0.43464750051498413
209,193166056,0.410472,0.23148651,-0.16028722,0.8673147,5.251908779144287,-0.7139478921890259,8.23865032196045,-1.3112294673919678,0.15095485746860504, -0.2258271872997284
210,193182723,0.41049463,0.23146412,-0.16028357,0.8673107,5.237841606140137,-0.7061665654182434,8.230682373046875,-1.3283129930496216,0.2505626380443573, -0.1996125727891922
211,193199390,0.4104906,0.23145539,-0.16025178,0.8673207,5.227431297302246,-0.6945350170135498,8.255483627319336,-1.1606650352478027,0.25857940316200256, -0.21149682998657227
212,193216057,0.41054142,0.23145637,-0.1602082,0.86730444,5.220394611358643,-0.6819823980331421,8.23263931274414,-0.985615074634552,0.21867483854293823, -0.33377188444137573
213,193232724,0.41058344,0.23145142,-0.16015637,0.8672955,5.18953800201416,-0.6852905750274658,8.263472557067871,-1.0228687524795532,0.29427069425582886, -0.40652474761009216
214,193249391,0.41061312,0.2314389,-0.160116,0.8672922,5.214714050292969,-0.6944102644920349,8.238186836242676,-1.1061099767684937,0.30373460054397583, -0.31912142038345337
215,193266058,0.41065362,0.23142387,-0.16009529,0.8672809,5.2248053550720215,-0.7084421515464783,8.242887496948242,-1.1835885047912598,0.24907712638378143, -0.25218263268470764
216,193282725,0.4106878,0.2314074,-0.16007221,0.8672733,5.25931978225708,-0.695170521736145,8.257834434509277,-1.2627830505371094,0.2805551290512085, -0.36929675936698914
217,193299392,0.4107129,0.23142232,-0.1600247,0.8672663,5.258464336395264,-0.70843106508255,8.251229286193848,-1.1136401891708374,0.17103520035743713, -0.543975293636322
218,193316059,0.41074875,0.2314196,-0.15997577,0.867259,5.24950647354126,-0.7034643292427063,8.258162498474121,-1.1332594156265259,0.2862411141395569, -0.5297218561172485
219,193332726,0.41083393,0.23141406,-0.15992887,0.8672288,5.237839698791504,-0.6917373538017273,8.259166717529297,-1.0842368602752686,0.2861386835575104, -0.6037553548812866
220,193349393,0.4108377,0.23143063,-0.15989624,0.8672287,5.232303619384766,-0.6854869723320007,8.230810165405273,-1.2457889318466187,0.12239668518304825, -0.5101537704467773
221,193366060,0.41092342,0.23141144,-0.15986788,0.8671985,5.226830959320068,-0.6997106075286865,8.24152946472168,-1.2314459085464478,0.31547799706459045, -0.5537978410720825
222,193382727,0.4109946,0.23140769,-0.1598283,0.8671729,5.207951068878174,-0.6900618672370911,8.216775894165039,-1.0709949731826782,0.24276354908943176, -0.4514622092247009
223,193399394,0.41105685,0.23138513,-0.15979838,0.86715496,5.238758563995361,-0.6856203079223633,8.223424911499023,-1.104842185974121,0.3207158148288727, -0.25373220443725586
224,193416061,0.41103652,0.23136339,-0.15978403,0.867173,5.218687534332275,-0.666068971157074,8.244933128356934,-1.3216921091079712,0.289032906293869, -0.10458946228027344
225,193432728,0.4110441,0.23133597,-0.15977916,0.8671776,5.2228264808654785,-0.6685619950294495,8.259262084960938,-1.3007153272628784,0.27937692403793335, -0.04254269227385521
226,193449395,0.41100675,0.2313396,-0.15976173,0.8671975,5.250460147857666,-0.6790345311164856,8.254342079162598,-1.177607774734497,0.12525250017642975, 0.016629043966531754
227,193466062,0.41107455,0.23134096,-0.15977848,0.867162,5.239719390869141,-0.6778750419616699,8.261321067810059,-1.2005826234817505,0.0013894891599193215, -0.04909954592585564
228,193482729,0.41107354,0.23135571,-0.15977764,0.86715865,5.24192476272583,-0.6828914284706116,8.237884521484375,-1.2225836515426636,-0.0019977905321866274, -0.07699176669120789
229,193499396,0.41107213,0.2313615,-0.15977356,0.86715853,5.217284202575684,-0.6893395781517029,8.224780082702637,-1.2018758058547974,0.06192510202527046, -0.023025814443826675
230,193516063,0.41102424,0.23137583,-0.15971372,0.8671886,5.205554962158203,-0.6888543367385864,8.225260734558105,-0.9004784822463989,0.19237057864665985, -0.014010145328938961
231,193532730,0.41098478,0.23139767,-0.15965106,0.867213,5.2025837898254395,-0.7067304253578186,8.2645845413208,-0.8412874937057495,0.1492900252342224, -0.029249701648950577
232,193549397,0.41097298,0.23142032,-0.15961781,0.8672187,5.2131500244140625,-0.7033051252365112,8.259547233581543,-0.9876255989074707,0.044995106756687164, -0.05397876352071762
233,193566064,0.41094154,0.2314716,-0.1595906,0.86722493,5.227872848510742,-0.7276459336280823,8.254773139953613,-1.0892823934555054,-0.13478681445121765, -0.2388896346092224
234,193582731,0.41094956,0.23152167,-0.15958679,0.8672083,5.235941410064697,-0.730212390422821,8.232881546020508,-1.1469365358352661,-0.21494175493717194, -0.22822193801403046
235,193599398,0.41096228,0.23158623,-0.1595774,0.8671868,5.223848342895508,-0.7091426253318787,8.231579780578613,-1.1696550846099854,-0.273748517036438, -0.43066471815109253
236,193616065,0.41104227,0.23163216,-0.15955648,0.86714053,5.234592914581299,-0.6929502487182617,8.218881607055664,-1.0721091032028198,-0.1307528167963028, -0.5569737553596497
237,193632732,0.41113746,0.23166168,-0.15954253,0.8670901,5.228437900543213,-0.685187816619873,8.245503425598145,-1.1039842367172241,-0.05545149743556976, -0.4981926679611206
238,193649399,0.41115957,0.23168758,-0.15949894,0.8670807,5.207136631011963,-0.6791751384735107,8.237224578857422,-1.130634069442749,0.09264753758907318, -0.5487648844718933
239,193666066,0.41122276,0.23170371,-0.15948427,0.8670491,5.211505889892578,-0.6948027610778809,8.234002113342285,-1.1882116794586182,0.04023114591836929, -0.42875662446022034
240,193682733,0.41127908,0.23174995,-0.15945624,0.8670152,5.221818447113037,-0.6730495095252991,8.239551544189453,-1.0765787363052368,-0.10316795855760574, -0.5458322763442993
241,193699400,0.41131526,0.23180427,-0.15941855,0.8669904,5.246739387512207,-0.6770603656768799,8.253687858581543,-0.9939007759094238,-0.12539976835250854, -0.483170747756958
242,193716067,0.4112976,0.23186244,-0.1593563,0.8669946,5.287187576293945,-0.6839538812637329,8.246148109436035,-0.9060108661651611,-0.06115031614899635, -0.42243024706840515
243,193732734,0.41128668,0.231905,-0.15932302,0.8669946,5.284916400909424,-0.6785264015197754,8.242497444152832,-0.9874975681304932,-0.07213816791772842, -0.16896696388721466
244,193749401,0.41123712,0.23193532,-0.15928815,0.86701643,5.269017696380615,-0.6870254874229431,8.225703239440918,-0.966546356678009,0.006524834781885147, 0.07222140580415726
245,193766068,0.4111998,0.23195167,-0.15925747,0.8670354,5.244112014770508,-0.6824339032173157,8.238086700439453,-0.9873182773590088,0.07802268862724304, 0.11826023459434509
246,193782735,0.4112072,0.2319592,-0.15923709,0.86703366,5.240680694580078,-0.6864169239997864,8.24299144744873,-1.0091402530670166,0.09251947700977325, 0.07281050086021423
247,193799402,0.4112207,0.23194827,-0.15923022,0.86703146,5.222166061401367,-0.6966220140457153,8.237296104431152,-1.1154841184616089,0.16479848325252533, 0.1348828673362732
248,193816069,0.4112414,0.23193724,-0.15922524,0.8670254,5.210597038269043,-0.7101411819458008,8.247544288635254,-1.19270658493042,0.16981860995292664, 0.002375577576458454
249,193832736,0.41127256,0.23194148,-0.15921552,0.8670112,5.2067975997924805,-0.711547315120697,8.250843048095703,-1.1211318969726562,0.08566807955503464, -0.06679792702198029
250,193849403,0.41127968,0.23196523,-0.15918006,0.8670079,5.19529390335083,-0.7122703194618225,8.220230102539062,-1.0099983215332031,0.05575244128704071, -0.1911475658416748
251,193866070,0.4113585,0.23198666,-0.1591377,0.8669726,5.200225830078125,-0.700998842716217,8.217474937438965,-0.9328017234802246,0.08534792065620422, -0.4154635965824127
252,193882737,0.41146675,0.23200488,-0.15907332,0.8669282,5.221912384033203,-0.7032573819160461,8.249990463256836,-0.8477804064750671,0.1808832734823227, -0.6190845370292664
253,193899404,0.41154242,0.23203364,-0.15902264,0.86689395,5.222388744354248,-0.7017725706100464,8.235413551330566,-0.9932604432106018,0.08387518674135208, -0.6343753337860107
254,193916071,0.41159606,0.23207183,-0.15897767,0.8668666,5.231110095977783,-0.6868665814399719,8.236151695251465,-1.0501463413238525,0.012748721055686474, -0.6322750449180603
255,193932738,0.41161418,0.23209395,-0.15895192,0.8668568,5.222990036010742,-0.6950110197067261,8.23003101348877,-1.323766827583313,0.07327153533697128, -0.6210439801216125
256,193949405,0.4116983,0.23209034,-0.1589567,0.8668168,5.246262550354004,-0.6638628244400024,8.249580383300781,-1.3561028242111206,0.10791271179914474, -0.4544205367565155
257,193966072,0.4117052,0.23210013,-0.15893151,0.8668156,5.27658224105835,-0.6699374318122864,8.23972225189209,-1.1779536008834839,0.12221739441156387, -0.26619279384613037
258,193982739,0.41170612,0.23210452,-0.15890107,0.8668196,5.296722412109375,-0.6478756070137024,8.244812965393066,-1.0776029825210571,0.1620323359966278, -0.10926377028226852
259,193999406,0.41169068,0.23209228,-0.15888965,0.8668322,5.287938594818115,-0.672754168510437,8.266660690307617,-1.1829609870910645,0.2024107575416565, 0.09519600123167038
260,194016073,0.41165054,0.23205954,-0.15889224,0.86685956,5.268718242645264,-0.6965796947479248,8.252995491027832,-1.3551294803619385,0.2956666052341461, 0.19562339782714844
261,194032740,0.4116214,0.23201388,-0.15894715,0.86687547,5.23028039932251,-0.711185872554779,8.270393371582031,-1.6685138940811157,0.2100689858198166, 0.29325902462005615
262,194049407,0.41160533,0.23197512,-0.1590233,0.8668796,5.181610107421875,-0.7092909216880798,8.226388931274414,-1.7881635427474976,0.10016487538814545, 0.24176469445228577
263,194066074,0.411581,0.23194896,-0.15906516,0.8668905,5.187191486358643,-0.7010567784309387,8.22314453125,-1.5841197967529297,0.13155321776866913, 0.1504041701555252
264,194082741,0.4116487,0.23191212,-0.1590897,0.86686367,5.198910713195801,-0.6842976808547974,8.224502563476562,-1.4300209283828735,0.24176466464996338, -0.09671355038881302
265,194099408,0.41167364,0.23186459,-0.15914083,0.8668552,5.231973171234131,-0.7082117795944214,8.253584861755371,-1.726744294166565,0.24276357889175415, -0.047690846025943756
266,194116075,0.4117092,0.23161936,-0.15949778,0.8668383,5.266439914703369,-0.7343335151672363,8.29994010925293,-4.104767799377441,0.5483358502388, 0.6167218089103699
267,194132742,0.41182327,0.2313713,-0.15989362,0.8667775,5.204431533813477,-0.7187753319740295,8.253050804138184,-4.321784973144531,0.4413132667541504, 0.39454445242881775
268,194149409,0.4118905,0.23121029,-0.16019239,0.8667333,5.194258213043213,-0.7256948947906494,8.217020988464355,-3.631650447845459,0.20664969086647034, 0.10925738513469696
269,194166076,0.4119071,0.23113117,-0.1603662,0.86671436,5.215657711029053,-0.7664374113082886,8.234686851501465,-2.778132677078247,0.09300612658262253, -0.17015796899795532
270,194182743,0.4119988,0.23106766,-0.16054708,0.8666543,5.2340216636657715,-0.7367340922355652,8.238261222839355,-2.6430766582489014,-0.04990633949637413, -0.2742863595485687
271,194199410,0.41212907,0.23095106,-0.16079426,0.8665775,5.233644962310791,-0.7426156997680664,8.25278377532959,-3.231144666671753,0.08861353993415833, -0.3296738564968109
272,194216077,0.41220197,0.23085289,-0.16096412,0.8665375,5.265953063964844,-0.6927929520606995,8.2413969039917,-2.7795283794403076,0.2240406721830368, -0.3337334394454956
273,194232744,0.41224614,0.23050866,-0.16160028,0.86648977,5.284914493560791,-0.6960655450820923,8.360957145690918,-6.201693058013916,0.3232131004333496, 0.8508219718933105
274,194249411,0.41224122,0.22987202,-0.1628229,0.8664322,5.207380771636963,-0.7612399458885193,8.257898330688477,-10.452342987060547,0.33103787899017334, 2.3856639862060547
275,194266078,0.41226974,0.22934356,-0.16382934,0.86636895,5.174673080444336,-0.7304392457008362,8.203449249267578,-8.74338436126709,0.2968192994594574, 1.9814311265945435
276,194282745,0.41226807,0.22907811,-0.16437477,0.8663367,5.206427097320557,-0.7921319007873535,8.168723106384277,-5.235953330993652,0.06187388300895691, 1.1221245527267456
277,194299412,0.41232023,0.22899812,-0.16455993,0.8662979,5.225088596343994,-0.8464051485061646,8.197331428527832,-2.4834203720092773,-0.001536761992610991, 0.2804654836654663
278,194316079,0.41232327,0.22909565,-0.16445775,0.86629015,5.255611896514893,-0.8587009906768799,8.201495170593262,-0.3873536288738251,-0.2083849161863327, -0.3620994985103607
279,194332746,0.41235447,0.22909933,-0.16449384,0.8662673,5.283291816711426,-0.8401645421981812,8.261404991149902,-1.3779888153076172,-0.06008739769458771, -0.0005506729939952493
280,194349413,0.4124142,0.22906132,-0.16458488,0.8662317,5.250485897064209,-0.8047617077827454,8.240468978881836,-1.8107924461364746,0.032624177634716034, 0.03868158161640167
281,194366080,0.41246268,0.2290503,-0.16456549,0.86621517,5.23917818069458,-0.7740340828895569,8.229330062866211,-1.1406872272491455,0.22195324301719666, -0.20853860676288605
282,194382747,0.41253117,0.2290968,-0.16441156,0.8661995,5.224778175354004,-0.8259608149528503,8.204849243164062,-0.18774107098579407,0.2817460894584656, -0.5696519613265991
283,194399414,0.41257802,0.22903968,-0.1644696,0.8661812,5.259584903717041,-0.841042160987854,8.293462753295898,-1.746363639831543,0.27582958340644836, -0.053709834814071655
284,194416081,0.41265726,0.22882734,-0.16485624,0.866126,5.179615497589111,-0.8374854922294617,8.239940643310547,-4.106099605560303,0.2227088212966919, 0.543328583240509
285,194432748,0.41273308,0.22864035,-0.1651951,0.866075,5.201886177062988,-0.8226171135902405,8.22602367401123,-3.7826120853424072,0.2160111367702484, 0.4042772948741913
286,194449415,0.4127875,0.22853714,-0.16534437,0.8660477,5.2018842697143555,-0.8603547811508179,8.205989837646484,-2.465247869491577,0.28791874647140503, 0.030639195814728737
287,194466082,0.41291553,0.22845265,-0.1654563,0.86598754,5.201332092285156,-0.8375281095504761,8.229388236999512,-2.0567381381988525,0.2603466808795929, -0.12929290533065796
288,194482749,0.41300598,0.22829318,-0.16577436,0.8659256,5.214659214019775,-0.8625219464302063,8.319822311401367,-3.562009572982788,0.09860249608755112, 0.30171120166778564
289,194499416,0.41305032,0.22775292,-0.1669013,0.8658302,5.184079647064209,-0.8722154498100281,8.309022903442383,-9.541964530944824,-0.01640493981540203, 1.9970935583114624
290,194516083,0.4130579,0.22708331,-0.16836077,0.8657199,5.168552398681641,-0.8658813238143921,8.32821273803711,-11.85985279083252,-0.2569083273410797, 2.8210678100585938
291,194532750,0.4130851,0.22648181,-0.16968335,0.8656063,5.1303253173828125,-0.7254317998886108,8.22340202331543,-10.921257019042969,-0.2534889578819275, 2.346949815750122
292,194549417,0.4131243,0.22604589,-0.17069636,0.8655024,5.116041660308838,-0.9036974906921387,8.239456176757812,-8.666954040527344,-0.3243720829486847, 1.56166410446167
293,194566084,0.41323835,0.22575645,-0.17148112,0.8653685,5.0468363761901855,-0.8067030906677246,8.184189796447754,-6.87772798538208,-0.5458835959434509, 0.7657366394996643
294,194582751,0.41325182,0.22571096,-0.17176978,0.8653165,5.091927528381348,-0.949434757232666,8.112504959106445,-3.172990560531616,-0.5428099036216736, 0.24405698478221893
295,194599418,0.41334033,0.225892,-0.17165641,0.8652494,5.153451442718506,-0.9433161616325378,8.113728523254395,-0.12381178885698318,-0.7174244523048401, -0.9059596061706543
296,194616085,0.41342038,0.22634229,-0.17101568,0.8652206,5.270066261291504,-1.065561056137085,8.115775108337402,3.914626121520996,-0.7881796360015869, -1.7629990577697754
297,194632752,0.413498,0.22683568,-0.17028761,0.865198,5.390430927276611,-1.0659189224243164,8.193742752075195,4.537424087524414,-0.7777296304702759, -1.9740604162216187
298,194649419,0.41361693,0.22710887,-0.16992065,0.8651414,5.480807781219482,-1.0513150691986084,8.289714813232422,1.728607416152954,-0.5081303119659424, -1.397825837135315
299,194666086,0.41373482,0.22691192,-0.17030482,0.86506116,5.4045090675354,-0.9929192662239075,8.227274894714355,-4.217604637145996,0.14688242971897125, 0.07567911595106125
300,194682753,0.41386586,0.2266776,-0.17073615,0.86497504,5.297097682952881,-0.9415799379348755,8.237137794494629,-4.697498321533203,0.26052600145339966, -0.011525716632604599
301,194699420,0.41406095,0.22644927,-0.17109832,0.8648697,5.24421501159668,-0.9698331952095032,8.188361167907715,-4.128690242767334,0.40892595052719116, -0.14927081763744354
302,194716087,0.41421333,0.22637506,-0.17125669,0.8647849,5.236892223358154,-0.9754184484481812,8.201339721679688,-2.548835277557373,0.09217370301485062, -0.5913844704627991
303,194732754,0.4143572,0.22632831,-0.17134222,0.8647113,5.264934539794922,-0.9578253030776978,8.225629806518555,-1.9993659257888794,0.14088906347751617, -0.6400870084762573
304,194749421,0.41448346,0.22627768,-0.17148602,0.8646355,5.261830806732178,-0.9057838320732117,8.271343231201172,-2.382826328277588,-0.013805244117975235, -0.5306182503700256
305,194766088,0.41461983,0.22613825,-0.17180541,0.8645432,5.2192511558532715,-0.9431474208831787,8.245721817016602,-3.6976544857025146,-0.0046487050130963326, -0.22740237414836884
306,194782755,0.41468793,0.22595258,-0.17227472,0.8644657,5.207705020904541,-0.896052360534668,8.348956108093262,-4.7120842933654785,-0.1891113966703415, 0.3242376446723938
307,194799422,0.4149334,0.22500154,-0.17403305,0.86424375,5.230112075805664,-0.6785261631011963,8.953859329223633,-15.048752784729004,0.6769505143165588, 1.6993588209152222
308,194816089,0.4157829,0.22210768,-0.17839813,0.8636938,4.779629707336426,-0.5926730036735535,9.050626754760742,-37.49227523803711,5.004458427429199, 3.4204201698303223
309,194832756,0.4168773,0.21912287,-0.18285745,0.8629959,3.9496095180511475,-0.5914037227630615,8.069246292114258,-38.96126937866211,5.345700740814209, 1.6848959922790527
310,194849423,0.4178087,0.21768278,-0.18623878,0.8621865,3.9118287563323975,-1.0279841423034668,8.034550666809082,-28.120872497558594,-1.111670970916748, -1.356029748916626
311,194866090,0.41844013,0.217304,-0.1889025,0.8613958,3.995145082473755,-1.5617570877075195,8.53653335571289,-20.133956909179688,-5.791014194488525, -1.620159387588501
312,194882757,0.41864154,0.21744354,-0.19137505,0.86071664,3.759211778640747,-1.8230786323547363,8.68934440612793,-16.77400779724121,-8.721928596496582, 0.18878503143787384
313,194899424,0.41846234,0.21770735,-0.19381864,0.86019033,4.124566078186035,-2.115391254425049,8.391779899597168,-15.307868003845215,-9.742478370666504, 2.8987269401550293
314,194916091,0.41764125,0.21835408,-0.19651952,0.85981244,4.8978471755981445,-1.9645708799362183,8.125829696655273,-14.735457420349121,-13.351282119750977, 6.688709735870361
315,194932758,0.41633132,0.21893363,-0.19907422,0.8597126,5.084723949432373,-2.106724977493286,8.708757400512695,-13.013346672058105,-12.759870529174805, 10.127001762390137
316,194949425,0.41530514,0.21840033,-0.20179968,0.8597092,5.104846954345703,-1.4318413734436035,9.23576831817627,-17.19927406311035,-6.247702121734619, 10.933597564697266
317,194966092,0.4146932,0.21705955,-0.20458288,0.85968655,3.937953472137451,-1.4909251928329468,9.456435203552246,-20.7265625,-1.036752700805664, 9.301172256469727
318,194982759,0.4147347,0.2146474,-0.2077091,0.8595223,3.1288516521453857,-1.3564664125442505,9.10094165802002,-26.811918258666992,4.904211044311523, 7.318521976470947
319,194999426,0.41474852,0.21214756,-0.21046948,0.8594649,2.409761905670166,-1.8908296823501587,8.56318187713623,-24.85424041748047,6.567221164703369, 7.158069610595703
320,195016093,0.41440833,0.21014741,-0.21196297,0.85975313,2.0609958171844482,-2.33547043800354,8.273804664611816,-14.942222595214844,7.148506164550781, 7.613531589508057
321,195032760,0.41370866,0.2084375,-0.21207221,0.86047906,1.813514232635498,-2.630674123764038,8.406386375427246,-4.676920413970947,9.379486083984375, 8.660511016845703
322,195049427,0.41264585,0.20659587,-0.21093638,0.8617121,1.8548643589019775,-3.040945529937744,8.731163024902344,3.427475690841675,13.876317024230957, 10.371943473815918
323,195066094,0.41114306,0.20423128,-0.208938,0.86347896,2.495739459991455,-2.8821375370025635,8.652215957641602,8.625691413879395,19.396240234375, 14.210759162902832
324,195082761,0.40903333,0.2009659,-0.2064137,0.86585104,3.3200035095214844,-3.369436502456665,8.663241386413574,10.989091873168945,26.11272430419922, 20.119239807128906
325,195099428,0.4063624,0.19680342,-0.20320973,0.8688177,3.6802852153778076,-3.250044107437134,8.7878999710083,14.122523307800293,33.35364532470703, 25.365474700927734
326,195116095,0.40344435,0.19188407,-0.19930144,0.8721767,3.3553833961486816,-3.021686553955078,8.711448669433594,17.418203353881836,39.86566925048828, 28.50506019592285
327,195132762,0.40054256,0.18613182,-0.19514549,0.8756934,2.69533109664917,-2.433389186859131,8.708230018615723,16.623863220214844,45.81578063964844, 29.330669403076172
328,195149429,0.39798108,0.17892228,-0.19153073,0.8791552,3.5880396366119385,-2.1586596965789795,8.533792495727539,9.073800086975098,53.361778259277344, 30.171558380126953
329,195166096,0.39544347,0.16944377,-0.18748629,0.8830415,4.165215969085693,-2.2571465969085693,8.3259916305542,5.827221393585205,68.87091827392578, 33.34749984741211
330,195182763,0.39297658,0.1572821,-0.18344411,0.8872317,4.839621543884277,-2.2884879112243652,8.6635160446167,-1.144884467124939,85.59436798095703, 37.25680923461914
331,195199430,0.39064947,0.14164063,-0.18045352,0.8914974,7.084125518798828,-2.5323264598846436,9.557132720947266,-16.987716674804688,104.24659729003906, 42.208316802978516
332,195216097,0.38806978,0.12270629,-0.17729619,0.89605296,9.16871166229248,-3.8185319900512695,12.407601356506348,-24.189292907714844,124.91497039794922, 48.52716064453125
333,195232764,0.38378993,0.10087651,-0.17219579,0.90159744,13.313945770263672,-3.546210765838623,11.304182052612305,-17.4396915435791,146.91378784179688, 63.17319107055664
334,195249431,0.37751186,0.07918777,-0.16176382,0.90832084,13.683706283569336,-4.648159027099609,13.014121055603027,18.782787322998047,158.81622314453125, 74.85977935791016
335,195266098,0.36904204,0.056882937,-0.14750226,0.91586864,12.568946838378906,-3.406250476837158,11.628725051879883,43.2483024597168,170.88377380371094, 89.34393310546875
336,195282765,0.35831594,0.03272634,-0.1285637,0.9241267,7.425925254821777,-3.716033697128296,13.693626403808594,69.62659454345703,192.67608642578125, 105.4660415649414
337,195299432,0.34761566,0.008883156,-0.10488137,0.9317105,1.7848782539367676,-4.520752429962158,15.46613883972168,99.96543884277344,202.38177490234375, 102.3196792602539
338,195316099,0.33925545,-0.014985353,-0.07988285,0.9371766,-0.28879985213279724,-0.6259440183639526,13.501935005187988,106.70700073242188,207.24171447753906, 82.19087219238281
339,195332766,0.333613,-0.03800266,-0.053212613,0.94043964,4.4346466064453125,1.160239338874817,6.368106842041016,118.48860931396484,207.3436737060547, 59.231510162353516
340,195349433,0.33058333,-0.058680028,-0.028722333,0.9415129,8.936518669128418,5.025725841522217,-1.164915680885315,109.57951354980469,188.85403442382812, 35.88655090332031
341,195366100,0.32778597,-0.08365593,-0.026034556,0.940681,6.520069599151611,12.236747741699219,4.108945369720459,-41.76223373413086,168.1687469482422, 22.105079650878906
342,195382767,0.32302052,-0.115079425,-0.04259653,0.9384029,-1.2448947429656982,-2.894331455230713,8.478117942810059,-182.5584716796875,167.17140197753906, 21.642311096191406
343,195399434,0.3183166,-0.14212613,-0.049852826,0.935943,-3.7883472442626953,-6.273048400878906,9.793877601623535,-112.7220230102539,159.74453735351562, 26.94154930114746
344,195416101,0.31364274,-0.16540368,-0.049068116,0.9337357,0.39888134598731995,-1.5545097589492798,5.393367290496826,-52.47355651855469,152.7940216064453, 33.88531494140625
345,195432768,0.30811042,-0.18684292,-0.048182692,0.9315772,0.295978307723999,1.1447077989578247,3.6384975910186768,-48.800785064697266,140.90394592285156, 39.006465911865234
346,195449435,0.3019241,-0.20528722,-0.048951477,0.9296788,-3.094520330429077,-1.1522839069366455,4.7576680183410645,-53.84407043457031,117.6932144165039, 40.62129592895508
347,195466102,0.2961535,-0.21963751,-0.050229397,0.9281862,-4.515136241912842,-1.978463053703308,4.300905704498291,-47.86301040649414,89.9906997680664, 36.703147888183594
348,195482769,0.29221085,-0.22967155,-0.05080077,0.92697525,-4.940820693969727,-1.1350362300872803,3.443988800048828,-31.674739837646484,64.01319885253906, 25.180477142333984
349,195499436,0.29014602,-0.23546462,-0.05029106,0.9261979,-5.748299598693848,-0.8589386343955994,4.3075995445251465,-13.134536743164062,39.03657150268555, 14.291502952575684
350,195516103,0.2894012,-0.23740327,-0.049953803,0.9259543,-6.751102924346924,-1.7938950061798096,5.248326301574707,-4.223229885101318,13.64297866821289, 5.313210964202881
351,195532770,0.28953612,-0.236155,-0.050835826,0.92618316,-6.853688716888428,-1.9709970951080322,6.216237545013428,-4.032273292541504,-9.64898681640625, -2.4513797760009766
352,195549437,0.29019544,-0.23290913,-0.05387744,0.9266268,-6.657963752746582,-2.730803966522217,7.148875713348389,-12.869939804077148,-26.93208885192871, -9.58474063873291
353,195566104,0.29131386,-0.22789972,-0.056663547,0.92735493,-6.504639148712158,-3.399076223373413,8.191088676452637,-6.860528469085693,-38.026649475097656, -12.193621635437012
354,195582771,0.2930174,-0.22125842,-0.05731157,0.9283863,-6.1616621017456055,-3.4513235092163086,8.955499649047852,11.106017112731934,-44.46596908569336, -12.604454040527344
355,195599438,0.29519427,-0.21336454,-0.055950493,0.9296267,-6.18814754486084,-3.3017542362213135,9.519340515136719,27.283430099487305,-48.60194396972656, -12.642690658569336
356,195616105,0.29773894,-0.20483597,-0.054391753,0.9308251,-6.042596340179443,-2.3288145065307617,9.59918212890625,30.37970542907715,-52.109100341796875, -15.035409927368164
357,195632772,0.30027974,-0.19642371,-0.05441969,0.93182,-5.800420761108398,-1.779065728187561,9.785017967224121,19.90570831298828,-54.38249588012695, -17.627592086791992
358,195649439,0.30260774,-0.188581,-0.056488197,0.93256366,-5.6112189292907715,-1.9415829181671143,10.150872230529785,5.263081073760986,-54.7385368347168, -19.336894989013672
359,195666106,0.3049174,-0.18093364,-0.059108924,0.93316376,-5.359057903289795,-1.9762754440307617,9.845064163208008,1.2274327278137207,-54.504310607910156, -20.1674861907959
360,195682773,0.3069778,-0.17337415,-0.06179933,0.93374884,-4.362825870513916,-1.6093164682388306,9.248156547546387,0.27400147914886475,-54.21808624267578, -18.659685134887695
361,195699440,0.30866978,-0.16542046,-0.06525273,0.93439895,-3.890040874481201,-0.9173038601875305,9.248506546020508,-4.215470790863037,-58.62642288208008, -17.240468978881836
362,195716107,0.30948323,-0.15765226,-0.07059057,0.93508446,-3.9734280109405518,-1.8226996660232544,9.264479637145996,-17.726818084716797,-61.89519500732422, -13.588920593261719
363,195732774,0.31003103,-0.14925288,-0.07661801,0.9358068,-3.883880615234375,-2.631093740463257,8.829980850219727,-21.09484100341797,-67.62052917480469, -12.861525535583496
364,195749441,0.311214,-0.13974945,-0.08247314,0.9363836,-3.1755237579345703,-1.9870049953460693,8.34506893157959,-17.04451560974121,-73.90853118896484, -17.665315628051758
365,195766108,0.31304297,-0.12970923,-0.08927017,0.9365953,-2.1905479431152344,-1.776890754699707,9.125326156616211,-21.546369552612305,-78.6891860961914, -23.817981719970703
366,195782775,0.3149976,-0.11887539,-0.09855384,0.9364468,-1.683527946472168,-2.593979835510254,11.250749588012695,-35.97090530395508,-88.75834655761719, -28.106273651123047
367,195799442,0.3177324,-0.10635114,-0.111074276,0.93562716,-1.1220264434814453,-2.719555616378784,9.687238693237305,-52.97483825683594,-105.56570434570312, -38.36844253540039
368,195816109,0.32154024,-0.09097191,-0.1219227,0.9345968,1.6528570652008057,-2.45934796333313,9.513758659362793,-35.354270935058594,-119.29623413085938, -46.682373046875
369,195832776,0.3260874,-0.07307849,-0.13054857,0.9334258,2.2635092735290527,-3.711193323135376,11.578015327453613,-15.173649787902832,-129.7667999267578, -52.43479537963867
370,195849443,0.3308128,-0.054776788,-0.14047301,0.9315739,2.171191692352295,-3.713397979736328,12.08555793762207,-23.106840133666992,-134.72434997558594, -56.09388732910156
371,195866110,0.3356838,-0.036573,-0.15272626,0.9287914,3.433891534805298,-2.6255013942718506,9.393586158752441,-39.08797836303711,-138.84616088867188, -59.89933776855469
372,195882777,0.34389505,-0.011463912,-0.15586038,0.9259117,5.3326497077941895,2.7390263080596924,-6.417219638824463,35.822349548339844,-158.29733276367188, -86.38141632080078
373,195899444,0.35603622,0.027579686,-0.14577237,0.9226203,20.575328826904297,4.591658115386963,12.884852409362793,152.83734130859375,-211.4148712158203, -126.23495483398438
374,195916111,0.36260188,0.06156102,-0.14273606,0.91888875,7.194581031799316,-12.248181343078613,20.656835556030273,96.11658477783203,-201.789306640625, -85.34479522705078
375,195932778,0.37141722,0.0890414,-0.1460249,0.91257757,10.605249404907227,2.9305145740509033,16.36395835876465,36.60723876953125,-175.2870330810547, -96.95408630371094
376,195949445,0.37709588,0.111058965,-0.1515666,0.9069136,17.911386489868164,-3.1365230083465576,12.803567886352539,10.945719718933105,-149.37904357910156, -68.6568603515625
377,195966112,0.38239884,0.12524782,-0.16893137,0.89974797,15.736756324768066,-5.73252010345459,14.230474472045898,-84.35490417480469,-132.46258544921875, -52.93797302246094
378,195982779,0.38780504,0.13201499,-0.1888175,0.89248395,8.29841423034668,-4.0582804679870605,8.04813003540039,-119.61995697021484,-92.9367904663086, -42.977256774902344
379,195999446,0.39391145,0.14176892,-0.20820685,0.88395995,2.1855053901672363,-3.960578441619873,4.07414436340332,-110.84110260009766,-110.10139465332031, -54.91365051269531
380,196016113,0.3983464,0.15256782,-0.2199926,0.8772949,0.33161473274230957,-2.4708685874938965,3.8237757682800293,-57.08592987060547,-96.7510757446289, -47.66977310180664
381,196032780,0.40208325,0.16233648,-0.22761153,0.87187684,0.11173975467681885,-1.5667085647583008,6.388248920440674,-32.166316986083984,-78.87789916992188, -43.04172134399414
382,196049447,0.40517423,0.17156368,-0.23146279,0.8676548,-1.3953527212142944,-2.200985908508301,8.076884269714355,-8.528731346130371,-64.93213653564453, -39.37009048461914
383,196066114,0.40776518,0.18044202,-0.23213595,0.8644543,-1.187756896018982,-1.1815831661224365,7.746992111206055,11.623741149902344,-53.67218017578125, -36.90519332885742
384,196082781,0.4100753,0.18873432,-0.23098318,0.86189586,0.20608799159526825,-2.1208853721618652,8.259078025817871,22.132295608520508,-44.796897888183594, -34.9244499206543
385,196099448,0.4119682,0.19630261,-0.22917819,0.859782,2.2363038063049316,-3.1540050506591797,8.891080856323242,25.18000030517578,-38.834259033203125, -30.97806739807129
386,196116115,0.41344297,0.20235728,-0.22815295,0.857941,3.6606388092041016,-3.482363224029541,10.007004737854004,17.227251052856445,-32.41543197631836, -24.456531524658203
387,196132782,0.4147487,0.20683981,-0.2284466,0.8561619,3.4970362186431885,-3.3755860328674316,10.669063568115234,5.232496738433838,-27.078020095825195, -19.18585777282715
388,196149449,0.41564354,0.21030822,-0.22954127,0.8545888,2.5463595390319824,-3.0433874130249023,10.058505058288574,-1.4868338108062744,-23.801189422607422, -13.53182601928711
389,196166116,0.41586322,0.21312106,-0.23078705,0.8534487,1.6527639627456665,-3.171830654144287,9.5762300491333,-2.642005681991577,-20.87250518798828, -7.211921691894531
390,196182783,0.41549653,0.2155606,-0.23135912,0.85285944,1.3366295099258423,-3.4407401084899902,8.771990776062012,2.006456136703491,-16.98044204711914, -2.597642660140991
391,196199450,0.41444588,0.21766043,-0.23161349,0.8527685,1.1994585990905762,-3.7001476287841797,8.871872901916504,4.728575706481934,-14.52005672454834, 2.868938684463501
392,196216117,0.4131397,0.21909748,-0.23203631,0.85291916,1.3738057613372803,-3.043330669403076,9.055797576904297,2.643673896789551,-11.250179290771484, 6.318304538726807
393,196232784,0.41189915,0.2198248,-0.23204185,0.85333043,1.0932691097259521,-2.5881845951080322,9.623343467712402,3.4143850803375244,-5.5001749992370605, 7.160013198852539
394,196249451,0.41095656,0.22016816,-0.23046651,0.854123,1.4614900350570679,-1.956419587135315,9.412614822387695,11.793854713439941,2.1649980545043945, 4.738396644592285
395,196266118,0.4102991,0.21992524,-0.22772776,0.8552354,1.8744115829467773,-2.4911882877349854,9.939199447631836,17.031105041503906,9.743834495544434, 3.105268716812134
396,196282785,0.4097678,0.21889265,-0.22476879,0.8565368,2.159048557281494,-2.8064470291137695,9.906436920166016,16.185287475585938,15.412014961242676, 3.745652675628662
397,196299452,0.40884817,0.21693406,-0.22187923,0.8582265,2.723850727081299,-3.4928505420684814,9.763940811157227,14.403190612792969,20.552316665649414, 8.713135719299316
398,196316119,0.4074614,0.2137605,-0.21988231,0.86019397,2.397254467010498,-3.7156012058258057,9.69300651550293,6.853895664215088,24.850162506103516, 15.395039558410645
399,196332786,0.40543061,0.20935018,-0.21817403,0.8626696,2.01314115524292,-3.1348092555999756,9.378179550170898,3.3857667446136475,31.075916290283203, 22.830093383789062
400,196349453,0.40310928,0.20311971,-0.21665359,0.8656249,0.8267688751220703,-3.3149399757385254,9.029600143432617,-1.5974271297454834,41.50782012939453, 28.96100616455078
401,196366120,0.40071073,0.19513114,-0.21446466,0.8691143,-0.12331832200288773,-3.1182971000671387,8.13140869140625,-1.56027090549469,54.36611557006836, 32.57504653930664
402,196382787,0.39818057,0.18519136,-0.2112488,0.87322986,0.5823895335197449,-3.248643636703491,8.137303352355957,0.37399834394454956,69.3842544555664, 36.66750717163086
403,196399454,0.39531642,0.17324825,-0.20656079,0.8780904,2.4736852645874023,-3.767718553543091,8.649168014526367,5.309600353240967,85.80193328857422, 41.84788131713867
404,196416121,0.39218,0.1585162,-0.20170692,0.8833923,5.063640594482422,-3.478337526321411,9.111357688903809,-0.24205109477043152,103.1548080444336, 48.57585525512695
405,196432788,0.3887815,0.14068191,-0.19765112,0.88881475,7.425105571746826,-3.7238595485687256,10.130644798278809,-12.976326942443848,119.60697174072266, 55.731239318847656
406,196449455,0.38508305,0.119904466,-0.19332735,0.89440423,10.096010208129883,-3.1235761642456055,10.827604293823242,-18.666196823120117,138.0910186767578, 61.8521842956543
407,196466122,0.38038936,0.097869724,-0.1844977,0.9009363,11.090676307678223,-5.021638870239258,11.932404518127441,7.582870960235596,157.48602294921875, 67.88550567626953
408,196482789,0.37366098,0.07627573,-0.16770296,0.9090848,12.46384334564209,-4.954653263092041,10.80718994140625,61.524314880371094,174.23171997070312, 78.83097076416016
409,196499456,0.36491317,0.051851183,-0.14539406,0.91815597,11.117608070373535,-3.675682783126831,11.321133613586426,90.88088989257812,204.4381561279297, 94.24781799316406
410,196516123,0.35319734,0.023674026,-0.11989153,0.92753285,6.95951509475708,-4.141627311706543,12.115448951721191,103.01036834716797,233.4658966064453, 116.42064666748047
411,196532790,0.34172675,-0.0062277783,-0.08867448,0.9355858,4.862947940826416,-3.3023762702941895,14.11400032043457,134.17564392089844,258.4457702636719, 112.1634750366211
412,196549457,0.3330062,-0.033419978,-0.05295013,0.94084346,4.564615249633789,0.3514021039009094,9.091094017028809,167.97198486328125,253.47171020507812, 86.45713806152344
413,196566124,0.3297836,-0.05267172,-0.019237503,0.94238985,15.68224811553955,8.694735527038574,-2.2789697647094727,173.0017547607422,200.40585327148438, 39.03684997558594
414,196582791,0.3271488,-0.07575476,-0.014861026,0.94181436,14.839360237121582,17.462385177612305,0.2590513825416565,-26.043556213378906,159.83636474609375, 20.307815551757812
415,196599458,0.32200882,-0.10454191,-0.036283582,0.94024724,4.294153213500977,0.27921509742736816,5.98624324798584,-207.71775817871094,139.3104248046875, 21.461151123046875
416,196616125,0.3186362,-0.122468784,-0.04352498,0.93892384,-2.0342087745666504,-6.135587692260742,9.941027641296387,-90.64094543457031,100.83653259277344, 18.085533142089844
417,196632792,0.3182262,-0.12974194,-0.03563439,0.9384185,-0.8307915925979614,-3.36251163482666,8.431849479675293,33.221092224121094,65.39592742919922, 10.31447982788086
418,196649459,0.31944826,-0.13328667,-0.021843007,0.93792886,-0.49894407391548157,-0.8416702747344971,7.60276460647583,80.95323944091797,54.65055847167969, 4.158598899841309
419,196666126,0.32019815,-0.13789973,-0.012938903,0.937171,-4.1935133934021,-0.8026902079582214,10.102351188659668,46.613372802734375,50.99680709838867, 2.27942156791687
420,196682793,0.3192558,-0.14501923,-0.011162827,0.9364404,-6.347516059875488,-3.084644079208374,11.036592483520508,-6.440733432769775,51.237510681152344, 6.695012092590332
421,196699460,0.3167538,-0.15448235,-0.014695505,0.9357277,-5.338331699371338,-2.317512035369873,10.197216033935547,-47.28117752075195,54.464698791503906, 11.664517402648926
422,196716127,0.31332803,-0.1651759,-0.022498533,0.9348991,-5.09196662902832,-1.4618926048278809,9.006234169006348,-78.40476989746094,53.05830764770508, 12.951985359191895
423,196732794,0.31018573,-0.17408855,-0.030076712,0.9341163,-6.165892124176025,-2.492398262023926,8.799337387084961,-72.78592681884766,42.03528594970703, 11.213991165161133
424,196749461,0.30801004,-0.18004908,-0.034994137,0.9335351,-6.974704742431641,-2.9171478748321533,8.73674488067627,-48.179283142089844,28.639822006225586, 8.01237678527832
425,196766128,0.30694878,-0.18350919,-0.037759345,0.9331029,-7.135611534118652,-2.0486154556274414,8.279383659362793,-27.62776756286621,17.152719497680664, 3.2349026203155518
426,196782795,0.30627358,-0.18681033,-0.041656706,0.9325037,-6.733506679534912,-1.390517234802246,8.19964599609375,-34.10143280029297,13.971696853637695, -1.0735357999801636
427,196799462,0.30509007,-0.19125067,-0.04724732,0.9317247,-6.810235500335693,-2.0025501251220703,8.247138977050781,-48.06319808959961,17.720903396606445, -0.053313326090574265
428,196816129,0.30340865,-0.19647849,-0.052414022,0.93090945,-6.743874549865723,-2.657325506210327,7.91395378112793,-47.659423828125,23.467815399169922, 3.862785816192627
429,196832796,0.30199713,-0.20068549,-0.05435524,0.9303594,-6.6986985206604,-2.7097256183624268,6.868980407714844,-24.40812110900879,23.331153869628906, 6.667820930480957
430,196849463,0.30123183,-0.2023873,-0.052354533,0.93035364,-6.42099666595459,-2.101095199584961,6.164665699005127,7.124083995819092,14.908343315124512, 8.155534744262695
431,196866130,0.30130532,-0.20098138,-0.047887392,0.9308751,-6.295014381408691,-1.732974648475647,5.895513534545898,30.706716537475586,-0.3657761812210083, 6.1817169189453125
432,196882797,0.30229685,-0.19673876,-0.042971212,0.9316996,-6.2953104972839355,-0.826335072517395,6.532805442810059,40.83335494995117,-17.77801513671875, 0.6081842184066772
433,196899464,0.3039342,-0.19151554,-0.040670864,0.93235815,-6.064507961273193,0.4781215488910675,7.267381191253662,26.930580139160156,-29.148300170898438, -7.7154860496521
434,196916131,0.305753,-0.1871185,-0.042603914,0.93257004,-5.9691925048828125,0.4103989005088806,8.284554481506348,-1.8514350652694702,-32.119354248046875, -15.173518180847168
435,196932798,0.307484,-0.18398644,-0.047755208,0.9323745,-5.91934061050415,-0.5872913002967834,8.878588676452637,-25.410919189453125,-30.328144073486328, -19.254261016845703
436,196949465,0.3091493,-0.18152224,-0.053211424,0.9320113,-5.838151931762695,-1.9237661361694336,8.672614097595215,-28.934263229370117,-26.549575805664062, -19.36783790588379
437,196966132,0.31095013,-0.17870156,-0.056342706,0.93177336,-5.319995403289795,-2.685967206954956,8.373302459716797,-13.059708595275879,-24.046815872192383, -17.209043502807617
438,196982799,0.3130984,-0.17473376,-0.05626209,0.9318112,-5.22187614440918,-3.4549272060394287,8.27253532409668,10.51938247680664,-24.775310516357422, -15.347320556640625
439,196999466,0.31551975,-0.16919498,-0.052892815,0.9322139,-5.511598110198975,-3.964167356491089,9.043391227722168,35.4686164855957,-28.134231567382812, -12.967259407043457
440,197016133,0.31809977,-0.16222557,-0.047608905,0.93286055,-5.59903621673584,-3.2740797996520996,10.039073944091797,51.15241241455078,-33.42007064819336, -11.74355697631836
441,197032800,0.32039833,-0.15483485,-0.043063305,0.93355066,-5.235237121582031,-2.142073631286621,10.394851684570312,47.06035614013672,-37.919246673583984, -10.80136489868164
442,197049467,0.32198593,-0.14846116,-0.04175396,0.9340991,-4.492556095123291,-1.3612862825393677,10.439778327941895,23.25265884399414,-38.61566162109375, -9.693340301513672
443,197066134,0.32245514,-0.1438895,-0.044389118,0.93453103,-4.151764392852783,-1.5632339715957642,10.510009765625,-7.252438545227051,-36.0014533996582, -6.280123233795166
444,197082801,0.3221242,-0.13972372,-0.048690185,0.93506294,-3.9555749893188477,-2.2537832260131836,10.022390365600586,-19.62209129333496,-37.44929122924805, -2.4464762210845947
445,197099468,0.32185662,-0.13417973,-0.05480846,0.9356283,-2.6571037769317627,-1.6547601222991943,8.295389175415039,-28.173431396484375,-50.36439514160156, -4.992434978485107
446,197116135,0.3232221,-0.12548801,-0.060419556,0.93601805,-1.8652843236923218,-1.3264843225479126,8.2632474899292,-16.50300407409668,-68.71996307373047, -16.607685089111328
447,197132802,0.32556352,-0.11489908,-0.06820362,0.9360316,-1.3311104774475098,-1.9899852275848389,11.145740509033203,-25.58871841430664,-85.0252456665039, -26.388986587524414
448,197149469,0.3279218,-0.10272667,-0.07893206,0.9357801,0.5783660411834717,-3.0881283283233643,13.338104248046875,-41.1077995300293,-101.57139587402344, -30.158987045288086
449,197166136,0.3301308,-0.089164525,-0.093440615,0.93505746,1.419509768486023,-3.2569727897644043,12.715231895446777,-62.653968811035156,-118.73370361328125, -33.678836822509766
450,197182803,0.34417266,-0.052266646,-0.09000082,0.9331203,6.157462120056152,16.75257682800293,-39.8492546081543,112.21728515625,-219.66580200195312, -116.50432586669922
451,197199470,0.35781193,-0.01053098,-0.094465815,0.9289435,40.34874725341797,6.817749500274658,26.87811279296875,71.2999038696289,-268.8362121582031, -125.02188873291016
452,197216137,0.36262977,0.03358599,-0.09588182,0.9263793,5.778629779815674,-16.71129035949707,33.333587646484375,96.84275817871094,-281.71929931640625, -65.83920288085938
453,197232804,0.3708547,0.058044463,-0.11743886,0.9194051,15.065357208251953,1.2051489353179932,19.83029556274414,-84.01799774169922,-205.40135192871094, -80.93509674072266
454,197249471,0.37439966,0.08368749,-0.1277684,0.91460186,21.964712142944336,0.051924657076597214,19.79393196105957,-6.462376594543457,-186.97418212890625, -51.16956329345703
455,197266138,0.3774316,0.09577326,-0.15626724,0.9077189,18.584550857543945,-2.6564650535583496,17.199359893798828,-157.22579956054688,-149.87069702148438, -30.828989028930664
456,197282805,0.38195893,0.10655053,-0.17387559,0.90139997,4.573160171508789,-2.0671353340148926,4.749813556671143,-93.0264663696289,-111.25328826904297, -44.36709213256836
457,197299472,0.38690427,0.11976869,-0.18983382,0.8943846,-0.08576811850070953,-6.563553810119629,-2.234182119369507,-77.51290893554688,-122.03519439697266, -52.8780517578125
458,197316139,0.38981876,0.13252518,-0.20071611,0.88892716,-1.9069015979766846,-6.889089584350586,1.5861494541168213,-43.7168083190918,-107.06072998046875, -39.848854064941406
459,197332806,0.3924527,0.14370474,-0.21049473,0.88375443,-1.7238836288452148,-3.913625955581665,5.5852484703063965,-40.016658782958984,-94.96903228759766, -35.11262130737305
460,197349473,0.3946412,0.15317537,-0.21914579,0.879074,-2.6313936710357666,-3.1924870014190674,8.720207214355469,-36.60328674316406,-81.74994659423828, -29.8735294342041
461,197366140,0.39675665,0.16129218,-0.22522484,0.8751246,-2.5742599964141846,-0.7700204253196716,8.827986717224121,-23.549158096313477,-66.02171325683594, -28.234392166137695
462,197382807,0.39895687,0.1687892,-0.22653715,0.87236726,-0.6318228840827942,-0.7547183036804199,10.236849784851074,5.131734848022461,-47.908992767333984, -29.964252471923828
463,197399474,0.4013524,0.17561607,-0.22469558,0.8703948,1.0466663837432861,-1.4771016836166382,11.20569133758545,23.17127799987793,-34.099700927734375, -31.652128219604492
464,197416141,0.40375495,0.18082786,-0.2229307,0.8686686,1.5835938453674316,-3.46516489982605,10.77388858795166,18.560321807861328,-24.379274368286133, -28.5449275970459
465,197432808,0.4059669,0.18430643,-0.2224316,0.86703295,1.6700644493103027,-4.632074356079102,9.621721267700195,6.517510414123535,-17.75324058532715, -23.065446853637695
466,197449475,0.40746212,0.18676098,-0.22268403,0.8657407,0.8367361426353455,-5.019618034362793,9.188562393188477,0.5891249775886536,-14.436620712280273, -15.451998710632324
467,197466142,0.40831345,0.18850781,-0.22331321,0.8647984,0.5183939337730408,-4.186890602111816,9.191143035888672,-2.229830741882324,-11.885942459106445, -9.098215103149414
468,197482809,0.40871748,0.18974984,-0.22373623,0.8642265,0.13874021172523499,-3.653444766998291,9.610334396362305,-1.2976295948028564,-8.557705879211426, -5.018016815185547
469,197499476,0.40896454,0.19031014,-0.22362602,0.86401474,-0.32427874207496643,-2.802391290664673,9.580728530883789,0.715458869934082,-2.8518080711364746, -2.778017997741699
470,197516143,0.40923655,0.19039196,-0.22268517,0.86411095,-0.6468653678894043,-2.5128748416900635,9.5567626953125,4.717545986175537,2.6999950408935547, -2.4967262744903564
471,197532810,0.40949485,0.1902192,-0.22085507,0.8644962,0.1276918351650238,-2.6990370750427246,9.423083305358887,9.756209373474121,6.980085372924805, -2.3813931941986084
472,197549477,0.4095822,0.18985286,-0.21796705,0.86526805,1.4202338457107544,-3.0772130489349365,9.277412414550781,16.299375534057617,11.28848648071289, -1.4138613939285278
473,197566144,0.40944222,0.18886653,-0.21456137,0.8664006,2.382540464401245,-3.3411519527435303,9.510758399963379,18.457901000976562,16.52132225036621, 1.1508642435073853
474,197582811,0.40887845,0.18694974,-0.2112271,0.86790055,2.9104952812194824,-3.344806671142578,9.590779304504395,16.527629852294922,21.66734504699707, 6.178778648376465
475,197599478,0.40796286,0.18391792,-0.20798095,0.86976117,2.6051888465881348,-3.482766628265381,9.722563743591309,13.86564826965332,27.986305236816406, 11.033768653869629
476,197616145,0.40690908,0.17954625,-0.20488617,0.8719003,1.1905937194824219,-2.7810442447662354,9.98801040649414,9.79465103149414,35.686248779296875, 14.749865531921387
477,197632812,0.4057832,0.1736482,-0.20176013,0.8743452,0.9244751930236816,-2.6945607662200928,9.614614486694336,6.241143703460693,45.1383056640625, 18.15135383605957
478,197649479,0.4042155,0.16650316,-0.19766344,0.8773915,0.44113582372665405,-3.204178810119629,8.824908256530762,9.975334167480469,55.38420104980469, 23.077743530273438
479,197666146,0.40217853,0.15805893,-0.19235398,0.881062,0.4905138909816742,-3.1657938957214355,8.62292766571045,15.118268966674805,66.59149169921875, 28.104141235351562
480,197682813,0.40006292,0.14740622,-0.18733005,0.88494563,1.6592931747436523,-2.710205554962158,9.205416679382324,7.715635299682617,79.2251968383789, 32.5348014831543
481,197699480,0.39755645,0.1335193,-0.18337752,0.8890975,4.419425964355469,-2.6175734996795654,9.732645988464355,-6.944766044616699,95.67704010009766, 40.95879364013672
482,197716147,0.39392862,0.11601723,-0.18009268,0.8938271,7.269328594207764,-3.0423738956451416,10.076847076416016,-19.402496337890625,115.22850036621094, 53.93256378173828
483,197732814,0.38896573,0.09539433,-0.17539406,0.8993568,10.564233779907227,-3.558704137802124,11.722163200378418,-17.11028480529785,137.2760467529297, 67.05066680908203
484,197749481,0.38234606,0.07151709,-0.16375092,0.90657747,11.502442359924316,-5.464236259460449,11.967058181762695,20.257835388183594,175.18734741210938, 81.21455383300781
485,197766148,0.3730123,0.045340974,-0.14409038,0.9154474,12.063790321350098,-5.608842849731445,11.111419677734375,67.41516876220703,208.48141479492188, 101.14826202392578
486,197782815,0.36111507,0.017073316,-0.11780762,0.92489237,8.825250625610352,-2.895063638687134,11.624441146850586,105.14983367919922,236.4295196533203, 118.80941772460938
487,197799482,0.34819865,-0.016165428,-0.089121975,0.9330348,6.7968573570251465,-4.2581562995910645,12.397174835205078,107.1611099243164,273.1583251953125, 125.84281921386719
488,197816149,0.33660778,-0.048204146,-0.05273838,0.93893045,5.310917377471924,-3.1949100494384766,12.869512557983398,158.23904418945312,285.05621337890625, 112.10380554199219
489,197832816,0.33184072,-0.0736215,-0.017654285,0.9402926,10.132231712341309,7.315804481506348,2.3566243648529053,165.79359436035156,243.31800842285156, 54.715858459472656
490,197849483,0.3310813,-0.09752019,-0.01303399,0.9384591,19.878925323486328,21.217180252075195,-5.532419204711914,-26.209672927856445,166.19129943847656, 5.906718730926514
491,197866150,0.32489485,-0.12902412,-0.041658007,0.93598115,5.276609420776367,8.233806610107422,3.7444069385528564,-262.0924072265625,139.8332977294922, 17.868560791015625
492,197882817,0.32000163,-0.15285811,-0.056121193,0.93331885,-1.1413782835006714,-9.010139465332031,8.715726852416992,-152.7958221435547,122.69388580322266, 19.515914916992188
493,197899484,0.3178278,-0.16658589,-0.0533478,0.9318738,0.3969322741031647,-2.6900620460510254,6.818718910217285,-16.503507614135742,95.53368377685547, 18.980989456176758
494,197916151,0.31752938,-0.17490166,-0.049153723,0.93068177,-0.21361437439918518,-0.8558348417282104,4.654829502105713,6.685288906097412,64.38695526123047, 7.163882255554199
495,197932818,0.3174637,-0.17862244,-0.045981437,0.9301595,-4.286102771759033,-3.0433239936828613,5.694216728210449,10.684527397155762,32.03762435913086, 4.352479457855225
496,197949485,0.31800652,-0.17636387,-0.03974595,0.9306923,-5.510403633117676,-2.87565279006958,7.249518871307373,44.43362808227539,-0.6572006940841675, 4.627894401550293
497,197966152,0.31886318,-0.17110825,-0.03146386,0.9316966,-5.089479446411133,-2.6424074172973633,8.736828804016113,64.61422729492188,-15.893643379211426, 5.300650119781494
498,197982819,0.32020423,-0.16596298,-0.024098681,0.9323867,-5.577610969543457,-1.8036011457443237,10.622892379760742,59.016502380371094,-16.757841110229492, 0.44257405400276184
499,197999486,0.3209778,-0.1633836,-0.021705382,0.932635,-6.56041145324707,-1.5607725381851196,12.294510841369629,20.776145935058594,-10.880001068115234, -2.1496267318725586
500,198016153,0.32099864,-0.16409037,-0.024973124,0.932422,-7.47456693649292,-2.625974416732788,12.68533706665039,-23.693206787109375,-1.9384626150131226, -4.216127872467041
501,198032820,0.3205971,-0.16743542,-0.032822035,0.931722,-7.512610912322998,-2.8408989906311035,11.68388843536377,-59.43531036376953,5.2876362800598145, -7.299212455749512
502,198049487,0.3197706,-0.17232801,-0.043282434,0.9306861,-7.324332237243652,-2.8829784393310547,10.957648277282715,-80.12859344482422,9.677874565124512, -7.974148750305176
503,198066154,0.3187506,-0.17687304,-0.052969445,0.9296819,-7.452882289886475,-3.7215933799743652,10.205530166625977,-74.62318420410156,9.002640724182129, -5.855231285095215
504,198082821,0.31809098,-0.17900692,-0.05788352,0.9292064,-6.999274730682373,-4.376765251159668,9.19820499420166,-38.177284240722656,3.479804039001465, -2.078596591949463
505,198099488,0.31806988,-0.17838526,-0.057090856,0.9293821,-6.638861179351807,-4.0414628982543945,9.036484718322754,5.3831305503845215,-2.2462854385375977, 1.1881157159805298
506,198116155,0.31849402,-0.17633891,-0.053393207,0.92984706,-6.302694320678711,-3.4918928146362305,9.279119491577148,27.746789932250977,-5.227194309234619, 1.9719716310501099
507,198132822,0.318919,-0.17433724,-0.04981366,0.9302773,-6.139907360076904,-2.978602170944214,9.430790901184082,26.90066146850586,-5.202516078948975, 1.7575223445892334
508,198149489,0.31911615,-0.17299682,-0.047676142,0.9305719,-5.774273872375488,-2.478317975997925,9.289875030517578,15.9203519821167,-4.092452526092529, 1.408693552017212
509,198166156,0.31904724,-0.17220001,-0.04700509,0.93077755,-5.559867858886719,-2.4698598384857178,8.88759708404541,5.006713390350342,-3.851062297821045, 1.3428804874420166
510,198182823,0.3189826,-0.1711138,-0.0464995,0.9310254,-5.598302841186523,-2.857487678527832,8.79374885559082,4.609562873840332,-6.1506218910217285, 1.1133137941360474
511,198199490,0.31907046,-0.16908379,-0.04515047,0.9314323,-5.689863681793213,-2.5954222679138184,8.800774574279785,12.322376251220703,-10.517531394958496, 1.1719293594360352
512,198216157,0.31931713,-0.16620317,-0.0444682,0.9318991,-5.607529163360596,-1.4950807094573975,8.572029113769531,10.132122039794922,-17.485544204711914, -0.7585339546203613
513,198232824,0.31952035,-0.16299365,-0.045579948,0.93234247,-5.524510383605957,-1.322877287864685,8.871068000793457,-0.699420154094696,-23.5566463470459, -2.6893129348754883
514,198249491,0.31972292,-0.16005924,-0.048431568,0.9326376,-5.942677974700928,-1.5285651683807373,9.422079086303711,-12.509035110473633,-25.48567008972168, -4.882344722747803
515,198266158,0.31981087,-0.15784624,-0.05221259,0.9327806,-5.644564628601074,-1.8889611959457397,9.842284202575684,-20.23494529724121,-22.813989639282227, -5.274031162261963
516,198282825,0.31992313,-0.15631372,-0.05576353,0.93279463,-5.809248924255371,-2.6692981719970703,9.647730827331543,-20.276500701904297,-17.830148696899414, -5.228308200836182
517,198299492,0.32034028,-0.15441367,-0.058247074,0.93281627,-5.188384532928467,-1.5204743146896362,8.982060432434082,-12.283065795898438,-17.768497467041016, -6.169098854064941
518,198316159,0.32000324,-0.15298103,-0.06255807,0.9328888,-4.665892124176025,-1.1133520603179932,8.687868118286133,-25.817617416381836,-19.184494018554688, -2.9822895526885986
519,198332826,0.31901884,-0.15147236,-0.06706657,0.9331587,-4.912281513214111,-2.842320680618286,8.749802589416504,-27.52293586730957,-20.620229721069336, 1.3542066812515259
520,198349493,0.31835535,-0.14870082,-0.069348045,0.9336642,-5.44753360748291,-3.7032928466796875,9.26699161529541,-10.011706352233887,-23.964859008789062, 1.5410747528076172
521,198366160,0.31843454,-0.14447723,-0.06993467,0.9342564,-4.828728199005127,-3.277536630630493,9.168718338012695,4.865614891052246,-29.34617042541504, -2.0023045539855957
522,198382827,0.31941703,-0.13824508,-0.06940822,0.9349032,-3.3506357669830322,-2.0859932899475098,7.333390235900879,17.350217819213867,-39.45981979370117, -7.548446178436279
523,198399494,0.3211155,-0.12952109,-0.06898175,0.9356019,-1.37408447265625,0.08749799430370331,7.383427619934082,22.890609741210938,-55.42176055908203, -13.32181453704834
524,198416161,0.3232907,-0.11742215,-0.07143979,0.9362647,-1.2299182415008545,0.6277658343315125,8.079833984375,12.173263549804688,-83.23750305175781, -20.635454177856445
525,198432828,0.32576334,-0.102393754,-0.08017647,0.9364643,-0.09505710005760193,-0.20018745958805084,8.215872764587402,-21.749216079711914,-115.52733612060547, -30.088104248046875
526,198449495,0.32876456,-0.08555329,-0.09372626,0.9358473,2.212293863296509,-0.22128577530384064,6.310813903808594,-48.77952194213867,-137.09353637695312, -39.70835494995117
527,198466162,0.33292675,-0.068084136,-0.11036743,0.9339933,3.3408360481262207,-1.1170655488967896,7.920923233032227,-67.37980651855469,-146.6123809814453, -52.194252014160156
528,198482829,0.3405698,-0.042251915,-0.11904335,0.9316951,0.4074026942253113,2.517947196960449,-20.022729873657227,4.203962802886963,-179.19093322753906, -78.17217254638672
529,198499496,0.36024016,0.015128106,-0.0971846,0.92766017,40.28553771972656,17.907154083251953,4.125754356384277,275.97552490234375,-299.6167297363281, -176.33151245117188
530,198516163,0.35858187,0.052843843,-0.11325367,0.9250947,4.5954132080078125,-23.645387649536133,32.922760009765625,-11.855751991271973,-281.6068115234375, -19.29125213623047
531,198532830,0.36781472,0.08333483,-0.11997418,0.918354,17.5390567779541,4.792056083679199,22.44106674194336,22.801612854003906,-205.59812927246094, -96.6942138671875
532,198549497,0.37440482,0.10788631,-0.13013405,0.91172737,28.60115623474121,5.025167942047119,23.422414779663086,-12.434825897216797,-178.7444305419922, -72.77169799804688
533,198566164,0.37948385,0.1253008,-0.14802527,0.9046438,24.268518447875977,-4.5125627517700195,16.567007064819336,-78.66983032226562,-155.3372039794922, -52.247642517089844
534,198582831,0.3832504,0.13577977,-0.16455747,0.89866793,16.532079696655273,-3.4971747398376465,10.345736503601074,-86.03795623779297,-108.81494903564453, -35.2463493347168
535,198599498,0.38832343,0.14233242,-0.18881032,0.8906723,2.1791868209838867,-7.58034610748291,6.273868560791016,-147.5901641845703,-105.18341064453125, -36.9372673034668
536,198616165,0.39468038,0.15142877,-0.20728159,0.8822307,-4.165713787078857,-3.3694651126861572,2.9279160499572754,-106.15076446533203,-104.66866302490234, -52.77096176147461
537,198632832,0.39808363,0.15849961,-0.21926004,0.87654585,-8.246997833251953,-4.669363975524902,2.519531011581421,-65.41156005859375,-76.07526397705078, -31.799291610717773
538,198649499,0.3993786,0.16283305,-0.22915319,0.8726231,-9.385150909423828,-5.052648544311523,4.213117599487305,-55.54129409790039,-55.13112258911133, -12.933151245117188
539,198666166,0.4000918,0.16909301,-0.23470348,0.8696255,-5.783586025238037,-0.5524473786354065,1.5674461126327515,-22.17426872253418,-54.70342254638672, -15.14250373840332
540,198682833,0.40064093,0.17651066,-0.23777407,0.86706084,-1.941769003868103,-2.0367188453674316,8.556665420532227,-3.3010149002075195,-54.616455078125, -17.833532333374023
541,198699500,0.40160742,0.18403338,-0.23697466,0.8652667,1.2127022743225098,0.03549402952194214,12.069392204284668,20.79384422302246,-43.02251052856445, -23.139957427978516
542,198716167,0.40323734,0.19010967,-0.23534247,0.8636388,2.774186372756958,-0.7423877716064453,12.167309761047363,21.11307716369629,-30.862449645996094, -25.402484893798828
543,198732834,0.40492553,0.19507885,-0.2321512,0.862604,3.112375020980835,-2.7337074279785156,12.597760200500488,28.096323013305664,-19.109878540039062, -24.458585739135742
544,198749501,0.4067718,0.19863066,-0.22970083,0.8615801,2.8780674934387207,-4.2075982093811035,11.53354549407959,19.4779109954834,-12.511451721191406, -22.24417495727539
545,198766168,0.40806806,0.20100318,-0.22843134,0.860754,2.2397334575653076,-4.780874252319336,10.285651206970215,10.241055488586426,-9.463010787963867, -15.008256912231445
546,198782835,0.40860885,0.20192564,-0.22846231,0.8602733,0.8390910625457764,-4.498470306396484,9.139376640319824,0.07468023896217346,-5.280430316925049, -5.534444332122803
547,198799502,0.40849918,0.20169441,-0.22899161,0.8602388,-0.6362640857696533,-4.263349533081055,9.21342945098877,-4.622311592102051,-0.2574332356452942, 1.8383961915969849
548,198816169,0.40806207,0.20089935,-0.22903444,0.8606209,-1.3941742181777954,-3.6695191860198975,9.22298526763916,-2.1671931743621826,4.425215244293213, 5.179817199707031
549,198832836,0.40780678,0.19993538,-0.2281382,0.86120415,-0.9374390244483948,-2.8408610820770264,9.18026351928711,3.0381600856781006,8.531139373779297, 3.6790544986724854
550,198849503,0.4077327,0.19867346,-0.22609675,0.86206913,0.14365491271018982,-3.240579605102539,9.012005805969238,9.120800018310547,14.134618759155273, 2.1775617599487305
551,198866170,0.40771553,0.19664322,-0.22348902,0.863222,1.3299953937530518,-3.7250163555145264,9.195989608764648,10.724807739257812,20.693391799926758, 3.086893320083618
552,198882837,0.40763867,0.19360894,-0.22024892,0.8647756,2.5021896362304688,-3.5057151317596436,9.63967227935791,12.392027854919434,28.823814392089844, 5.2691216468811035
553,198899504,0.4077793,0.18865101,-0.21755876,0.8664843,2.982913017272949,-3.2476954460144043,10.313092231750488,3.6313059329986572,39.24385452270508, 7.959697723388672
554,198916171,0.40779173,0.18207422,-0.21537063,0.86842996,2.8371899127960205,-2.972496747970581,9.910842895507812,-3.3836965560913086,47.56896209716797, 12.435307502746582
555,198932838,0.40759066,0.17422774,-0.21348144,0.8705976,1.4019370079040527,-3.378903865814209,9.124349594116211,-8.136261940002441,54.24745178222656, 16.5712947845459
556,198949505,0.40724027,0.16486722,-0.21166602,0.8730245,0.3298787474632263,-3.293837070465088,8.237839698791504,-12.194581985473633,63.1307373046875, 20.59766387939453
557,198966172,0.40629408,0.15385088,-0.20950712,0.87599206,1.2616206407546997,-3.1679813861846924,7.731349945068359,-13.33511734008789,73.7525405883789, 27.63182830810547
558,198982839,0.40444547,0.14125703,-0.20617872,0.8797505,3.1482725143432617,-2.9567532539367676,8.445119857788086,-8.50800895690918,85.98246002197266, 36.48822021484375
559,198999506,0.4019033,0.12652794,-0.20249432,0.8840026,5.51824951171875,-2.889291763305664,9.664255142211914,-10.888443946838379,99.35315704345703, 44.82246780395508
560,199016173,0.3984508,0.10967002,-0.19902615,0.8885935,7.627501487731934,-3.590772867202759,10.661733627319336,-16.78507423400879,110.6976089477539, 54.58448028564453
561,199032840,0.39325857,0.09250945,-0.19154552,0.8944832,10.901704788208008,-3.972896099090576,11.79809856414795,9.724493026733398,122.35108184814453, 65.53832244873047
562,199049507,0.3870895,0.0748139,-0.1774055,0.9017161,12.638113975524902,-5.048897743225098,14.901859283447266,51.62804412841797,143.29115295410156, 71.67333221435547
563,199066174,0.3786405,0.05450824,-0.15950915,0.9100644,12.72538948059082,-4.437325477600098,12.181356430053711,70.51068115234375,167.35736083984375, 90.06094360351562
564,199082841,0.36758733,0.031111857,-0.13682401,0.91934276,6.037217617034912,-3.1523995399475098,11.934829711914062,94.44145965576172,196.7756805419922, 110.41172790527344
565,199099508,0.35599223,0.003012029,-0.11120228,0.92784417,3.4256811141967773,-2.439333438873291,11.110377311706543,100.50850677490234,233.31285095214844, 115.69286346435547
566,199116175,0.34499514,-0.02834809,-0.08067465,0.9347014,2.762561321258545,-3.817211866378784,12.72010612487793,122.56856536865234,266.59149169921875, 110.26183319091797
567,199132842,0.33672795,-0.05654624,-0.04363124,0.9388894,6.616640090942383,-0.12905313074588776,7.92470645904541,171.0286407470703,263.79119873046875, 85.90570068359375
568,199149509,0.3337417,-0.080068305,-0.015611815,0.93912816,15.919509887695312,12.575226783752441,-3.3711907863616943,124.42252349853516,215.86131286621094, 37.75132369995117
569,199166176,0.32954946,-0.11025008,-0.024662642,0.9373547,12.364704132080078,19.723241806030273,0.8206411600112915,-131.27801513671875,174.93328857421875, 21.23168182373047
570,199182843,0.3229739,-0.14312816,-0.04730303,0.93432575,0.5789006948471069,-6.804039478302002,7.06756591796875,-227.2363739013672,162.2159881591797, 23.904279708862305
571,199199510,0.3195736,-0.16343872,-0.04850086,0.93209887,-0.1503344029188156,-4.793527603149414,6.443163871765137,-58.07994079589844,129.3298797607422, 22.313884735107422
572,199216177,0.3180948,-0.17637785,-0.044836666,0.9304281,0.378112256526947,0.7147162556648254,4.222997188568115,-8.338155746459961,92.79742431640625, 14.234107971191406
573,199232844,0.31617248,-0.18624575,-0.04566259,0.9291192,-3.522386312484741,-2.1906802654266357,5.665824890136719,-30.78533935546875,62.76787567138672, 11.46811580657959
574,199249511,0.31414965,-0.19211885,-0.047435477,0.92852044,-4.663264751434326,-2.584674596786499,5.488724231719971,-28.043779373168945,34.228797912597656, 11.18579387664795
575,199266178,0.31314495,-0.19403243,-0.04766138,0.92845047,-4.781642913818359,-2.1027677059173584,6.5333356857299805,-8.082196235656738,11.89527702331543, 6.578703880310059
576,199282845,0.31402484,-0.19243208,-0.045837097,0.9285782,-5.437007427215576,-1.8734527826309204,8.173051834106445,15.157282829284668,-5.795736789703369, -3.446512460708618
577,199299512,0.31578383,-0.18987527,-0.046944108,0.92845273,-6.042272567749023,-1.1840581893920898,9.722827911376953,-0.40758833289146423,-17.647676467895508, -13.790667533874512
578,199316179,0.31725472,-0.18827026,-0.052981596,0.92795306,-6.850077152252197,-2.4654552936553955,10.873090744018555,-34.453922271728516,-21.911884307861328, -18.89963150024414
579,199332846,0.3180735,-0.18787454,-0.060674153,0.92728156,-6.774015426635742,-4.785350322723389,11.141828536987305,-48.557613372802734,-17.856731414794922, -16.81909942626953
580,199349513,0.3184278,-0.18814792,-0.06571587,0.9267608,-6.57329797744751,-5.569555759429932,11.405831336975098,-33.63621139526367,-8.214516639709473, -9.823948860168457
581,199366180,0.31836835,-0.18874536,-0.06679811,0.92658246,-6.806994915008545,-5.373759746551514,11.509537696838379,-9.469876289367676,1.8602575063705444, -1.169232964515686
582,199382847,0.3182288,-0.18932682,-0.06460715,0.92666703,-7.095796585083008,-4.7078070640563965,10.910331726074219,11.458330154418945,8.514749526977539, 4.1546454429626465
583,199399514,0.31835064,-0.1894193,-0.06111346,0.92684335,-6.870816707611084,-3.181638479232788,10.037199020385742,21.228107452392578,8.211593627929688, 4.163563251495361
584,199416181,0.31877,-0.1888136,-0.058033314,0.9270206,-6.591226577758789,-2.347036361694336,9.086989402770996,20.515836715698242,2.9458298683166504, 1.4301064014434814
585,199432848,0.3196102,-0.18701023,-0.055673398,0.92724174,-6.28066349029541,-1.9953724145889282,8.340368270874023,19.11587905883789,-6.190879821777344, -2.5774223804473877
586,199449515,0.32103002,-0.18376097,-0.05446163,0.9274728,-5.843104362487793,-1.642505168914795,7.759731769561768,15.723221778869629,-17.757566452026367, -8.287762641906738
587,199466182,0.32292455,-0.17911334,-0.054734,0.9277083,-5.26746129989624,-1.6176540851593018,7.555704116821289,9.946175575256348,-29.811508178710938, -13.710597038269043
588,199482849,0.32501534,-0.1731875,-0.056086376,0.92802244,-4.987694263458252,-2.2704358100891113,7.7594194412231445,6.166274547576904,-40.413551330566406, -16.604705810546875
589,199499516,0.32718095,-0.16585757,-0.057452116,0.9285167,-4.521364212036133,-2.6400327682495117,8.111629486083984,9.382608413696289,-49.61322021484375, -17.240066528320312
590,199516183,0.3295323,-0.15686703,-0.05863895,0.9291731,-3.941030502319336,-2.337794542312622,7.8744072914123535,14.544442176818848,-59.94447326660156, -18.514259338378906
591,199532850,0.3315164,-0.14675677,-0.060222577,0.93001765,-3.3108906745910645,-2.31699800491333,7.812623023986816,14.232177734375,-68.36463928222656, -16.6224422454834
592,199549517,0.33305913,-0.13556758,-0.062294602,0.9310277,-3.0591835975646973,-2.1594746112823486,7.908325672149658,13.19779109954834,-76.7393798828125, -14.362074851989746
593,199566184,0.33432,-0.12365276,-0.06436169,0.9320931,-3.4796481132507324,-2.811154365539551,9.456243515014648,14.656622886657715,-81.55685424804688, -12.737639427185059
594,199582851,0.33528972,-0.11158456,-0.06709045,0.93307483,-3.6656742095947266,-3.319559097290039,10.373574256896973,10.492179870605469,-84.13256072998047, -11.694957733154297
595,199599518,0.33593565,-0.09956994,-0.07134914,0.9338856,-2.7955801486968994,-2.817761182785034,10.275043487548828,0.2376731038093567,-87.35026550292969, -11.162215232849121
596,199616185,0.3369276,-0.087951116,-0.07745425,0.93420845,-2.31506609916687,-1.4540178775787354,9.79350471496582,-12.528046607971191,-88.58055114746094, -15.582308769226074
597,199632852,0.3376446,-0.078941174,-0.087117575,0.9339032,-2.2880313396453857,-2.656233310699463,11.396038055419922,-41.932918548583984,-79.8418197631836, -16.03656005859375
598,199649519,0.33852097,-0.07023648,-0.09555856,0.9334554,-1.8008692264556885,-4.8401618003845215,11.864800453186035,-34.78928756713867,-74.88008117675781, -16.54815101623535
599,199666186,0.3397517,-0.060728934,-0.10240493,0.9329492,-1.0588797330856323,-3.5354278087615967,11.539266586303711,-22.53302001953125,-76.06587982177734, -18.719532012939453
600,199682853,0.3413956,-0.050433572,-0.10888385,0.9322284,0.35732942819595337,-2.7059478759765625,10.595290184020996,-18.30622100830078,-79.88232421875, -22.274150848388672
601,199699520,0.34382576,-0.04001317,-0.117049664,0.9308504,1.1185163259506226,-0.3937807083129883,9.684514045715332,-29.042930603027344,-83.81805419921875, -29.53482437133789
602,199716187,0.34678575,-0.028827824,-0.1282767,0.92868394,1.8919591903686523,-0.5535102486610413,9.525313377380371,-47.33491516113281,-95.29529571533203, -36.24470901489258
603,199732854,0.3496529,-0.015021725,-0.1399684,0.926243,2.4095706939697266,-2.4845614433288574,7.811007976531982,-44.33131408691406,-113.1485366821289, -38.70484161376953
604,199749521,0.35201505,0.002065998,-0.14769025,0.92426664,3.142396926879883,-3.9613430500030518,8.312524795532227,-10.761555671691895,-125.01724243164062, -37.11518478393555
605,199766188,0.35571206,0.020822356,-0.15419258,0.9215531,0.36530980467796326,0.6527920961380005,-1.9690208435058594,0.2749265134334564,-131.30076599121094, -49.090431213378906
606,199782855,0.36768702,0.06668994,-0.14191994,0.91663384,16.12461280822754,19.007335662841797,-31.901992797851562,182.08900451660156,-248.78614807128906, -138.4092559814453
607,199799522,0.371085,0.10546433,-0.14479752,0.9111571,25.26995849609375,-12.102508544921875,29.038423538208008,71.9110336303711,-250.75758361816406, -71.77114868164062
608,199816189,0.37484318,0.1392414,-0.14251399,0.90542495,-7.26655912399292,-4.663270950317383,18.472179412841797,91.02772521972656,-205.91981506347656, -73.42973327636719
609,199832856,0.38199827,0.16044267,-0.15439573,0.89693797,25.15073585510254,3.854316473007202,14.002020835876465,-35.523075103759766,-163.56106567382812, -75.81529235839844
610,199849523,0.38995975,0.17449257,-0.17214566,0.88760906,27.809005737304688,3.150397300720215,19.604412078857422,-92.3396224975586,-134.76821899414062, -68.8661117553711
611,199866190,0.3941871,0.17978705,-0.1921318,0.8805558,26.12796401977539,-5.712338447570801,22.29480743408203,-121.85595703125,-89.02143096923828, -25.976499557495117
612,199882857,0.40108365,0.1809189,-0.21631822,0.87155426,11.159852981567383,-3.418008804321289,12.049866676330566,-164.5422821044922,-73.95845794677734, -36.90225601196289
613,199899524,0.40591913,0.18955804,-0.22856076,0.86432487,1.48427152633667,-1.3349395990371704,4.380002021789551,-67.1475601196289,-86.81234741210938, -45.84571838378906
614,199916191,0.40926227,0.19533338,-0.23877653,0.85868216,-8.262804985046387,-4.039083957672119,3.5130488872528076,-59.02490234375,-64.28433227539062, -31.24988555908203
615,199932858,0.41049495,0.20121033,-0.24502392,0.8549689,-8.671911239624023,-2.20763897895813,1.8079266548156738,-29.400358200073242,-54.637027740478516, -19.056041717529297
616,199949525,0.41049698,0.20752245,-0.24810264,0.85256773,-6.672152996063232,-3.03511118888855,2.273890972137451,-5.636765480041504,-48.58807373046875, -13.286297798156738
617,199966192,0.41019607,0.21330953,-0.25057685,0.85055846,-3.425236225128174,-4.026294708251953,5.530022621154785,-2.237912893295288,-43.915916442871094, -10.113286018371582
618,199982859,0.40953526,0.219149,-0.2515566,0.8491019,0.43927329778671265,-3.0179216861724854,8.805100440979004,8.148404121398926,-39.87733459472656, -8.765449523925781
619,199999526,0.40939614,0.22445329,-0.2526834,0.8474471,1.8079297542572021,-2.082688570022583,10.553722381591797,4.657495021820068,-36.6124267578125, -11.239628791809082
620,200016193,0.41013286,0.22939774,-0.25292128,0.8456943,1.5928623676300049,-2.482407569885254,11.599225997924805,7.295010089874268,-30.69268226623535, -17.373647689819336
621,200032860,0.41106433,0.23453285,-0.25071436,0.84448963,2.060347080230713,-3.46471905708313,11.076626777648926,22.687829971313477,-23.761859893798828, -21.15977668762207
622,200049527,0.4115166,0.23869878,-0.247984,0.84390813,4.198226451873779,-4.152951717376709,11.04644775390625,24.836933135986328,-16.52741813659668, -15.80646800994873
623,200066194,0.41155764,0.24095738,-0.24673411,0.84361255,4.605402946472168,-4.714478492736816,9.59633731842041,12.020147323608398,-9.915902137756348, -6.946017265319824
624,200082861,0.4110329,0.2417238,-0.2455374,0.84399825,3.1865017414093018,-4.971189022064209,9.23591136932373,9.596806526184082,-1.265767216682434, 0.8635004758834839
625,200099528,0.41036704,0.24161896,-0.24436131,0.8446934,1.8034934997558594,-4.21701192855835,8.682673454284668,7.788690090179443,3.9765071868896484, 4.037222385406494
626,200116195,0.4097214,0.24090247,-0.243183,0.845551,0.9769923686981201,-3.7897400856018066,9.232563972473145,6.328215599060059,7.800549030303955, 5.380148410797119
627,200132862,0.40977517,0.23958164,-0.24154915,0.8463682,1.0804468393325806,-2.7900304794311523,9.187456130981445,6.057170391082764,13.65216064453125, 1.4355480670928955
628,200149529,0.41061622,0.23774734,-0.2385081,0.84733975,0.9752228856086731,-3.001767158508301,9.050872802734375,11.761731147766113,22.1202335357666, -4.190016746520996
629,200166196,0.4119607,0.2352938,-0.23429985,0.84854525,0.6807901263237,-2.817462682723999,8.629072189331055,16.379308700561523,30.185569763183594, -7.369816780090332
630,200182863,0.41314548,0.23185942,-0.22948137,0.8502295,1.4811121225357056,-2.5421981811523438,9.331103324890137,18.196535110473633,38.109703063964844, -4.502562046051025
631,200199530,0.4141407,0.22637768,-0.22609961,0.85212654,3.0269484519958496,-2.0010147094726562,10.101725578308105,4.62295389175415,45.995941162109375, 2.720031499862671
632,200216197,0.414268,0.21872815,-0.22321156,0.85481966,4.204840660095215,-1.2084013223648071,10.032341957092285,-1.8567126989364624,57.14898681640625, 14.205199241638184
633,200232864,0.41273215,0.20905277,-0.21939865,0.8589607,3.9269869327545166,-2.717635154724121,9.399274826049805,1.91695237159729,71.47753143310547, 28.99336051940918
634,200249531,0.40979263,0.19780347,-0.21397421,0.8643836,4.130690097808838,-2.868119955062866,8.910383224487305,11.024614334106445,85.03254699707031, 41.08042526245117
635,200266198,0.40604162,0.1841299,-0.20838283,0.8705189,4.643196105957031,-3.5718348026275635,8.584877967834473,7.405941009521484,99.66627502441406, 51.29932403564453
636,200282865,0.40185967,0.16792376,-0.20242576,0.877117,5.308474063873291,-3.9456677436828613,8.469651222229004,3.928037166595459,115.75777435302734, 58.58951187133789
637,200299532,0.3975337,0.149241,-0.19651803,0.88378435,7.4596452713012695,-4.087728023529053,9.294699668884277,-2.7177600860595703,130.3646240234375, 63.512203216552734
638,200316199,0.39265066,0.12840338,-0.18941373,0.8907642,9.421887397766113,-4.79171895980835,10.56638240814209,-0.18400584161281586,146.25709533691406, 69.73262786865234
639,200332866,0.3862246,0.10529298,-0.17774303,0.8989724,11.66507339477539,-5.02233362197876,8.908699989318848,24.773372650146484,171.5395050048828, 81.81636810302734
640,200349533,0.37736163,0.07955718,-0.16020566,0.9086271,10.529994010925293,-4.0677032470703125,10.7323637008667,57.34822082519531,201.65301513671875, 99.07455444335938
641,200366200,0.36561653,0.0490762,-0.139117,0.91900086,9.829333305358887,-2.869462490081787,10.95384693145752,69.60749053955078,237.81822204589844, 122.2630615234375
642,200382867,0.35244676,0.017397301,-0.10986665,0.9291975,7.803986072540283,-2.8715202808380127,13.459909439086914,118.50065612792969,264.57550048828125, 129.24838256835938
643,200399534,0.34130278,-0.013077939,-0.07723391,0.9366837,3.9781441688537598,0.3054159879684448,11.754570007324219,140.74363708496094,266.3420104980469, 108.43618774414062
644,200416201,0.33525833,-0.03497318,-0.04357596,0.9404679,10.411351203918457,7.438216209411621,1.0350321531295776,165.9448699951172,216.52549743652344, 62.43362045288086
645,200432868,0.3334204,-0.053863052,-0.026578872,0.94086295,17.22549057006836,16.35080337524414,-3.9995644092559814,65.0291748046875,160.82159423828125, 22.511398315429688
646,200449535,0.33070463,-0.08264524,-0.045923445,0.93898636,7.300527572631836,11.149682998657227,3.984870195388794,-193.66744995117188,142.35687255859375, 11.341575622558594
647,200466202,0.32829902,-0.10991812,-0.06688255,0.93576956,0.5309920907020569,-5.596869468688965,8.633852005004883,-201.01278686523438,129.8680877685547, 4.905099391937256
648,200482869,0.32812414,-0.12623121,-0.07014189,0.9335312,-0.22207587957382202,-4.188271522521973,10.092487335205078,-60.18777084350586,99.58641815185547, 1.1080901622772217
649,200499536,0.32940796,-0.13579738,-0.0666507,0.9319911,0.8275061249732971,-1.6178786754608154,6.556609630584717,-0.015572803094983101,71.61798858642578, -4.071711540222168
650,200516203,0.33041224,-0.1419995,-0.06361659,0.93092275,-1.625938057899475,-2.4641942977905273,5.884266376495361,4.631320476531982,48.47483825683594, -3.179471492767334
651,200532870,0.33056915,-0.14568675,-0.062606126,0.93036556,-4.265045166015625,-4.492010593414307,7.75921106338501,-3.2003917694091797,26.906139373779297, 0.3286309838294983
652,200549537,0.33007592,-0.14715359,-0.06172016,0.93036896,-4.482393264770508,-5.1679558753967285,9.360384941101074,0.6658345460891724,11.554606437683105, 4.679065704345703
653,200566204,0.32973865,-0.14707255,-0.0606749,0.9305702,-4.853133201599121,-4.555535793304443,10.586604118347168,5.467896461486816,1.8595271110534668, 3.6351919174194336
654,200582871,0.33014053,-0.14520027,-0.05839138,0.93086785,-5.400905609130859,-4.116933345794678,11.698492050170898,18.259695053100586,-6.605101108551025, -0.3719096779823303
655,200599538,0.33116588,-0.14232485,-0.055964444,0.93109655,-6.336023807525635,-3.6658596992492676,12.361777305603027,22.06415367126465,-12.405462265014648, -4.781902313232422
656,200616205,0.3323868,-0.13977437,-0.05544151,0.9310792,-6.472988128662109,-3.3337037563323975,12.670182228088379,9.242219924926758,-14.37692642211914, -8.336880683898926
657,200632872,0.33320898,-0.13902925,-0.05874999,0.9306939,-6.399476051330566,-3.672149896621704,12.895072937011719,-19.926877975463867,-11.407626152038574, -9.624261856079102
658,200649539,0.3332374,-0.14029288,-0.06411076,0.93014026,-6.245150089263916,-4.610518455505371,12.667736053466797,-38.478599548339844,-3.447885036468506, -6.084867477416992
659,200666206,0.33256945,-0.14297472,-0.06869801,0.9296432,-5.8778486251831055,-4.869560718536377,11.759146690368652,-37.410911560058594,7.000916004180908, -0.1329818218946457
660,200682873,0.33142188,-0.14603786,-0.070258096,0.9294602,-5.825037002563477,-4.460508823394775,10.698659896850586,-19.237396240234375,15.795405387878418, 6.803932189941406
661,200699540,0.33000928,-0.14880338,-0.069108695,0.92961043,-5.549866199493408,-3.387927770614624,9.87416934967041,-1.3321701288223267,19.57463836669922, 11.82962417602539
662,200716207,0.32864785,-0.15121278,-0.067307085,0.92983603,-5.459681034088135,-2.0589115619659424,9.373363494873047,3.7421693801879883,18.696977615356445, 12.166366577148438
663,200732874,0.32731462,-0.15297125,-0.06518812,0.93016964,-5.247262001037598,-2.0659804344177246,8.544744491577148,7.320139408111572,15.125198364257812, 12.251680374145508
664,200749541,0.32629102,-0.1536683,-0.06265878,0.9305882,-5.267852306365967,-1.3272664546966553,8.24728775024414,12.697760581970215,9.282329559326172, 10.411863327026367
665,200766208,0.32549784,-0.15360473,-0.060561758,0.9310152,-5.116589069366455,-1.3204660415649414,7.676521301269531,11.880568504333496,3.5080785751342773, 8.165034294128418
666,200782875,0.32508335,-0.15263966,-0.05898712,0.9314196,-4.988700866699219,-1.0655112266540527,7.646918773651123,10.941449165344238,-3.2777225971221924, 4.756978511810303
667,200799542,0.3250258,-0.15128663,-0.05864086,0.93168235,-5.113897800445557,-1.3462810516357422,7.817110061645508,4.254136562347412,-8.240401268005371, 0.7010005712509155
668,200816209,0.32535815,-0.14955972,-0.05905207,0.93181914,-5.143576622009277,-1.6212152242660522,7.825323581695557,0.5896238684654236,-12.067032814025879, -3.02306866645813
669,200832876,0.3261376,-0.14754246,-0.060534295,0.9317732,-5.247310161590576,-1.424282431602478,8.155731201171875,-5.237022399902344,-15.980844497680664, -7.520985126495361
670,200849543,0.32722688,-0.14526325,-0.06339752,0.9315589,-5.258845329284668,-1.853339433670044,7.781684398651123,-13.254708290100098,-20.4835147857666, -11.400267601013184
671,200866210,0.3282877,-0.14220235,-0.06651276,0.9314408,-4.796424388885498,-2.0808615684509277,7.531966686248779,-13.09460163116455,-26.194133758544922, -11.600851058959961
672,200882877,0.32916504,-0.13834083,-0.070305556,0.93143404,-4.334433078765869,-1.8485008478164673,7.856930255889893,-15.750955581665039,-33.06867599487305, -11.208456039428711
673,200899544,0.32951313,-0.13372912,-0.07391207,0.93170524,-4.16261625289917,-3.033670425415039,8.814523696899414,-13.228422164916992,-37.99228286743164, -7.380996227264404
674,200916211,0.32977808,-0.12749912,-0.07605649,0.9323122,-3.7263824939727783,-3.184199094772339,9.622140884399414,-0.09349984675645828,-45.41535568237305, -5.568972110748291
675,200932878,0.33024633,-0.119581394,-0.0790117,0.93294966,-3.0202107429504395,-1.8437209129333496,9.041631698608398,-1.2621451616287231,-58.00636672973633, -8.397879600524902
676,200949545,0.3310448,-0.11128178,-0.08368356,0.93328613,-2.347398519515991,-1.750441312789917,8.926136016845703,-11.301176071166992,-63.93682098388672, -12.82077693939209
677,200966212,0.33212584,-0.1024772,-0.08946363,0.9333741,-1.7578045129776,-2.626234292984009,9.11490249633789,-17.192745208740234,-69.35237121582031, -16.340518951416016
678,200982879,0.33365244,-0.090529144,-0.092978135,0.9337215,-0.27075427770614624,-3.513680934906006,9.006771087646484,5.001786231994629,-84.26245880126953, -18.94426727294922
679,200999546,0.33549297,-0.07437235,-0.09387931,0.9343982,0.9373700618743896,-2.9477505683898926,10.064781188964844,31.85170555114746,-105.28329467773438, -21.263490676879883
680,201016213,0.33733118,-0.05680474,-0.09859033,0.93448436,2.686723470687866,-0.8272905349731445,8.978139877319336,10.25160026550293,-122.81766510009766, -25.46283531188965
681,201032880,0.34260443,-0.03447544,-0.10516462,0.93293846,4.020076274871826,5.835757255554199,-16.55146026611328,9.549178123474121,-154.7440643310547, -55.26823043823242
682,201049547,0.36278135,0.012021289,-0.09865126,0.92655975,32.417205810546875,21.598634719848633,-11.821493148803711,150.5147705078125,-267.0812683105469, -176.6767578125
683,201066214,0.3628317,0.0479742,-0.11930902,0.92293936,13.5755033493042,-25.040550231933594,36.63531494140625,-45.589759826660156,-280.7783508300781, -32.022186279296875
684,201082881,0.3713012,0.090070926,-0.11447193,0.9170163,8.565922737121582,4.195854663848877,21.999393463134766,127.06044006347656,-249.9368896484375, -104.67620086669922
685,201099548,0.37825263,0.110800415,-0.13592061,0.9089412,24.87760353088379,-4.829082489013672,20.554481506347656,-94.09121704101562,-184.7747802734375, -67.45252227783203
686,201116215,0.3872455,0.12804002,-0.15882154,0.8991232,28.999237060546875,6.003002166748047,19.967390060424805,-115.42062377929688,-165.99945068359375, -80.33828735351562
687,201132882,0.3915651,0.12843613,-0.1915134,0.89078814,17.57524871826172,-9.607832908630371,18.802915573120117,-215.16116333007812,-91.55997467041016, -20.379976272583008
688,201149549,0.39921838,0.1383548,-0.21272515,0.8810395,3.710454225540161,-1.3244245052337646,4.072500228881836,-123.95256805419922,-115.76142120361328, -67.2491683959961
689,201166216,0.40503794,0.14777221,-0.22616449,0.87347424,-5.194058418273926,-4.080972671508789,1.4336400032043457,-72.14188385009766,-92.56562805175781, -54.73577117919922
690,201182883,0.4078708,0.15706605,-0.23361014,0.8685609,-8.512269020080566,-3.9413156509399414,1.9925322532653809,-29.76148796081543,-76.89635467529297, -36.22085189819336
691,201199550,0.40890795,0.16541639,-0.24051204,0.86463046,-6.730007648468018,-2.294882297515869,2.1598117351531982,-25.860103607177734,-71.5140151977539, -22.290164947509766
692,201216217,0.4090641,0.17366599,-0.24668871,0.861192,-4.086658954620361,-1.768282413482666,3.8150622844696045,-20.19146156311035,-69.74668884277344, -16.668800354003906
