PacketCounter,SampleTimeFine,Quat_W,Quat_X,Quat_Y,Quat_Z,Acc_X,Acc_Y,Acc_Z,Gyr_X,Gyr_Y,Gyr_Z 
1,298354313,0.51491624,-0.5957312,-0.36700708,-0.49524888,0.06884053349494934,-1.3596643209457397,0.8718402981758118,-5.622392177581787,-1.854798674583435, 1.7174808979034424
2,298370980,0.5103892,-0.60346407,-0.37447858,-0.48487112,9.219941139221191,-2.4939610958099365,0.7016642093658447,12.394646644592285,-81.74405670166016, -22.213891983032227
3,298387647,0.5073911,-0.6073659,-0.38075286,-0.4782138,9.65265941619873,-2.05470871925354,0.048923343420028687,6.045186996459961,-91.74515533447266, -18.55378532409668
4,298404314,0.5011454,-0.61159986,-0.38903278,-0.47270778,10.248605728149414,-1.618086338043213,0.2632417678833008,-2.956000328063965,-98.10767364501953, -15.938888549804688
5,298420981,0.49273464,-0.6156592,-0.39702877,-0.46962166,10.536911964416504,-0.7710679769515991,-0.38681602478027344,-18.986474990844727,-98.93876647949219, -12.280915260314941
6,298437648,0.48004392,-0.62193817,-0.40390882,-0.46862414,10.774092674255371,-1.9892774820327759,-0.3098311424255371,-50.00232696533203,-99.0096664428711, -5.765259742736816
7,298454315,0.4684526,-0.6280171,-0.41039017,-0.4666119,11.612370491027832,0.8372086882591248,-0.7431505918502808,-43.48356246948242,-99.36296081542969, -11.24967098236084
8,298470982,0.45532548,-0.6330762,-0.4189923,-0.46512252,11.826515197753906,0.2934836149215698,-0.6251022815704346,-37.419837951660156,-104.14869689941406, -10.402923583984375
9,298487649,0.44218323,-0.637469,-0.42873123,-0.46292222,12.399807929992676,0.864689290523529,-0.7241601943969727,-28.172447204589844,-111.00121307373047, -13.799810409545898
10,298504316,0.42815512,-0.6414949,-0.4394942,-0.46044818,12.520623207092285,-0.22275471687316895,-0.8969022035598755,-25.119375228881836,-119.13569641113281, -20.264829635620117
11,298520983,0.4132708,-0.6465975,-0.44943517,-0.45730406,12.455886840820312,-0.5276620388031006,-0.4010377526283264,-32.59892654418945,-127.31629943847656, -22.050046920776367
12,298537650,0.39710355,-0.6529049,-0.45788914,-0.45427036,13.013663291931152,-1.1570043563842773,-0.18365754187107086,-47.46851348876953,-134.314453125, -24.475183486938477
13,298554317,0.3791116,-0.66070193,-0.46423426,-0.4519228,14.092619895935059,0.18885302543640137,0.5961955189704895,-69.80443572998047,-140.35069274902344, -26.949357986450195
14,298570984,0.35673353,-0.670214,-0.4670925,-0.45318788,15.956007957458496,1.9261707067489624,1.8096375465393066,-116.49559783935547,-141.04046630859375, -32.103759765625
15,298587651,0.32916397,-0.68082935,-0.46495858,-0.46036515,17.69647216796875,4.55463171005249,4.105095863342285,-176.1285858154297,-131.57142639160156, -36.335906982421875
16,298604318,0.2963674,-0.6912183,-0.45831162,-0.47363934,18.253097534179688,4.673619270324707,6.403608322143555,-230.36402893066406,-122.58123016357422, -44.076839447021484
17,298620985,0.26451474,-0.69947827,-0.45229578,-0.48599446,17.063547134399414,-2.9556610584259033,7.154927730560303,-213.20310974121094,-132.43875122070312, -50.796180725097656
18,298637652,0.24305947,-0.70332307,-0.45504314,-0.4890753,18.917695999145508,-7.567595481872559,3.013990879058838,-99.01913452148438,-154.601806640625, -70.25769805908203
19,298654319,0.22708984,-0.705135,-0.460984,-0.4885783,21.477453231811523,-14.196981430053711,7.249021530151367,-51.889793395996094,-153.3756103515625, -84.8956069946289
20,298670986,0.22305684,-0.70596224,-0.4638636,-0.48651165,17.42721939086914,-16.708301544189453,7.610178470611572,-5.208600044250488,-121.65702056884766, -51.580665588378906
21,298687653,0.22362797,-0.7071498,-0.46564364,-0.48281047,13.171710014343262,-7.770776271820068,0.31787896156311035,10.379645347595215,-117.42229461669922, -43.983055114746094
22,298704320,0.21956329,-0.711104,-0.46303773,-0.4813724,13.158560752868652,-6.044610023498535,-7.618096828460693,-41.29499816894531,-115.49198150634766, -35.347171783447266
23,298720987,0.21892019,-0.71458215,-0.4579051,-0.48142436,11.974417686462402,-5.239241600036621,-6.583154678344727,-39.813846588134766,-77.27598571777344, -15.90167236328125
24,298737654,0.2298983,-0.7120711,-0.45803243,-0.4799042,7.599607467651367,-7.191854953765869,5.812807083129883,47.333152770996094,-25.71937370300293, -18.212297439575195
25,298754321,0.24360865,-0.7061021,-0.45293865,-0.4867457,5.278139114379883,0.1735975593328476,11.605340957641602,22.961223602294922,43.84765625, -6.92503023147583
26,298770988,0.24743865,-0.7022878,-0.43516085,-0.50616324,4.132498741149902,1.5284303426742554,5.031759738922119,-106.53782653808594,86.41803741455078, 12.243759155273438
27,298787655,0.25229785,-0.6963728,-0.41405913,-0.5291179,5.8978118896484375,-2.704084873199463,-0.06304670870304108,-117.09346008300781,124.04794311523438, 23.578218460083008
28,298804322,0.2681515,-0.68656164,-0.39417782,-0.54895526,6.3168487548828125,-5.809765338897705,0.18947044014930725,-43.02206039428711,159.1029510498047, 53.15058135986328
29,298820989,0.29515985,-0.6716272,-0.3762366,-0.5659008,6.011128902435303,-3.5718190670013428,2.016756296157837,35.1112060546875,196.34410095214844, 77.69569396972656
30,298837656,0.3249555,-0.65362287,-0.35521176,-0.5839571,6.38440465927124,-1.2739219665527344,2.542555093765259,40.739830017089844,229.8985137939453, 94.72789764404297
31,298854323,0.35383353,-0.63421804,-0.32821566,-0.604023,7.554289817810059,-2.5898382663726807,1.7021353244781494,12.32407283782959,258.3143005371094, 113.13568878173828
32,298870990,0.38483903,-0.61191386,-0.29802328,-0.62341213,9.528996467590332,-3.331073522567749,0.057251811027526855,18.154529571533203,283.0766906738281, 133.15255737304688
33,298887657,0.41862935,-0.5861872,-0.26659295,-0.64036113,11.385749816894531,-2.9877614974975586,-1.1930168867111206,39.86686706542969,300.1824035644531, 151.71328735351562
34,298904324,0.4551721,-0.55667096,-0.23499997,-0.6539961,13.152941703796387,-3.0242292881011963,-2.1382851600646973,68.47122192382812,313.1058654785156, 169.60919189453125
35,298920991,0.49314547,-0.5223602,-0.20417339,-0.665027,14.839444160461426,-0.32194018363952637,-2.097522497177124,97.91358947753906,328.9412841796875, 176.39602661132812
36,298937658,0.52813834,-0.4861967,-0.17127682,-0.67479396,17.51731300354004,0.7917144894599915,-2.009594202041626,86.63347625732422,340.1208190917969, 175.92979431152344
37,298954325,0.5524611,-0.45027277,-0.13385735,-0.6885663,19.824657440185547,-0.46951818466186523,-3.3006954193115234,86.4813461303711,342.6060485839844, 175.54444885253906
38,298970992,0.5824421,-0.40996414,-0.105735905,-0.6939098,21.33456802368164,-0.6107057929039001,-3.9185309410095215,109.08946990966797,338.85235595703125, 168.56817626953125
39,298987659,0.6088651,-0.37040773,-0.07922259,-0.6969976,21.833301544189453,-2.86944317817688,-5.210019111633301,104.69906616210938,322.8375244140625, 159.1558837890625
40,299004326,0.6339964,-0.3309219,-0.0576792,-0.6965721,21.708749771118164,-5.989437103271484,-7.235345840454102,126.6651382446289,292.6329040527344, 155.57598876953125
41,299020993,0.6599033,-0.28450203,-0.04801171,-0.69374436,21.462371826171875,4.0502824783325195,-9.34521484375,216.52098083496094,268.9064636230469, 139.98858642578125
42,299037660,0.67214483,-0.25411257,-0.031818617,-0.6947199,16.009925842285156,8.05748462677002,-13.053573608398438,84.33013153076172,224.79766845703125, 75.64440155029297
43,299054327,0.67843837,-0.24147409,-0.017842546,-0.69360906,6.212677478790283,8.209057807922363,-20.537702560424805,2.77131724357605,124.60774230957031, 56.87827682495117
44,299070994,0.67495674,-0.2535944,-0.0055144234,-0.6928875,6.209619998931885,3.3716328144073486,-20.568166732788086,-121.16423797607422,-1.9249072074890137, 8.717292785644531
45,299087661,0.66984093,-0.2692452,-0.010656817,-0.69188637,9.723719596862793,0.9949762225151062,-18.132801055908203,-57.08379364013672,-100.49119567871094, -28.110647201538086
46,299104328,0.66412216,-0.28424108,-0.028006457,-0.69091576,12.696722030639648,2.692464828491211,-12.816404342651367,2.9442176818847656,-153.607177734375, -53.78857421875
47,299120995,0.65858513,-0.29950783,-0.050949972,-0.68845135,13.874368667602539,1.8601998090744019,-8.852431297302246,28.90964698791504,-183.31393432617188, -56.9886589050293
48,299137662,0.65345955,-0.31684163,-0.06899416,-0.68398976,16.657724380493164,-9.766264915466309,6.667356491088867,-2.140667676925659,-174.85133361816406, -35.22248840332031
49,299154329,0.6523423,-0.32660574,-0.086214736,-0.67848754,15.015844345092773,-6.187244415283203,15.86340045928955,37.28136444091797,-135.9820556640625, -13.540714263916016
50,299170996,0.6498139,-0.33597523,-0.106074855,-0.6735063,17.094350814819336,5.6281585693359375,-6.018299102783203,47.84442138671875,-145.78468322753906, -28.645343780517578
51,299187663,0.64386326,-0.3496032,-0.12575354,-0.6688825,20.129138946533203,2.5930016040802,-2.7353525161743164,19.75481605529785,-166.2616424560547, -42.48259735107422
52,299204330,0.6358805,-0.36707532,-0.14120832,-0.66405714,11.391695976257324,-1.589866280555725,-0.7053226232528687,-21.416086196899414,-167.41017150878906, -37.40567398071289
53,299220997,0.63173187,-0.3786244,-0.15887272,-0.6575089,10.930582046508789,-5.809066295623779,-4.870681285858154,25.93539810180664,-150.70449829101562, -23.737918853759766
54,299237664,0.63054985,-0.38411582,-0.1782365,-0.6504567,10.30388069152832,-1.7388980388641357,-2.7350192070007324,68.27164459228516,-128.77145385742188, -19.250024795532227
55,299254331,0.62809277,-0.3900742,-0.1927173,-0.64513695,9.993891716003418,-2.8928427696228027,-1.9362316131591797,38.9182014465332,-106.69939422607422, -19.007658004760742
56,299270998,0.625034,-0.39524987,-0.20410551,-0.6414447,10.636343955993652,-3.25221848487854,-0.5318195223808289,24.81058120727539,-86.32856750488281, -21.473230361938477
57,299287665,0.6218245,-0.39960244,-0.21386285,-0.63868225,11.053955078125,-1.364719271659851,-1.0798835754394531,19.443832397460938,-73.40032958984375, -22.872480392456055
58,299304332,0.6183756,-0.40317973,-0.22307777,-0.63662714,11.610593795776367,-1.2045882940292358,-0.3744876980781555,18.664783477783203,-66.09194946289062, -26.58883285522461
59,299320999,0.61618936,-0.40409115,-0.23416308,-0.6341835,10.55353832244873,-1.9129540920257568,-0.05192359909415245,42.27114486694336,-61.52203369140625, -28.675867080688477
60,299337666,0.61481565,-0.40311882,-0.24617106,-0.6315829,10.586316108703613,-1.2876834869384766,-0.37128910422325134,56.7795295715332,-56.36090850830078, -30.073795318603516
61,299354333,0.614504,-0.40040082,-0.25893322,-0.62850434,10.520047187805176,-1.2862834930419922,0.09286201745271683,71.18264770507812,-51.50138473510742, -28.487146377563477
62,299371000,0.614403,-0.39747474,-0.27075538,-0.6254714,10.053252220153809,-1.489022135734558,0.19421085715293884,68.49063110351562,-46.137386322021484, -25.558073043823242
63,299387667,0.60718966,-0.39828542,-0.27677593,-0.6293526,9.95601749420166,-2.0717051029205322,0.6837508082389832,55.827964782714844,-42.363460540771484, -23.946043014526367
64,299404334,0.60048664,-0.4004903,-0.28164765,-0.63221675,9.388587951660156,-2.4386539459228516,1.0139293670654297,35.84064865112305,-42.50794219970703, -20.463470458984375
65,299421001,0.5934486,-0.40495124,-0.28525022,-0.6344018,9.458181381225586,-1.9663729667663574,0.06426652520895004,12.308897018432617,-47.77312469482422, -17.61636734008789
66,299437668,0.5897174,-0.4093191,-0.29033837,-0.6327677,9.545271873474121,-1.7135435342788696,1.2052966356277466,-2.8496859073638916,-52.02814865112305, -15.409388542175293
67,299454335,0.58510584,-0.4156738,-0.29457036,-0.6309478,9.962544441223145,-1.6960859298706055,0.7890243530273438,-16.740694046020508,-59.50598907470703, -12.114041328430176
68,299471002,0.5796161,-0.4238508,-0.29839998,-0.62877107,10.174570083618164,-1.0221410989761353,0.6859202980995178,-27.606740951538086,-68.61662292480469, -9.645867347717285
69,299487669,0.57267684,-0.4352763,-0.29979697,-0.6266558,9.834410667419434,-2.6426053047180176,0.517948567867279,-55.42981719970703,-75.78154754638672, -2.396245002746582
70,299504336,0.56480587,-0.44697446,-0.30293965,-0.62404794,11.02187728881836,1.0050573348999023,-0.35087212920188904,-50.74820327758789,-87.24279022216797, -9.143513679504395
71,299521003,0.5563802,-0.4601499,-0.30708393,-0.6200022,10.739665985107422,0.547872006893158,-0.23741182684898376,-50.91267395019531,-103.04461669921875, -5.906372547149658
72,299537670,0.54725564,-0.47457278,-0.31252632,-0.6145074,11.164019584655762,1.5842758417129517,-0.6623671650886536,-49.30979919433594,-119.3939208984375, -4.796299457550049
73,299554337,0.5374855,-0.48897228,-0.3201022,-0.60790634,11.809021949768066,0.6001601815223694,-0.6343857049942017,-39.94540786743164,-132.3192138671875, -10.348370552062988
74,299571004,0.52716756,-0.50312966,-0.32902214,-0.6005825,12.338638305664062,-0.09957863390445709,-0.8060342669487,-33.683204650878906,-139.91098022460938, -15.008341789245605
75,299587671,0.51561826,-0.5175982,-0.33802435,-0.59327024,12.115449905395508,-1.4583637714385986,-0.2985095977783203,-38.75505828857422,-144.2395477294922, -19.714797973632812
76,299604338,0.50309163,-0.53213716,-0.34661362,-0.5861638,12.602276802062988,-1.6569154262542725,0.05108174681663513,-44.641387939453125,-144.61322021484375, -22.812196731567383
77,299621005,0.48843732,-0.54752743,-0.35360992,-0.5801749,13.070212364196777,-0.9277030229568481,0.5250924825668335,-64.45378112792969,-143.53335571289062, -27.408870697021484
78,299637672,0.47067428,-0.56454414,-0.35785204,-0.57593185,14.499828338623047,-0.22713306546211243,1.6078991889953613,-96.85513305664062,-141.78250122070312, -31.350265502929688
79,299654339,0.44963866,-0.5835768,-0.35799158,-0.57367736,15.480558395385742,0.49679428339004517,3.0175559520721436,-137.2309112548828,-136.85989379882812, -29.85103416442871
80,299671006,0.42549893,-0.604041,-0.35482356,-0.5728748,16.01408576965332,1.0665431022644043,4.733038425445557,-170.7458038330078,-134.1528778076172, -29.77340316772461
81,299687673,0.40026182,-0.62414914,-0.35067785,-0.5720608,16.406606674194336,-1.1199368238449097,6.843997955322266,-178.09536743164062,-132.68824768066406, -30.85483741760254
82,299704340,0.37671188,-0.6423774,-0.3504531,-0.5679984,17.36912727355957,-6.4486308097839355,3.289308786392212,-142.42185974121094,-146.0488739013672, -36.65810775756836
83,299721007,0.35801858,-0.6567396,-0.35829306,-0.55869675,21.150314331054688,-7.678685665130615,5.777090549468994,-66.83399963378906,-163.30987548828125, -49.13633346557617
84,299737674,0.33829215,-0.6678538,-0.36504593,-0.55341786,20.66335105895996,-10.532447814941406,12.229853630065918,-77.60347747802734,-132.61062622070312, -66.18020629882812
85,299754341,0.3193831,-0.67875636,-0.3688532,-0.54884565,15.25527286529541,-12.494694709777832,1.8901727199554443,-86.3643569946289,-119.81676483154297, -51.83055114746094
86,299771008,0.30054206,-0.69074696,-0.37240684,-0.54208523,15.65981674194336,-10.842036247253418,-4.8804450035095215,-83.87122344970703,-133.39540100097656, -42.94351577758789
87,299787675,0.28698453,-0.7003925,-0.37321284,-0.5364722,13.176878929138184,-4.021138668060303,-4.617325305938721,-67.12814331054688,-99.90191650390625, -18.647850036621094
88,299804342,0.27290913,-0.7074693,-0.37003532,-0.53673255,12.583826065063477,-5.2297444343566895,0.48725786805152893,-94.31440734863281,-55.53811264038086, -19.53167152404785
89,299821009,0.2737589,-0.70778805,-0.36841905,-0.5369913,7.310718059539795,-7.290656089782715,10.766408920288086,-3.2715628147125244,4.418826580047607, 10.759329795837402
90,299837676,0.2782711,-0.70587915,-0.36292207,-0.54091346,3.9715538024902344,-1.9332505464553833,5.045777797698975,-4.8700785636901855,46.908607482910156, 30.592769622802734
91,299854343,0.28664368,-0.70155454,-0.3529011,-0.54874176,6.78633451461792,-3.890094518661499,1.808078408241272,-8.071032524108887,93.11764526367188, 53.44812774658203
92,299871010,0.30224335,-0.6929753,-0.34136692,-0.5584829,6.9120635986328125,-3.0654637813568115,2.4073517322540283,24.833974838256836,138.9344940185547, 73.93338775634766
93,299887677,0.32018146,-0.68070126,-0.32594788,-0.57261485,6.254278659820557,-0.670549213886261,3.717073440551758,18.4432373046875,187.62042236328125, 83.64958190917969
94,299904344,0.33939064,-0.6654894,-0.30575895,-0.59029603,6.829524040222168,-2.302926778793335,3.0287063121795654,4.13798713684082,229.1573944091797, 96.63494873046875
95,299921011,0.36394212,-0.64593375,-0.28389534,-0.6080452,7.988611221313477,-2.383976697921753,2.5092732906341553,31.79583168029785,262.2642822265625, 116.72017669677734
96,299937678,0.39313203,-0.62157947,-0.2608061,-0.62535316,9.428844451904297,0.054555635899305344,1.4759734869003296,60.16255569458008,292.53167724609375, 133.32846069335938
97,299954345,0.42415392,-0.5933242,-0.23590878,-0.6421894,10.772699356079102,0.26755842566490173,-0.5777286291122437,71.62358093261719,315.5272216796875, 143.28594970703125
98,299971012,0.45784783,-0.56021124,-0.21130016,-0.65718424,12.735522270202637,-0.1446479856967926,-2.439201831817627,100.97815704345703,333.064697265625, 151.47567749023438
99,299987679,0.49232855,-0.5224677,-0.1859489,-0.6708675,15.119824409484863,1.0969194173812866,-2.296740770339966,117.16197967529297,352.5689697265625, 155.36599731445312
100,300004346,0.52337605,-0.48367116,-0.1565291,-0.68384105,17.67936897277832,0.8853629231452942,-2.2397029399871826,90.52501678466797,364.4048156738281, 155.28562927246094
101,300021013,0.5485913,-0.44442758,-0.123363286,-0.6973618,19.543079376220703,-1.4836584329605103,-4.00059700012207,84.03507995605469,364.4590148925781, 157.5809783935547
102,300037680,0.57730997,-0.40161496,-0.095877565,-0.7044332,21.62061309814453,-2.9204535484313965,-5.271038055419922,111.48262023925781,354.8349914550781, 158.75979614257812
103,300054347,0.6047345,-0.3582575,-0.07209,-0.70763767,22.691659927368164,-4.021437168121338,-7.105013370513916,130.59413146972656,331.4817199707031, 157.30816650390625
104,300071014,0.63114893,-0.31428048,-0.055173706,-0.70699,22.742122650146484,-4.767813205718994,-8.647042274475098,166.11767578125,296.1777648925781, 151.200439453125
105,300087681,0.6577184,-0.2643899,-0.050029032,-0.7035635,21.738176345825195,4.56540584564209,-10.284643173217773,250.55076599121094,268.173828125, 136.34051513671875
106,300104348,0.66999686,-0.23124756,-0.036785472,-0.7044685,15.840731620788574,8.039409637451172,-12.7354154586792,108.02507781982422,226.92662048339844, 68.08711242675781
107,300121015,0.67707974,-0.21631543,-0.022954078,-0.7030249,7.846416473388672,3.6648051738739014,-20.778484344482422,13.535872459411621,136.50315856933594, 59.364959716796875
108,300137682,0.6755705,-0.22373895,-0.011977368,-0.7024259,7.207500457763672,2.748460292816162,-20.75585174560547,-89.6191635131836,15.102202415466309, 13.236442565917969
109,300154349,0.67102486,-0.23758206,-0.015681418,-0.70216435,9.232991218566895,1.4899983406066895,-18.448591232299805,-53.20126724243164,-83.78324890136719, -25.014307022094727
110,300171016,0.6648408,-0.2537957,-0.02930471,-0.7019373,12.957730293273926,2.3574466705322266,-13.524353981018066,-18.88869857788086,-141.04519653320312, -49.01199722290039
111,300187683,0.6587369,-0.27186748,-0.047679152,-0.6999149,13.976129531860352,0.9637762904167175,-9.995015144348145,-3.9481942653656006,-174.73854064941406, -48.309749603271484
112,300204350,0.65309584,-0.29107234,-0.06634567,-0.6959464,15.00582218170166,-6.162135124206543,-1.9579670429229736,-6.164194583892822,-184.88970947265625, -37.43304443359375
113,300221017,0.6523617,-0.30194154,-0.08308435,-0.6901829,15.621716499328613,-12.40963363647461,20.180999755859375,32.76520919799805,-137.6356964111328, -5.877926826477051
114,300237684,0.65158325,-0.30952927,-0.10165278,-0.68505317,13.22294807434082,5.669416904449463,0.1182636022567749,55.75666809082031,-129.14332580566406, -14.728264808654785
115,300254351,0.6464882,-0.32178816,-0.11862129,-0.6814943,21.329578399658203,3.4025216102600098,-5.52177619934082,16.897178649902344,-143.62832641601562, -35.361785888671875
116,300271018,0.6397335,-0.33839545,-0.13348226,-0.67706144,14.852660179138184,-1.933290958404541,0.13865336775779724,-15.308619499206543,-157.7032470703125, -30.947532653808594
117,300287685,0.6342617,-0.35325897,-0.14734834,-0.67172074,10.453842163085938,-5.603024959564209,-3.991828680038452,-8.438867568969727,-146.11703491210938, -20.2650089263916
118,300304352,0.63237786,-0.36021966,-0.1652339,-0.6656108,11.161649703979492,-1.9188162088394165,-3.2506070137023926,54.16252517700195,-125.36201477050781, -18.192903518676758
119,300321019,0.62998223,-0.36652642,-0.17934558,-0.6607693,10.26076602935791,-2.003507614135742,-1.6780707836151123,37.03775405883789,-103.37408447265625, -17.490190505981445
120,300337686,0.62779075,-0.3712073,-0.191208,-0.6569045,10.70158576965332,-2.632465124130249,-1.2750322818756104,33.17276382446289,-83.54269409179688, -17.169301986694336
121,300354353,0.6249431,-0.3754619,-0.20055018,-0.65441144,11.115476608276367,-2.0056264400482178,0.4005618393421173,20.15826416015625,-68.10778045654297, -20.217449188232422
122,300371020,0.6215342,-0.3796886,-0.20852537,-0.6527244,11.380484580993652,-1.4526103734970093,0.06751344352960587,11.554327964782715,-60.82582092285156, -22.732723236083984
123,300387687,0.6187448,-0.38278097,-0.21686661,-0.6508476,10.734949111938477,-2.358668088912964,0.6470293402671814,19.917306900024414,-56.91514587402344, -21.729875564575195
124,300404354,0.61660564,-0.38404423,-0.22619237,-0.6489565,9.51368236541748,-2.1595871448516846,0.7954127788543701,33.830413818359375,-52.00879669189453, -24.107025146484375
125,300421021,0.61535764,-0.38314945,-0.23751137,-0.646622,9.881996154785156,-2.3873679637908936,0.6481729745864868,54.90586471557617,-50.650753021240234, -26.909236907958984
126,300437688,0.61486995,-0.3807289,-0.25025883,-0.64370114,9.733765602111816,-2.1512033939361572,0.8932367563247681,70.66446685791016,-50.234230041503906, -27.35440444946289
127,300454355,0.614719,-0.37766683,-0.2634782,-0.6403652,10.049226760864258,-2.227173089981079,0.8190934658050537,77.05030822753906,-49.91913986206055, -26.501300811767578
128,300471022,0.6140626,-0.37560993,-0.2754086,-0.637177,9.902814865112305,-1.8305091857910156,1.2097820043563843,65.54027557373047,-49.4385986328125, -24.23287582397461
129,300487689,0.61230344,-0.37609515,-0.2852354,-0.6342537,9.678515434265137,-1.2427780628204346,0.9136216640472412,42.231502532958984,-53.115501403808594, -19.970727920532227
130,300504356,0.6091741,-0.37926212,-0.29302466,-0.631826,9.449616432189941,-1.4065645933151245,1.126125454902649,17.52208709716797,-57.69248962402344, -17.516151428222656
131,300521023,0.60495216,-0.38486153,-0.299219,-0.62958914,9.645491600036621,-1.6384893655776978,1.2699155807495117,-2.850735664367676,-63.40578842163086, -14.006319999694824
132,300537690,0.5997025,-0.39247626,-0.3047636,-0.6272468,9.943167686462402,-1.415414571762085,0.6464816927909851,-16.57114028930664,-71.969482421875, -12.151506423950195
133,300554357,0.5927619,-0.40299442,-0.30886236,-0.62516636,10.075912475585938,-1.655716061592102,0.7996973395347595,-39.91228103637695,-81.5029525756836, -10.528385162353516
134,300571024,0.5844318,-0.41621628,-0.31157622,-0.6229959,10.044144630432129,-1.2051520347595215,-0.3067793846130371,-60.56018829345703,-90.8122329711914, -6.542809963226318
135,300587691,0.5743275,-0.4310204,-0.31505036,-0.62057453,10.443894386291504,-0.08848939090967178,0.22517405450344086,-68.2202377319336,-105.26466369628906, -11.900607109069824
136,300604358,0.56415063,-0.4465037,-0.31966004,-0.61659247,10.770176887512207,0.6238239407539368,0.3347473740577698,-62.91318893432617,-117.52534484863281, -7.906867980957031
137,300621025,0.55379146,-0.4614288,-0.32630128,-0.61149496,11.583639144897461,0.7534372210502625,-0.7587726712226868,-50.26679992675781,-126.9483413696289, -11.781314849853516
138,300637692,0.5433265,-0.47583297,-0.33417422,-0.6055633,12.366031646728516,0.20313386619091034,-0.46812742948532104,-41.5806999206543,-132.3833465576172, -14.093547821044922
139,300654359,0.5320243,-0.49025735,-0.34266022,-0.59931785,11.934964179992676,-0.49315011501312256,-0.5674481987953186,-41.13127899169922,-137.7549285888672, -18.34859275817871
140,300671026,0.51959336,-0.5049706,-0.35177386,-0.592691,12.192211151123047,-1.5364562273025513,0.4180157482624054,-42.51356506347656,-145.23348999023438, -23.037172317504883
141,300687693,0.50607884,-0.5199324,-0.36074892,-0.5860163,12.924664497375488,-1.1392104625701904,0.34129798412323,-47.616058349609375,-148.5990447998047, -26.213069915771484
142,300704360,0.49015796,-0.53649276,-0.36803722,-0.58005977,13.77155590057373,-0.6681385040283203,1.3245787620544434,-70.36370849609375,-152.62771606445312, -28.415449142456055
143,300721027,0.47120342,-0.5553402,-0.371881,-0.57555985,15.093901634216309,0.17493227124214172,2.322016954421997,-106.69966888427734,-152.5150146484375, -26.923145294189453
144,300737694,0.44826686,-0.5766281,-0.37061125,-0.5737633,16.423999786376953,2.149984121322632,3.8824636936187744,-156.97621154785156,-145.55337524414062, -25.650609970092773
145,300754361,0.42164403,-0.59917134,-0.36524948,-0.5742849,17.12103271484375,2.850752353668213,5.14204740524292,-197.53175354003906,-138.2106475830078, -27.86578941345215
146,300771028,0.3932005,-0.6210766,-0.3596234,-0.5747421,16.99882698059082,0.7739638090133667,7.150187015533447,-204.07748413085938,-139.89657592773438, -35.334022521972656
147,300787695,0.36635923,-0.6399321,-0.3603341,-0.5713384,17.91385841369629,-5.583264350891113,2.813326358795166,-154.3898468017578,-157.6598663330078, -53.16871643066406
148,300804362,0.34430248,-0.6520743,-0.3697657,-0.56526846,22.588150024414062,-11.66464614868164,8.04857063293457,-75.55887603759766,-153.1996307373047, -82.76310729980469
149,300821029,0.3303825,-0.6600802,-0.37803346,-0.5587776,18.164304733276367,-17.398962020874023,6.725494384765625,-32.759769439697266,-115.74146270751953, -55.62803268432617
150,300837696,0.3137067,-0.6708877,-0.38601583,-0.5499907,13.455055236816406,-9.829190254211426,-5.126871109008789,-46.813175201416016,-143.59225463867188, -52.691097259521484
151,300854363,0.3021467,-0.679535,-0.39388165,-0.54018253,14.759695053100586,-7.566010475158691,-7.050673007965088,-16.317039489746094,-126.21603393554688, -36.44497299194336
152,300871030,0.2946769,-0.68466944,-0.39812386,-0.5346875,12.379715919494629,-3.0854434967041016,-2.312044143676758,-15.072127342224121,-74.31745147705078, -22.85875129699707
153,300887697,0.28886193,-0.68621516,-0.39525554,-0.5379968,10.127874374389648,-5.521304607391357,14.5900239944458,-50.25164794921875,-0.7337338924407959, -10.960199356079102
154,300904364,0.28125438,-0.6879219,-0.3825221,-0.54894114,1.521222710609436,-1.2024658918380737,6.851805210113525,-116.28070831298828,49.140838623046875, 14.164518356323242
155,300921031,0.2746423,-0.6890935,-0.3632266,-0.56372726,5.312304973602295,-2.573383331298828,1.0997282266616821,-145.3980712890625,84.58592987060547, 40.136619567871094
156,300937698,0.28121948,-0.68441015,-0.34613737,-0.5767905,7.270345211029053,-4.934845924377441,1.2869601249694824,-58.97856140136719,127.91618347167969, 69.43049621582031
157,300954365,0.29930478,-0.6737286,-0.33203495,-0.588438,6.880186557769775,-1.4672060012817383,2.0103259086608887,22.000272750854492,166.6627197265625, 89.44400787353516
158,300971032,0.3214799,-0.66006136,-0.3153192,-0.60128486,6.631209850311279,-2.2384188175201416,2.4861221313476562,33.80046081542969,199.0160369873047, 108.85147094726562
159,300987699,0.34822065,-0.64286995,-0.29699138,-0.6142124,7.185790538787842,-3.417524814605713,2.350285053253174,55.49510955810547,227.41476440429688, 127.25464630126953
160,301004366,0.37941688,-0.62175065,-0.27796957,-0.6262603,8.900850296020508,-2.4158833026885986,1.2041094303131104,83.48668670654297,250.8827667236328, 143.2412872314453
161,301021033,0.41343322,-0.59667003,-0.25773075,-0.6376777,10.380648612976074,-1.3788061141967773,-0.11435529589653015,101.87207794189453,273.853271484375, 154.7082061767578
162,301037700,0.44913253,-0.5676904,-0.23669522,-0.6480611,11.649489402770996,-0.6462255120277405,-1.1893556118011475,118.23173522949219,292.0351257324219, 161.4603271484375
163,301054367,0.48503283,-0.5344942,-0.2147286,-0.65799004,13.469551086425781,1.4789553880691528,-1.4948958158493042,128.66358947753906,312.3748779296875, 160.6227264404297
164,301071034,0.51815456,-0.49860972,-0.18961753,-0.6685429,15.671285629272461,2.3119378089904785,-1.6528810262680054,112.2761459350586,333.3669128417969, 153.68331909179688
165,301087701,0.5473475,-0.461751,-0.16114424,-0.67913854,17.04754066467285,1.458853840827942,-1.8451236486434937,86.75624084472656,345.029541015625, 145.86436462402344
166,301104368,0.57402074,-0.42371085,-0.13040653,-0.6884501,19.307268142700195,-0.48050498962402344,-2.639082908630371,74.04725646972656,352.4173583984375, 144.9360809326172
167,301121035,0.59842086,-0.3853568,-0.09907408,-0.695397,21.06490707397461,-2.2482478618621826,-3.787499189376831,67.9913330078125,347.5799865722656, 145.06509399414062
168,301137702,0.62129927,-0.3472912,-0.07017488,-0.6988933,22.11587905883789,-4.383178234100342,-6.032671928405762,76.81666564941406,326.30255126953125, 145.82513427734375
169,301154369,0.6443415,-0.30784008,-0.04786702,-0.6984034,22.13283920288086,-5.20927095413208,-7.734654426574707,116.8503189086914,295.70831298828125, 147.30528259277344
170,301171036,0.6672932,-0.261933,-0.03693819,-0.69623744,21.225566864013672,7.004861831665039,-9.393136978149414,200.63812255859375,273.1094665527344, 128.1305694580078
171,301187703,0.67706615,-0.23678778,-0.016280588,-0.69659734,14.948285102844238,7.08334493637085,-13.509224891662598,34.29881286621094,219.869140625, 76.34722900390625
172,301204370,0.68159527,-0.2287221,0.0012197841,-0.6950632,7.201160907745361,5.886388778686523,-22.047443389892578,-38.46172332763672,119.93164825439453, 56.95751953125
173,301221037,0.6788231,-0.23910044,0.0107326405,-0.6942011,7.231969833374023,2.193340301513672,-21.31702995300293,-98.17274475097656,-4.3893723487854, 6.302559852600098
174,301237704,0.67448187,-0.25389153,0.0034628194,-0.6932542,9.959453582763672,0.8644390106201172,-19.160091400146484,-41.15616989135742,-103.68305969238281, -28.631061553955078
175,301254371,0.66855043,-0.27099204,-0.0131952595,-0.6924087,13.049427032470703,4.015798568725586,-13.575355529785156,-9.787903785705566,-157.8363037109375, -53.087493896484375
176,301271038,0.6617128,-0.2919967,-0.031997982,-0.689819,14.086817741394043,1.7053511142730713,-9.884033203125,-19.059188842773438,-189.3993682861328, -52.9757194519043
177,301287705,0.6558945,-0.31318295,-0.04601352,-0.68527484,17.416858673095703,-12.247764587402344,11.537575721740723,-40.079132080078125,-171.97921752929688, -29.515989303588867
178,301304372,0.6580029,-0.31858397,-0.06601618,-0.6791011,13.069378852844238,-8.598428726196289,17.55223274230957,77.02951049804688,-125.57347869873047, -2.792855978012085
179,301321039,0.6571779,-0.32366994,-0.08957346,-0.67478263,17.869213104248047,8.239154815673828,-6.215527534484863,87.77729797363281,-137.59266662597656, -32.961917877197266
180,301337706,0.65153766,-0.33735847,-0.109094374,-0.67066145,20.84689712524414,3.3871054649353027,-1.2828826904296875,19.227449417114258,-161.51901245117188, -41.78158950805664
181,301354373,0.64487183,-0.35469675,-0.1254855,-0.6652699,10.768723487854004,-4.9817585945129395,-1.5213946104049683,-13.030625343322754,-167.807861328125, -30.695323944091797
182,301371040,0.6431624,-0.3631808,-0.14771205,-0.6577409,11.18368148803711,-5.355301856994629,-4.090123653411865,66.93865966796875,-154.07913208007812, -20.518648147583008
183,301387707,0.64147705,-0.36907387,-0.16778474,-0.65126044,9.569792747497559,-0.3029990494251251,-1.8756250143051147,67.74683380126953,-130.09376525878906, -22.438081741333008
184,301404374,0.6384803,-0.37611347,-0.18188788,-0.64637357,9.183839797973633,-4.561984062194824,-2.623823642730713,30.77901840209961,-106.34343719482422, -18.916566848754883
185,301421041,0.6356341,-0.38096094,-0.19388698,-0.6428422,9.826910972595215,-3.464944362640381,-0.8573565483093262,29.793907165527344,-83.64273834228516, -21.598033905029297
186,301437708,0.6312588,-0.3863265,-0.20288697,-0.6411717,11.119269371032715,-1.632793664932251,-0.03022066503763199,7.796938419342041,-69.9853286743164, -28.004453659057617
187,301454375,0.6262644,-0.39145002,-0.21127184,-0.6402532,11.937210083007812,-1.5172313451766968,0.09180942177772522,3.415114164352417,-65.10282135009766, -32.70572280883789
188,301471042,0.62251335,-0.3942013,-0.22123028,-0.63885826,11.031100273132324,-0.8888240456581116,0.17617592215538025,24.56682777404785,-60.885494232177734, -32.8664665222168
189,301487709,0.6191726,-0.39614224,-0.23130018,-0.6373359,11.004438400268555,-0.26305559277534485,-0.11364131420850754,29.790342330932617,-57.51136016845703, -32.06853485107422
190,301504376,0.6162844,-0.3974172,-0.24153449,-0.63554263,10.634860038757324,-0.6319915056228638,0.17701256275177002,34.962039947509766,-55.33012771606445, -30.45014762878418
191,301521043,0.61374426,-0.39841682,-0.25141755,-0.6335387,10.149971008300781,-1.535848617553711,0.5384193658828735,35.84138870239258,-52.73249053955078, -27.5699405670166
192,301537710,0.6114752,-0.39895192,-0.2611746,-0.63144547,9.512726783752441,-2.232149600982666,0.7121034860610962,38.112022399902344,-50.10753631591797, -26.5263671875
193,301554377,0.6062217,-0.40122488,-0.26845747,-0.63201624,9.101667404174805,-3.3773906230926514,1.0448486804962158,31.17313003540039,-49.694576263427734, -24.90746307373047
194,301571044,0.60292435,-0.4038247,-0.27619642,-0.63017726,8.809961318969727,-2.849626064300537,0.46113163232803345,17.529428482055664,-52.06269836425781, -23.007110595703125
195,301587711,0.5990721,-0.40763503,-0.28394526,-0.6279502,9.065218925476074,-2.3793249130249023,0.70705246925354,11.72767162322998,-59.671142578125, -21.594501495361328
196,301604378,0.5952881,-0.41167635,-0.29339585,-0.6245589,9.401825904846191,-1.4146060943603516,0.5491942763328552,20.563961029052734,-70.98969268798828, -20.87008285522461
197,301621045,0.5902939,-0.4177266,-0.30378175,-0.62030184,9.934242248535156,-0.9576209783554077,-0.11509886384010315,14.64663028717041,-88.49666595458984, -21.14450454711914
198,301637712,0.58421856,-0.42589653,-0.31475228,-0.6150056,10.019396781921387,-0.9766117930412292,0.1749809831380844,7.574230670928955,-105.27877044677734, -18.799598693847656
199,301654379,0.5762086,-0.43702266,-0.32466877,-0.60957813,10.484545707702637,-1.030017375946045,0.07455170154571533,-14.166375160217285,-118.23970031738281, -16.974018096923828
200,301671046,0.56748885,-0.44923988,-0.33371863,-0.6039634,11.509416580200195,0.31110140681266785,-0.07065339386463165,-23.853620529174805,-121.6332015991211, -14.162280082702637
201,301687713,0.5578721,-0.46233723,-0.3427985,-0.59792334,11.492472648620605,0.5273990631103516,-0.8350427746772766,-28.98409652709961,-128.86480712890625, -14.268224716186523
202,301704380,0.54845387,-0.4744792,-0.35307893,-0.59110343,11.993107795715332,1.3035694360733032,-1.0542991161346436,-17.93546485900879,-131.6208953857422, -16.49642562866211
203,301721047,0.53891504,-0.4857613,-0.3641803,-0.5839344,12.441391944885254,-0.18963102996349335,-1.079862117767334,-10.922297477722168,-132.71078491210938, -20.39521026611328
204,301737714,0.5287013,-0.4974904,-0.374732,-0.57667524,12.481964111328125,-0.8484903573989868,-0.5066133737564087,-16.824443817138672,-134.51400756835938, -19.808147430419922
205,301754381,0.5167836,-0.5106956,-0.3835456,-0.5701031,12.80233097076416,-1.7216962575912476,-0.4855751395225525,-36.688533782958984,-136.15858459472656, -19.3150577545166
206,301771048,0.50290275,-0.52547127,-0.39063647,-0.564245,13.037315368652344,-1.3245657682418823,0.2940215468406677,-57.80369186401367,-138.93423461914062, -19.367639541625977
207,301787715,0.4860156,-0.54228896,-0.39526126,-0.5598929,14.300058364868164,-0.5821580290794373,0.6391961574554443,-89.34835052490234,-141.05296325683594, -21.83905601501465
208,301804382,0.46525502,-0.5615379,-0.39575407,-0.5582038,15.945425033569336,0.751007080078125,2.896367311477661,-135.07667541503906,-137.30203247070312, -23.6063232421875
209,301821049,0.4405828,-0.582814,-0.39116713,-0.5596456,17.466461181640625,1.3624064922332764,5.274943828582764,-184.7071075439453,-127.54423522949219, -23.444747924804688
210,301837716,0.41371626,-0.60398346,-0.38470405,-0.56217945,17.757659912109375,-0.4328683614730835,7.07430362701416,-203.35301208496094,-123.18647766113281, -27.901182174682617
211,301854383,0.3885373,-0.6226593,-0.3837249,-0.5604367,18.972524642944336,-6.5731916427612305,3.582301378250122,-156.74534606933594,-142.68576049804688, -38.57806396484375
212,301871050,0.3670589,-0.6366612,-0.39087287,-0.55421007,21.174163818359375,-7.812904357910156,6.374978542327881,-85.27526092529297,-155.9708251953125, -59.59558868408203
213,301887717,0.34642604,-0.64700204,-0.39604813,-0.55183643,21.20362663269043,-12.365019798278809,11.671429634094238,-90.23329162597656,-118.12309265136719, -67.46052551269531
214,301904384,0.32489234,-0.6585543,-0.39653188,-0.5509209,14.316853523254395,-10.273009300231934,-0.247348353266716,-118.9529800415039,-107.85833740234375, -50.44506072998047
215,301921051,0.30164695,-0.6724428,-0.39601803,-0.5477222,14.909489631652832,-11.346369743347168,-6.491398334503174,-129.52676391601562,-129.51712036132812, -41.13728332519531
216,301937718,0.2868303,-0.68299174,-0.39384878,-0.54418176,12.94563102722168,-4.858828067779541,-3.8687102794647217,-88.98109436035156,-92.02725982666016, -10.317803382873535
217,301954385,0.2747529,-0.6895748,-0.38845092,-0.5459886,10.185542106628418,-5.948196887969971,5.90820837020874,-94.87830352783203,-38.25049591064453, -6.2494611740112305
218,301971052,0.27293503,-0.6907936,-0.38116038,-0.5504793,7.158454418182373,-4.594938278198242,10.627561569213867,-50.391632080078125,25.411291122436523, 21.7462100982666
219,301987719,0.2750294,-0.6893018,-0.37134182,-0.557967,4.360653400421143,-0.30907171964645386,4.904370307922363,-44.14789962768555,64.6460189819336, 35.762123107910156
220,302004386,0.28137815,-0.68558234,-0.35794684,-0.5680472,6.724167346954346,-3.6452908515930176,2.1775598526000977,-40.08955001831055,103.02127838134766, 58.477935791015625
221,302021053,0.3013772,-0.67586786,-0.34701562,-0.57615525,6.501641273498535,-4.28464937210083,1.7009531259536743,50.345924377441406,145.933837890625, 89.2119140625
222,302037720,0.32938746,-0.66023725,-0.3372749,-0.58466786,6.309681415557861,-0.8190414905548096,3.417808771133423,103.61223602294922,187.87371826171875, 100.44197082519531
223,302054387,0.35865408,-0.64147353,-0.32332188,-0.5961057,6.775035381317139,-1.9138115644454956,3.0051872730255127,92.72622680664062,226.14736938476562, 110.7862777709961
224,302071054,0.39140594,-0.6182548,-0.3068634,-0.6086028,7.715127944946289,-1.8207166194915771,2.25219464302063,106.49730682373047,262.98284912109375, 123.65181732177734
225,302087721,0.4255284,-0.59112996,-0.2869501,-0.62221444,9.454961776733398,-0.7814061045646667,0.7737464904785156,106.06558990478516,296.2665100097656, 132.8890838623047
226,302104388,0.4608415,-0.5597917,-0.2643845,-0.63589245,11.47192096710205,-0.3559727370738983,-0.8171806931495667,111.79143524169922,324.7464294433594, 140.34716796875
227,302121055,0.4954342,-0.525793,-0.23847975,-0.64901006,13.016746520996094,0.4410468339920044,-1.745392084121704,103.9023208618164,343.6278991699219, 147.09901428222656
228,302137722,0.5277211,-0.4904328,-0.20882064,-0.66134727,15.418339729309082,1.0454521179199219,-2.201782464981079,84.75236511230469,356.0765380859375, 150.93783569335938
229,302154389,0.5578311,-0.45291805,-0.17697531,-0.6725843,18.4383544921875,1.541849970817566,-2.7485008239746094,76.88980865478516,367.2181396484375, 149.46185302734375
230,302171056,0.5845987,-0.41482165,-0.14283901,-0.68246937,20.7179012298584,0.6888585090637207,-3.863187074661255,59.766361236572266,370.7333984375, 145.78965759277344
231,302187723,0.6084847,-0.37740406,-0.10784293,-0.68969744,22.29303550720215,-2.71801495552063,-5.372121810913086,47.41633987426758,360.9783020019531, 146.23837280273438
232,302204390,0.6315589,-0.34128463,-0.075701274,-0.6920461,22.4389591217041,-6.7156901359558105,-7.274783611297607,57.136573791503906,330.0503845214844, 156.49429321289062
233,302221057,0.6569077,-0.30161896,-0.05407766,-0.68889344,22.74150276184082,-7.014118671417236,-9.409185409545898,131.0219268798828,290.0050964355469, 164.77157592773438
234,302237724,0.6786164,-0.2559613,-0.043809224,-0.687055,21.264698028564453,14.004544258117676,-10.444624900817871,204.0979461669922,269.0155944824219, 115.85167694091797
235,302254391,0.68777734,-0.23405941,-0.026197325,-0.686653,12.118833541870117,3.2001752853393555,-18.602039337158203,35.77010726928711,190.26556396484375, 70.16541290283203
236,302271058,0.6908515,-0.22978401,-0.014592442,-0.6853545,6.644779205322266,8.934635162353516,-22.8289794921875,-28.782438278198242,76.44056701660156, 39.31792068481445
237,302287725,0.6863344,-0.24700053,-0.008610184,-0.68400437,7.919579029083252,-0.35716870427131653,-21.645341873168945,-116.3956069946289,-52.16158676147461, -2.7545218467712402
238,302304392,0.68148357,-0.26171973,-0.022669466,-0.68305874,11.799639701843262,1.9170138835906982,-17.497644424438477,-10.774589538574219,-134.08148193359375, -40.332801818847656
239,302321059,0.6755931,-0.2781465,-0.0441329,-0.681367,14.206657409667969,2.9914767742156982,-12.299596786499023,14.320110321044922,-177.96710205078125, -54.737525939941406
240,302337726,0.66966224,-0.2964647,-0.068403095,-0.6774821,14.688240051269531,0.8819519877433777,-9.006272315979004,19.293941497802734,-203.7312469482422, -49.468780517578125
241,302354393,0.6655652,-0.31275854,-0.08725841,-0.67200536,17.360389709472656,-13.991705894470215,15.62343978881836,7.925042152404785,-171.42300415039062, -23.469743728637695
242,302371060,0.66902125,-0.3132549,-0.11192096,-0.6646471,11.343326568603516,-5.221735954284668,15.240809440612793,124.58779907226562,-124.51715087890625, -2.1446447372436523
243,302387727,0.66718537,-0.31732023,-0.13428475,-0.6604085,17.816463470458984,10.028020858764648,-6.127071857452393,83.82981872558594,-127.76119995117188, -33.1563835144043
244,302404394,0.6600221,-0.3318245,-0.15062357,-0.6569444,19.783905029296875,2.0792572498321533,-1.687232255935669,-3.9443447589874268,-150.3823699951172, -37.92725372314453
245,302421061,0.65320945,-0.34801164,-0.16534233,-0.6518186,10.73541259765625,-6.222199440002441,-2.698558807373047,-16.415939331054688,-153.75665283203125, -23.23182487487793
246,302437728,0.65136373,-0.35476214,-0.18631968,-0.6443246,11.77724552154541,-3.961091995239258,-3.814382791519165,68.72460174560547,-139.48406982421875, -16.18252182006836
247,302454395,0.64835334,-0.36132383,-0.2039465,-0.63834864,10.07953929901123,0.16483981907367706,-1.1211473941802979,50.01862335205078,-121.26780700683594, -20.349294662475586
248,302471062,0.644763,-0.36807868,-0.21727183,-0.63371295,9.89863109588623,-4.797084331512451,-2.053400993347168,26.931364059448242,-100.3711929321289, -17.947994232177734
249,302487729,0.6415299,-0.37287635,-0.22890134,-0.63008463,10.087369918823242,-3.648284673690796,-0.08816106617450714,27.675270080566406,-81.17452239990234, -19.612333297729492
250,302504396,0.63702285,-0.3785645,-0.23741148,-0.62811387,10.912718772888184,-1.2389564514160156,-0.20273932814598083,4.371920585632324,-69.00932312011719, -23.12322235107422
251,302521063,0.63267577,-0.38353625,-0.24573413,-0.6262877,11.604684829711914,-1.601318120956421,-0.11090677231550217,6.8501739501953125,-64.41836547851562, -23.749401092529297
252,302537730,0.6295533,-0.38639298,-0.25529537,-0.623849,10.671296119689941,-1.009106993675232,0.4105900526046753,25.624370574951172,-60.19417953491211, -22.673730850219727
253,302554397,0.6264977,-0.3893208,-0.26452622,-0.62125355,10.46696662902832,-0.8914023041725159,0.4732772707939148,24.319143295288086,-59.35037612915039, -20.73280143737793
254,302571064,0.6228666,-0.39365917,-0.27274844,-0.61860985,10.011578559875488,-1.3262667655944824,0.8452068567276001,12.44882583618164,-62.19519805908203, -17.735334396362305
255,302587731,0.6191158,-0.39845356,-0.2806522,-0.6157635,9.499526023864746,-1.8990505933761597,1.0159025192260742,9.173834800720215,-63.55322265625, -15.681653022766113
256,302604398,0.61470324,-0.4039965,-0.2880587,-0.6131468,9.09832763671875,-3.228362560272217,0.4978425204753876,1.6139780282974243,-65.27791595458984, -16.68503189086914
257,302621065,0.60999584,-0.4097897,-0.295654,-0.61038196,8.432382583618164,-3.913682460784912,0.8867083191871643,0.8343930244445801,-68.1401596069336, -17.393478393554688
258,302637732,0.6045829,-0.4165439,-0.30326256,-0.60745573,8.965100288391113,-2.946127414703369,-0.22126881778240204,-4.79094123840332,-74.15564727783203, -17.84464454650879
259,302654399,0.5987347,-0.42350233,-0.31184763,-0.60408086,9.731630325317383,-1.3450450897216797,0.0971970185637474,-1.8742681741714478,-81.28768920898438, -20.219717025756836
260,302671066,0.59216887,-0.43122047,-0.32173797,-0.59989154,9.915857315063477,-0.8510401844978333,-0.5486614108085632,0.03348330035805702,-93.81417846679688, -22.033842086791992
261,302687733,0.58507967,-0.43898612,-0.33352497,-0.5947556,10.719897270202637,-0.3968854248523712,-0.6823573708534241,8.15389633178711,-105.8091812133789, -25.864688873291016
262,302704400,0.5769345,-0.44866335,-0.34376922,-0.5896359,10.991947174072266,-1.990691065788269,-0.14669275283813477,-9.128630638122559,-109.9281997680664, -21.199560165405273
263,302721067,0.5687775,-0.45775142,-0.35415605,-0.58440524,11.98129653930664,1.114000678062439,-1.13712739944458,-6.030900955200195,-108.65504455566406, -22.668432235717773
264,302737734,0.5602898,-0.46739867,-0.36440656,-0.57863784,11.943818092346191,0.6664235591888428,-0.4260704517364502,-8.562636375427246,-113.01859283447266, -20.043846130371094
265,302754401,0.5516702,-0.47704875,-0.3748131,-0.57236356,12.06301212310791,1.603581190109253,-1.2348062992095947,-7.162261009216309,-115.78607940673828, -19.06791877746582
266,302771068,0.5420933,-0.48702735,-0.38536027,-0.56607145,12.651930809020996,0.3197401463985443,-0.8395121097564697,-11.00524616241455,-120.31301879882812, -22.31793975830078
267,302787735,0.5314294,-0.49786702,-0.39516795,-0.5599587,12.510112762451172,-0.7933663725852966,-0.548256516456604,-21.247934341430664,-123.377685546875, -22.428668975830078
268,302804402,0.5188703,-0.5106559,-0.4035443,-0.55421674,12.354351997375488,-2.159982681274414,0.37577301263809204,-41.407676696777344,-129.73776245117188, -20.877199172973633
269,302821069,0.50431436,-0.5250957,-0.41064376,-0.54892015,13.043795585632324,-1.1265257596969604,0.48201248049736023,-60.437286376953125,-135.68507385253906, -21.02886962890625
270,302837736,0.48634675,-0.54184437,-0.41509384,-0.54549843,14.195592880249023,0.29551073908805847,1.3256499767303467,-96.08753967285156,-138.31109619140625, -24.29179573059082
271,302854403,0.46432108,-0.5614156,-0.41519284,-0.54482406,15.919837951660156,2.160449266433716,3.313025951385498,-144.8435821533203,-135.95558166503906, -24.34177589416504
272,302871070,0.4386765,-0.5827571,-0.41126332,-0.5466439,16.86893653869629,2.308016777038574,4.954195022583008,-186.716064453125,-130.75436401367188, -25.10601806640625
273,302887737,0.41230872,-0.6026222,-0.4074373,-0.5484916,17.668701171875,-0.6088983416557312,6.695986747741699,-184.8706817626953,-127.81889343261719, -32.366539001464844
274,302904404,0.3884801,-0.6193298,-0.40903452,-0.54608136,19.602115631103516,-6.740622520446777,4.721424102783203,-133.0275115966797,-142.21510314941406, -42.03048324584961
275,302921071,0.3635124,-0.6350832,-0.40558264,-0.5477508,21.53663444519043,-12.607056617736816,9.493315696716309,-165.80270385742188,-111.30607604980469, -38.559959411621094
276,302937738,0.33736944,-0.6498224,-0.41011685,-0.5437987,15.6282958984375,-11.719413757324219,-1.5875353813171387,-122.71287536621094,-155.7410430908203, -66.98204803466797
277,302954405,0.31821582,-0.65978825,-0.42190212,-0.53424436,16.455392837524414,-11.87114143371582,-4.39288854598999,-37.56736755371094,-160.1190185546875, -74.0052490234375
278,302971072,0.30125058,-0.66957396,-0.4279742,-0.52702653,15.606582641601562,-6.1663923263549805,-3.1362311840057373,-55.09376525878906,-130.03121948242188, -45.963706970214844
279,302987739,0.28192005,-0.68063796,-0.4236271,-0.5270609,11.79171371459961,-7.085049152374268,2.3725204467773438,-127.78487396240234,-86.71331787109375, -17.947885513305664
280,303004406,0.27017805,-0.68618464,-0.4161736,-0.53193426,9.253403663635254,-6.857755184173584,13.279292106628418,-106.96854400634766,-16.128162384033203, -1.507279872894287
281,303021073,0.25959843,-0.6904573,-0.40197277,-0.5424899,3.449934244155884,-1.187497854232788,5.454125881195068,-140.08489990234375,30.76093292236328, 20.209768295288086
282,303037740,0.25174946,-0.69335246,-0.38314226,-0.5559557,5.310417175292969,-3.8314754962921143,1.9359338283538818,-149.9547882080078,65.3971176147461, 43.371543884277344
283,303054407,0.26071045,-0.69023204,-0.36980408,-0.5646723,6.159948348999023,-5.415727615356445,1.6157869100570679,-25.88296890258789,100.47148132324219, 73.74995422363281
284,303071074,0.28394896,-0.6805871,-0.36182895,-0.5703106,6.5179619789123535,-2.0248312950134277,2.463162899017334,82.23375701904297,137.81459045410156, 92.57154083251953
285,303087741,0.3130078,-0.6667907,-0.35304818,-0.57686526,6.604633808135986,-1.3724998235702515,3.0099921226501465,112.18022155761719,174.34341430664062, 107.06441497802734
286,303104408,0.34548122,-0.6494073,-0.34186065,-0.5848455,6.416018486022949,-3.403503894805908,2.3615472316741943,122.59149932861328,208.48138427734375, 119.91084289550781
287,303121075,0.3821653,-0.6275097,-0.32898155,-0.5932558,8.147477149963379,-2.979480504989624,1.3355906009674072,144.35214233398438,242.4127655029297, 132.77098083496094
288,303137742,0.42111185,-0.60107017,-0.31298625,-0.6028425,10.303505897521973,-1.2908620834350586,0.012464046478271484,150.7331085205078,279.3100891113281, 142.11570739746094
289,303154409,0.45976022,-0.5710441,-0.29322967,-0.6136331,11.757036209106445,-0.37585362792015076,-0.8091094493865967,141.75759887695312,309.4513244628906, 145.31068420410156
290,303171076,0.49584305,-0.5391996,-0.2685638,-0.6255216,12.930776596069336,0.945995032787323,-0.9811161756515503,114.54722595214844,331.8842468261719, 146.7439727783203
291,303187743,0.5273893,-0.5079035,-0.23810118,-0.6381242,15.067193984985352,1.5530036687850952,-1.669990062713623,69.62639617919922,343.7018127441406, 147.45242309570312
292,303204410,0.5569287,-0.47466663,-0.20541571,-0.6498666,17.856470108032227,1.1822712421417236,-3.087510585784912,61.33796691894531,354.2120666503906, 146.5315399169922
293,303221077,0.5846037,-0.43914312,-0.17142756,-0.66030633,20.345966339111328,0.6782123446464539,-3.267528533935547,60.062320709228516,362.8584899902344, 144.4033660888672
294,303237744,0.60913664,-0.40503258,-0.1350407,-0.66833025,21.610288619995117,-2.831225633621216,-4.342256546020508,36.88156509399414,355.4621887207031, 148.95993041992188
295,303254411,0.6328494,-0.3715468,-0.10076085,-0.67179036,23.142187118530273,-5.676569938659668,-7.595293998718262,46.00998306274414,330.72235107421875, 159.17279052734375
296,303271078,0.6588266,-0.33479443,-0.07592517,-0.6693995,22.931636810302734,-7.746681213378906,-10.257163047790527,113.91780090332031,291.8739318847656, 168.83389282226562
297,303287745,0.6858831,-0.2850672,-0.070135355,-0.66586965,21.49390411376953,8.399734497070312,-11.166488647460938,263.807373046875,263.8860168457031, 128.40167236328125
298,303304412,0.7017286,-0.24951655,-0.064619444,-0.6641858,14.216191291809082,5.344621658325195,-17.552839279174805,175.18453979492188,196.43746948242188, 74.80311584472656
299,303321079,0.70922744,-0.23400985,-0.0619164,-0.66211957,7.009743690490723,11.483391761779785,-21.794462203979492,77.15877532958984,87.42435455322266, 42.6876106262207
300,303337746,0.70635134,-0.24734403,-0.05734011,-0.6607579,6.03080415725708,0.7217377424240112,-21.06089973449707,-89.09667205810547,-37.72600555419922, 7.536396503448486
301,303354413,0.7026548,-0.25834036,-0.07247905,-0.659002,10.344861030578613,1.618802785873413,-17.58892250061035,10.703908920288086,-123.58258819580078, -28.683008193969727
302,303371080,0.6963161,-0.27128962,-0.095142715,-0.6576426,13.43021011352539,3.7598323822021484,-11.695269584655762,30.548107147216797,-169.04774475097656, -54.93006134033203
303,303387747,0.6880538,-0.2927131,-0.11032475,-0.65477455,16.406387329101562,-8.59585189819336,1.5848498344421387,-46.49827194213867,-175.2576141357422, -36.81766891479492
304,303404414,0.6825219,-0.30826366,-0.12256808,-0.6512408,16.419708251953125,-7.226846218109131,16.681167602539062,-25.783151626586914,-133.959716796875, -19.946918487548828
305,303421081,0.67705625,-0.32193327,-0.13980098,-0.6468459,15.683371543884277,1.271602749824524,-5.899916172027588,6.263241767883301,-150.80064392089844, -27.816843032836914
306,303437748,0.6712807,-0.33301103,-0.16363497,-0.6416459,20.846467971801758,1.647100567817688,-1.927809476852417,47.7696418762207,-171.76063537597656, -42.513675689697266
307,303454415,0.66194934,-0.34981114,-0.18129526,-0.6376419,10.81216049194336,1.353809118270874,0.3757920563220978,-15.416303634643555,-169.41384887695312, -43.0492057800293
308,303471082,0.6539803,-0.3657178,-0.1957029,-0.6326618,10.595958709716797,-5.9370222091674805,-4.9264068603515625,-21.178617477416992,-151.30287170410156, -25.868406295776367
309,303487749,0.6523306,-0.37097344,-0.21597874,-0.6246573,11.0491943359375,-4.611663341522217,-4.58827018737793,72.3431625366211,-130.30091857910156, -14.016029357910156
310,303504416,0.6505468,-0.374979,-0.23297448,-0.6179826,10.006017684936523,-1.0197515487670898,-1.8786429166793823,61.63654327392578,-106.8597183227539, -14.2337646484375
311,303521083,0.6474395,-0.3794936,-0.24598548,-0.6134313,10.744218826293945,-2.4300339221954346,-0.45912542939186096,35.60514450073242,-87.78167724609375, -18.349348068237305
312,303537750,0.6433671,-0.38421673,-0.2562214,-0.6105794,11.134317398071289,-1.1275583505630493,0.13921086490154266,17.572803497314453,-73.4706802368164, -22.46514892578125
313,303554417,0.6382629,-0.38971254,-0.26474658,-0.6088136,12.196648597717285,-0.63104647397995,-0.16900315880775452,2.2958180904388428,-68.07422637939453, -25.730178833007812
314,303571084,0.63342863,-0.39451545,-0.272775,-0.6072228,11.048852920532227,-1.6222034692764282,0.9733754396438599,3.6151936054229736,-61.984283447265625, -25.279470443725586
315,303587751,0.62916094,-0.39828685,-0.28072107,-0.605574,10.274356842041016,-1.5787408351898193,-0.23988479375839233,9.37511157989502,-56.42213821411133, -24.389690399169922
316,303604418,0.6256181,-0.4006656,-0.28928015,-0.60364395,10.367168426513672,-1.6465628147125244,0.09274707734584808,20.447959899902344,-52.632530212402344, -24.557538986206055
317,303621085,0.6228329,-0.4021244,-0.2976789,-0.601467,9.994660377502441,-1.4950454235076904,0.3319332003593445,26.2893123626709,-47.29174041748047, -21.78743553161621
318,303637752,0.62068063,-0.40202275,-0.30642197,-0.5993653,10.084965705871582,-1.8161886930465698,0.5712419748306274,35.956878662109375,-40.815921783447266, -23.698904037475586
319,303654419,0.618552,-0.40161446,-0.31471553,-0.5975394,9.73194408416748,-2.6386969089508057,0.9873732924461365,34.86513137817383,-36.856380462646484, -24.255611419677734
320,303671086,0.6156562,-0.40281725,-0.3213678,-0.5961783,9.401771545410156,-2.839871644973755,1.1486315727233887,18.117517471313477,-36.96726989746094, -21.453001022338867
321,303687753,0.61178493,-0.40594375,-0.32724705,-0.59484315,8.980874061584473,-2.5586376190185547,1.2296791076660156,4.019401550292969,-43.800533294677734, -19.240802764892578
322,303704420,0.60715914,-0.41044772,-0.33352888,-0.59300005,9.419011116027832,-1.979981780052185,0.7350348234176636,-1.1184684038162231,-54.41472625732422, -18.2641658782959
323,303721087,0.60129565,-0.41662535,-0.3401058,-0.5909273,9.72733211517334,-1.5443613529205322,0.6853578686714172,-9.907520294189453,-66.11943054199219, -19.37239646911621
324,303737754,0.593643,-0.4257074,-0.34580997,-0.5888776,9.994922637939453,-2.404458522796631,0.6937455534934998,-30.680742263793945,-78.5984878540039, -17.438541412353516
325,303754421,0.58492893,-0.43572402,-0.3527638,-0.5861404,10.850005149841309,0.06663784384727478,0.29614710807800293,-30.940650939941406,-92.19210052490234, -20.37421417236328
326,303771088,0.57495475,-0.44754627,-0.36055857,-0.5823463,10.576358795166016,-0.19395160675048828,0.3034234941005707,-36.08269119262695,-109.23109436035156, -19.278703689575195
327,303787755,0.56429946,-0.46036547,-0.36970615,-0.57701576,10.98122501373291,0.8901730179786682,0.3762664198875427,-32.94197082519531,-125.15583038330078, -17.57509422302246
328,303804422,0.5529882,-0.47346964,-0.38056505,-0.57026374,11.575616836547852,0.7569138407707214,-0.5053931474685669,-25.77189064025879,-139.26564025878906, -19.287927627563477
329,303821089,0.54085207,-0.48687667,-0.39214593,-0.5627183,12.29024887084961,0.6248078942298889,-0.2865941524505615,-24.74112892150879,-148.0826416015625, -21.00832748413086
330,303837756,0.52714235,-0.5011098,-0.40388307,-0.5548769,12.319717407226562,-0.6606707572937012,-0.4112113118171692,-31.71383285522461,-157.2465362548828, -24.242773056030273
331,303854423,0.5122129,-0.51578635,-0.41512692,-0.5470578,13.057767868041992,-0.9815433621406555,0.3031729757785797,-39.49525451660156,-160.61668395996094, -26.031761169433594
332,303871090,0.49495414,-0.53132606,-0.42477694,-0.540627,13.620010375976562,-0.15888932347297668,0.37065955996513367,-60.783390045166016,-160.15945434570312, -31.55100440979004
333,303887757,0.4737844,-0.54898643,-0.4311425,-0.5368971,15.139542579650879,0.7630106806755066,2.0334229469299316,-102.4227066040039,-158.61883544921875, -37.02725601196289
334,303904424,0.44777998,-0.5695459,-0.4321163,-0.53701603,16.690114974975586,1.9904298782348633,3.9991977214813232,-161.47608947753906,-151.82977294921875, -38.34998321533203
335,303921091,0.4187576,-0.591082,-0.42938972,-0.53934103,17.53120994567871,1.1368263959884644,5.6079230308532715,-196.5564727783203,-144.71774291992188, -38.73362350463867
336,303937758,0.38976505,-0.610739,-0.4278942,-0.54035896,17.71535301208496,-3.144723415374756,6.916543960571289,-182.6162109375,-146.91969299316406, -45.306602478027344
337,303954425,0.3636601,-0.6260037,-0.4347388,-0.5356054,19.706161499023438,-6.274852275848389,3.5990381240844727,-110.76345825195312,-169.1203155517578, -67.13339233398438
338,303971092,0.33846462,-0.6384439,-0.4439383,-0.5298586,23.062883377075195,-15.463348388671875,8.530723571777344,-88.18760681152344,-166.48023986816406, -80.07441711425781
339,303987759,0.32177192,-0.6480101,-0.44940874,-0.52400154,19.127748489379883,-17.10343360900879,7.988360404968262,-57.522735595703125,-122.34889221191406, -41.71096420288086
340,304004426,0.3016125,-0.65843034,-0.45434323,-0.5187213,13.918045043945312,-6.7857346534729,-3.5888726711273193,-78.70455169677734,-132.83053588867188, -50.94901657104492
341,304021093,0.28221262,-0.6697429,-0.45513526,-0.5144437,14.69659423828125,-7.606515407562256,-7.340998649597168,-95.09719848632812,-120.52946472167969, -28.941974639892578
342,304037760,0.27173394,-0.6769937,-0.4546106,-0.5110476,10.998082160949707,-5.7891974449157715,-1.8875012397766113,-53.63074493408203,-71.55570983886719, -5.921606063842773
343,304054427,0.2713551,-0.6774579,-0.45475695,-0.510503,9.562039375305176,-5.072689056396484,13.94071102142334,-0.5425025820732117,-4.200162410736084, -0.22850368916988373
344,304071094,0.27049422,-0.67824113,-0.44578508,-0.5177817,3.2111661434173584,-1.2571941614151,7.187819004058838,-59.845359802246094,46.10087966918945, 26.817224502563477
345,304087761,0.27363408,-0.67726773,-0.43308356,-0.5280829,5.8053879737854,-2.844938278198242,1.6412793397903442,-60.4285888671875,85.4378662109375, 47.44023895263672
346,304104428,0.289743,-0.67122644,-0.42185593,-0.53622925,6.829955101013184,-5.149310111999512,1.7625887393951416,21.289047241210938,129.58135986328125, 76.58399963378906
347,304121095,0.31639642,-0.6597214,-0.41191265,-0.54312897,6.199623107910156,-1.4930158853530884,3.4338419437408447,89.21354675292969,171.90963745117188, 96.07701110839844
348,304137762,0.34519646,-0.64524424,-0.3978558,-0.5533627,6.697728157043457,-0.9026159644126892,4.075160503387451,80.66698455810547,213.0351104736328, 107.10319519042969
349,304154429,0.37671372,-0.62751,-0.38010448,-0.5655428,7.298811912536621,-2.276268482208252,2.9914498329162598,81.1287841796875,250.14332580566406, 120.3489761352539
350,304171096,0.4114052,-0.6058744,-0.3592547,-0.5784446,9.039024353027344,-1.111242413520813,1.7398240566253662,91.05345153808594,284.68035888671875, 134.01864624023438
351,304187763,0.44778368,-0.57995766,-0.33559063,-0.59204566,11.15014934539795,-0.16565507650375366,-0.43960273265838623,97.33452606201172,316.7438049316406, 139.9706573486328
352,304204430,0.4846552,-0.5500267,-0.30938882,-0.60568845,12.9035062789917,0.44556957483291626,-1.4708991050720215,101.30110931396484,342.29547119140625, 142.82302856445312
353,304221097,0.5193508,-0.5187763,-0.27865827,-0.61927027,14.441507339477539,1.4844551086425781,-1.4753299951553345,78.79019927978516,358.1776123046875, 148.43199157714844
354,304237764,0.5506551,-0.48754096,-0.24386117,-0.63215095,16.85028839111328,1.7249256372451782,-2.4439697265625,50.69499588012695,363.83380126953125, 151.20863342285156
355,304254431,0.5798866,-0.45408863,-0.20821856,-0.64356816,20.1795654296875,1.9863941669464111,-3.687851667404175,50.956600189208984,368.586669921875, 147.06167602539062
356,304271098,0.6057356,-0.4206338,-0.17164955,-0.6532138,21.70893096923828,-0.49255701899528503,-4.591174125671387,38.86662673950195,362.3197326660156, 142.2815704345703
357,304287765,0.63077545,-0.38616467,-0.1386259,-0.65862125,21.991729736328125,-5.2916741371154785,-6.630235195159912,61.754207611083984,339.37200927734375, 145.04368591308594
358,304304432,0.6572828,-0.34887153,-0.11422754,-0.6581947,22.225177764892578,-7.252985000610352,-8.761167526245117,122.7448959350586,301.20135498046875, 151.51910400390625
359,304321099,0.68676764,-0.3043503,-0.102704436,-0.65205294,22.1621036529541,-3.1766767501831055,-11.347124099731445,225.63577270507812,264.99493408203125, 154.3148193359375
360,304337766,0.70685077,-0.2619944,-0.09581758,-0.6500307,18.216554641723633,13.765119552612305,-11.701119422912598,213.7993621826172,236.03306579589844, 84.56228637695312
361,304354433,0.71611464,-0.24437903,-0.08424987,-0.6483525,8.265260696411133,3.356142997741699,-19.493431091308594,52.637786865234375,142.2327423095703, 59.52083206176758
362,304371100,0.7165584,-0.24708687,-0.07611739,-0.64784145,6.8934173583984375,5.397669792175293,-20.442995071411133,-47.48875045776367,31.944808959960938, 20.684358596801758
363,304387767,0.71138173,-0.26350904,-0.07619634,-0.6470652,8.911760330200195,-1.7361887693405151,-19.320602416992188,-87.90628051757812,-72.63029479980469, -9.67761516571045
364,304404434,0.7046853,-0.2785057,-0.09006182,-0.64632976,12.133919715881348,2.4974730014801025,-14.490503311157227,-22.18844223022461,-134.05113220214844, -42.2774772644043
365,304421101,0.6970521,-0.29561743,-0.108705655,-0.64413655,12.885769844055176,1.6122817993164062,-11.395353317260742,-12.064444541931152,-169.55010986328125, -47.11331558227539
366,304437768,0.6892282,-0.31426075,-0.12872271,-0.6400275,14.122509956359863,-1.4062896966934204,-5.544361114501953,-12.244256973266602,-186.5564727783203, -40.33741760253906
367,304454435,0.685024,-0.3295665,-0.14230047,-0.633939,16.238800048828125,-16.227380752563477,20.619903564453125,-15.126386642456055,-142.09580993652344, -4.040156364440918
368,304471102,0.6863447,-0.33119863,-0.16241975,-0.62678427,11.264485359191895,1.314244031906128,8.243696212768555,91.53636169433594,-110.49263000488281, -3.446835994720459
369,304487769,0.68245876,-0.33849367,-0.1802417,-0.622242,21.39696502685547,5.433589458465576,-7.746920585632324,40.021705627441406,-123.97696685791016, -26.68450164794922
370,304504436,0.6745443,-0.35260525,-0.19627331,-0.6181718,17.602161407470703,-0.20283018052577972,0.7837138175964355,-9.665982246398926,-148.0757293701172, -33.317359924316406
371,304521103,0.6673413,-0.36649233,-0.21166141,-0.612812,10.305803298950195,-6.348796367645264,-3.7921197414398193,-7.917343616485596,-146.07403564453125, -22.977214813232422
372,304537770,0.6648982,-0.3707279,-0.2332424,-0.60503656,11.842635154724121,-2.9713284969329834,-2.1844756603240967,78.10757446289062,-132.81593322753906, -21.685230255126953
373,304554437,0.66040474,-0.37669945,-0.24969898,-0.5996779,9.525734901428223,-0.36462122201919556,-0.48927372694015503,39.78272247314453,-113.57904052734375, -25.564617156982422
374,304571104,0.6554553,-0.38312498,-0.26226944,-0.59565806,10.038230895996094,-4.1553120613098145,-1.2574537992477417,18.178165435791016,-95.07937622070312, -22.722431182861328
375,304587771,0.65043217,-0.38841915,-0.2730828,-0.5928698,10.492924690246582,-2.2734944820404053,-0.034352660179138184,13.690659523010254,-79.34476470947266, -26.09830665588379
376,304604438,0.6442716,-0.3945591,-0.28162354,-0.59154505,11.37732219696045,-0.9250873327255249,-0.05984972417354584,-5.167494773864746,-70.81999206542969, -29.65647315979004
377,304621105,0.63887316,-0.39948493,-0.29046136,-0.58981794,11.100439071655273,-2.332624912261963,0.6424151062965393,4.209954738616943,-66.76380920410156, -27.918787002563477
378,304637772,0.6351803,-0.40131226,-0.30113804,-0.58720565,10.0690336227417,-1.372665524482727,0.695099413394928,31.698402404785156,-61.27928924560547, -28.411251068115234
379,304654439,0.63189083,-0.40227506,-0.3123607,-0.5842257,10.404519081115723,-1.3875330686569214,0.14329731464385986,39.496253967285156,-60.37318420410156, -28.547470092773438
380,304671106,0.6292404,-0.40215847,-0.32431072,-0.58064455,9.872180938720703,-1.4170169830322266,0.9078795909881592,50.11118698120117,-59.5206184387207, -27.788410186767578
381,304687773,0.6263593,-0.40250772,-0.33537585,-0.5772216,9.476998329162598,-1.6973751783370972,0.3640582859516144,43.51181411743164,-57.72868347167969, -26.002779006958008
382,304704440,0.62273264,-0.40400612,-0.34507778,-0.5743732,9.28112506866455,-2.1922154426574707,0.816134512424469,29.710220336914062,-56.66069793701172, -25.101118087768555
383,304721107,0.618223,-0.40752384,-0.35312358,-0.571864,8.659034729003906,-2.4610214233398438,0.5608627796173096,11.218605041503906,-58.8502082824707, -20.724079132080078
384,304737774,0.61316925,-0.41212863,-0.36107168,-0.5690352,9.211752891540527,-2.1287472248077393,0.770743727684021,5.425619125366211,-65.0923080444336, -18.65618133544922
385,304754441,0.6075802,-0.41763446,-0.37020534,-0.56513345,9.44749927520752,-1.9606285095214844,0.5994716286659241,7.37020206451416,-78.16078186035156, -17.3988094329834
386,304771108,0.60092914,-0.42458698,-0.38096195,-0.5598914,9.752717018127441,-1.2950162887573242,0.08419522643089294,7.956533432006836,-97.28865051269531, -16.949033737182617
387,304787775,0.5927188,-0.43354216,-0.3922486,-0.5539558,10.181428909301758,-0.7302711606025696,0.3213573694229126,-1.0696613788604736,-113.45584106445312, -16.41240119934082
388,304804442,0.5829071,-0.44497788,-0.40251538,-0.5479009,10.794465065002441,-0.8268494009971619,0.03416217863559723,-19.562671661376953,-123.59129333496094, -12.280179023742676
389,304821109,0.5714353,-0.45855573,-0.4109568,-0.5424969,11.221592903137207,-1.114329218864441,0.3750849962234497,-41.94960403442383,-127.1066665649414, -9.590771675109863
390,304837776,0.5600667,-0.4710538,-0.41965657,-0.5369562,12.063301086425781,0.6190766096115112,-0.5355880260467529,-36.06773376464844,-124.40660858154297, -12.495656967163086
391,304854443,0.54871476,-0.48268884,-0.42927176,-0.5307065,12.357039451599121,0.58103346824646,-0.8273919820785522,-27.314634323120117,-127.13536834716797, -15.07950210571289
392,304871110,0.53698057,-0.49366015,-0.43972778,-0.5240146,12.37071418762207,0.6266142725944519,-1.1521955728530884,-21.747093200683594,-130.62098693847656, -19.489282608032227
393,304887777,0.5245233,-0.5048155,-0.45040974,-0.51688254,12.152387619018555,-0.8538611531257629,-0.7163259387016296,-22.776216506958008,-135.9340362548828, -20.620441436767578
394,304904444,0.5110069,-0.51658756,-0.46044946,-0.50989765,12.682226181030273,-1.0207277536392212,-0.5667799711227417,-31.44903564453125,-138.74005126953125, -20.76342010498047
395,304921111,0.49527517,-0.52988523,-0.46904176,-0.50390875,13.322299003601074,-0.9020292162895203,0.0685877799987793,-52.93962097167969,-142.65061950683594, -22.036874771118164
396,304937778,0.4764475,-0.54527956,-0.4751086,-0.4999402,14.73810863494873,-0.06919096410274506,0.5003292560577393,-86.66155242919922,-144.14332580566406, -23.633638381958008
397,304954445,0.4534082,-0.5633243,-0.47680297,-0.49974582,16.25466537475586,1.4587860107421875,2.919330596923828,-138.53182983398438,-138.77188110351562, -25.318647384643555
398,304971112,0.42667082,-0.5832642,-0.47357097,-0.5034737,17.169090270996094,1.65566086769104,5.764805793762207,-188.5879669189453,-127.19666290283203, -24.786500930786133
399,304987779,0.39824232,-0.6026196,-0.46941227,-0.5078434,17.995342254638672,-2.0251948833465576,4.006762981414795,-198.977294921875,-125.83678436279297, -30.54857063293457
400,305004446,0.37359485,-0.6177471,-0.4719129,-0.5060769,19.792264938354492,-6.33754825592041,3.9162845611572266,-128.68612670898438,-142.90567016601562, -41.78318786621094
401,305021113,0.35206306,-0.62884575,-0.47937933,-0.5007996,20.228763580322266,-7.775927543640137,6.466366291046143,-76.48394012451172,-146.82080078125, -56.27332305908203
402,305037780,0.33124352,-0.6367277,-0.48646122,-0.4982081,19.353527069091797,-10.511346817016602,9.633407592773438,-75.87104034423828,-121.31487274169922, -69.51353454589844
403,305054447,0.3117265,-0.645432,-0.48753712,-0.4985495,14.591662406921387,-10.550178527832031,3.5696516036987305,-102.5255355834961,-93.80877685546875, -43.02276611328125
404,305071114,0.288331,-0.6577148,-0.48679012,-0.4973048,13.039552688598633,-9.360044479370117,-5.566047668457031,-128.45050048828125,-122.50215911865234, -33.15019989013672
405,305087781,0.27084157,-0.66848457,-0.48396894,-0.49552757,11.643599510192871,-6.676028251647949,-5.038580894470215,-104.16860961914062,-95.82220458984375, -7.833187103271484
406,305104448,0.2596428,-0.6742978,-0.48113802,-0.4964016,9.74978256225586,-4.5603485107421875,4.9845075607299805,-74.95765686035156,-45.77903366088867, -7.958288192749023
407,305121115,0.257242,-0.67552483,-0.47576413,-0.5011401,9.053277015686035,-3.6737098693847656,12.892666816711426,-47.467811584472656,21.153606414794922, 11.660983085632324
408,305137782,0.25679395,-0.6753862,-0.46566185,-0.5109496,4.677132606506348,-0.634581983089447,5.829143047332764,-68.8367919921875,63.66725540161133, 26.79186248779297
409,305154449,0.2616818,-0.67272496,-0.4537588,-0.52255803,6.712031364440918,-3.004613161087036,2.1682558059692383,-51.6431770324707,100.95336151123047, 42.63513946533203
410,305171116,0.28111625,-0.66470397,-0.44502932,-0.5301806,7.368506908416748,-5.5533037185668945,1.5372052192687988,49.14826965332031,141.33981323242188, 70.59771728515625
411,305187783,0.31153962,-0.65116763,-0.43767136,-0.53606695,7.009176731109619,-1.8346421718597412,3.9672536849975586,120.37338256835938,184.3787841796875, 90.74989318847656
412,305204450,0.342094,-0.6357023,-0.4247668,-0.5462853,7.143485069274902,-1.0226633548736572,3.815880060195923,91.66468048095703,222.98609924316406, 100.98342895507812
413,305221117,0.3746792,-0.6177456,-0.40726733,-0.55869436,7.5308098793029785,-2.6326513290405273,2.311440944671631,82.80940246582031,258.5262145996094, 116.30181121826172
414,305237784,0.41038683,-0.5960622,-0.38632017,-0.5718822,9.467010498046875,-1.3831944465637207,1.4508049488067627,90.31079864501953,293.7169494628906, 130.50314331054688
415,305254451,0.44720632,-0.57065904,-0.36144277,-0.5862712,11.806161880493164,-0.27969446778297424,-0.468853235244751,86.79268646240234,327.3033752441406, 137.76889038085938
416,305271118,0.48387635,-0.5427663,-0.3322881,-0.6007106,13.550944328308105,-0.22319597005844116,-1.618465542793274,76.56453704833984,350.40655517578125, 147.71559143066406
417,305287785,0.51882,-0.51362085,-0.29884195,-0.61458355,15.718697547912598,0.7237111330032349,-1.839999794960022,57.92262649536133,363.9660949707031, 155.74609375
418,305304452,0.55140406,-0.48331928,-0.26206547,-0.62743753,18.67729949951172,1.2371546030044556,-2.664011001586914,41.789852142333984,372.51507568359375, 158.96499633789062
419,305321119,0.5815643,-0.45155653,-0.22388119,-0.63855845,21.187620162963867,0.3890666961669922,-3.9777660369873047,36.37226104736328,374.3601989746094, 157.33140563964844
420,305337786,0.60884225,-0.42016363,-0.18503709,-0.646943,22.728683471679688,-2.404033660888672,-5.349799156188965,27.33012580871582,362.8755798339844, 158.45846557617188
421,305354453,0.6344078,-0.38997003,-0.1482624,-0.65074474,23.403667449951172,-5.329946517944336,-7.730309963226318,32.52265548706055,333.9844665527344, 165.75086975097656
422,305371120,0.6613327,-0.35726476,-0.12114236,-0.6483255,23.549522399902344,-6.379885196685791,-10.152079582214355,96.92622375488281,288.4227294921875, 170.67855834960938
423,305387787,0.6860455,-0.31486845,-0.10816576,-0.64691556,21.085102081298828,13.600683212280273,-12.057659149169922,198.1012725830078,268.6644287109375, 113.5189437866211
424,305404454,0.6985197,-0.29315385,-0.09252395,-0.6461971,10.757856369018555,3.922724962234497,-19.67238998413086,61.4378662109375,182.2969970703125, 77.35589599609375
425,305421121,0.7020532,-0.2902882,-0.08339729,-0.6449024,6.028991222381592,9.664299011230469,-23.14422607421875,-17.637521743774414,60.929630279541016, 39.532527923583984
426,305437788,0.69717914,-0.30680555,-0.0820228,-0.6427161,7.839131832122803,-0.5547244548797607,-21.59926986694336,-93.15814208984375,-68.55755615234375, 2.4003243446350098
427,305454455,0.69239104,-0.31923747,-0.100272976,-0.6392398,12.054569244384766,2.6731090545654297,-17.18164825439453,14.306105613708496,-146.78211975097656, -34.62714767456055
428,305471122,0.6861719,-0.33258957,-0.12520026,-0.6347261,14.271273612976074,4.145406723022461,-12.00541877746582,36.95133972167969,-185.34173583984375, -49.91470718383789
429,305487789,0.6784865,-0.34865248,-0.15041973,-0.6288652,14.916583061218262,1.9104889631271362,-6.406201362609863,23.193056106567383,-202.36199951171875, -48.253570556640625
430,305504456,0.67181045,-0.36540657,-0.16572438,-0.622643,17.18764305114746,-13.841047286987305,20.35120391845703,-20.072656631469727,-158.5302734375, -17.584068298339844
431,305521123,0.67185783,-0.36759713,-0.18751635,-0.61507505,12.511035919189453,0.28053101897239685,10.483342170715332,93.47028350830078,-122.06377410888672, -15.78954792022705
432,305537790,0.66635007,-0.37492454,-0.20779504,-0.6101069,20.824291229248047,7.759469509124756,-7.966475009918213,45.84390640258789,-137.49539184570312, -40.865814208984375
433,305554457,0.6571196,-0.3888609,-0.22627719,-0.60479736,17.89371681213379,-1.3282784223556519,-0.0797688364982605,-1.1971280574798584,-162.6234893798828, -40.57555389404297
434,305571124,0.6494803,-0.40110654,-0.24454798,-0.59790075,9.385403633117676,-5.632904529571533,-3.7170307636260986,12.29738998413086,-156.15269470214844, -28.819604873657227
435,305587791,0.6466547,-0.40532354,-0.26676226,-0.58854795,11.401375770568848,-2.0769481658935547,-3.3707189559936523,81.87870025634766,-139.27610778808594, -22.66675567626953
436,305604458,0.64201915,-0.41094038,-0.283957,-0.58164245,9.407697677612305,-0.7332170009613037,-1.55323326587677,45.84575653076172,-118.93464660644531, -24.458097457885742
437,305621125,0.6372114,-0.41635907,-0.29744965,-0.5763077,10.049506187438965,-3.9635608196258545,-1.593772053718567,28.338542938232422,-97.62501525878906, -22.08157730102539
438,305637792,0.63236505,-0.42107683,-0.3085279,-0.5723805,10.547048568725586,-2.646989583969116,0.1614510416984558,18.878934860229492,-80.24317169189453, -23.054956436157227
439,305654459,0.6263867,-0.42643905,-0.31738627,-0.5701364,11.714397430419922,-0.48028305172920227,-0.05853331834077835,0.4667944610118866,-70.65252685546875, -27.100229263305664
440,305671126,0.6207591,-0.43133155,-0.32588488,-0.56781185,11.327786445617676,-1.983436942100525,0.061387933790683746,2.2257001399993896,-66.73692321777344, -25.326318740844727
441,305687793,0.6166162,-0.43444476,-0.33478516,-0.56476676,10.07654094696045,-1.4380332231521606,0.43245670199394226,17.365171432495117,-60.35679626464844, -21.67717170715332
442,305704460,0.6129886,-0.43697217,-0.3434726,-0.56153995,10.416894912719727,-1.2322406768798828,0.038360051810741425,20.931142807006836,-56.634544372558594, -19.670934677124023
443,305721127,0.60966337,-0.43889788,-0.35225818,-0.5582059,10.161916732788086,-1.1561284065246582,0.252339631319046,24.95644760131836,-54.42958450317383, -19.819860458374023
444,305737794,0.60638666,-0.44039854,-0.36085802,-0.5550909,9.816950798034668,-1.4881701469421387,-0.0784166008234024,25.588350296020508,-51.36393356323242, -21.074724197387695
445,305754461,0.603016,-0.44173986,-0.36933413,-0.5521142,9.483329772949219,-2.898301601409912,-0.05701080337166786,25.099760055541992,-50.180850982666016, -22.095924377441406
446,305771128,0.599701,-0.44336864,-0.37767294,-0.54876804,8.942350387573242,-2.9705722332000732,0.2175307720899582,24.46176528930664,-51.82350158691406, -19.312976837158203
447,305787795,0.5954662,-0.4462372,-0.3864401,-0.5449373,9.435486793518066,-1.2979674339294434,-0.20887406170368195,19.379993438720703,-62.29553985595703, -18.979333877563477
448,305804462,0.58981603,-0.4506661,-0.3963612,-0.5402918,9.429262161254883,-1.6396580934524536,0.47192639112472534,15.091268539428711,-79.27338409423828, -20.38335418701172
449,305821129,0.58250123,-0.45730442,-0.40758148,-0.53426814,9.804961204528809,-1.772562861442566,0.00966489315032959,9.508277893066406,-101.73140716552734, -19.031692504882812
450,305837796,0.5736172,-0.46533358,-0.4189904,-0.52808636,10.448774337768555,-1.3223538398742676,0.48166289925575256,0.08883536607027054,-112.64884948730469, -20.903390884399414
451,305854463,0.5641903,-0.47403976,-0.4295478,-0.52198136,11.241172790527344,-0.6348140239715576,0.3936353325843811,-7.681568145751953,-113.23989868164062, -18.515424728393555
452,305871130,0.55376196,-0.4833162,-0.4401649,-0.51575965,11.41366958618164,0.10512831062078476,-0.10552952438592911,-12.654573440551758,-119.0275650024414, -20.15119743347168
453,305887797,0.543279,-0.49238917,-0.45088288,-0.5090241,11.744902610778809,0.7417171001434326,-0.2383861392736435,-10.19630241394043,-120.72057342529297, -19.29914093017578
454,305904464,0.53248376,-0.50123125,-0.46183905,-0.50192946,11.966401100158691,0.853187620639801,-1.07676362991333,-8.49417781829834,-123.1451416015625, -20.51797866821289
455,305921131,0.52103037,-0.51011056,-0.47269854,-0.49484423,12.654840469360352,0.07193852216005325,-0.9914951324462891,-11.304943084716797,-125.1133041381836, -22.31696128845215
456,305937798,0.50818956,-0.5198617,-0.48311558,-0.48794135,12.130849838256836,-0.9660433530807495,-0.4375864863395691,-21.43231201171875,-130.5089569091797, -23.27048683166504
457,305954465,0.494157,-0.5303797,-0.49326137,-0.4808322,12.67270565032959,-1.7292160987854004,0.18095850944519043,-28.633338928222656,-137.005615234375, -23.023746490478516
458,305971132,0.47826618,-0.54208064,-0.5025961,-0.47413847,13.320415496826172,-0.9649917483329773,0.40139761567115784,-43.55971145629883,-143.1513214111328, -23.6178035736084
459,305987799,0.45917356,-0.555966,-0.50953025,-0.4695108,14.39271354675293,-0.03332115709781647,1.3884997367858887,-77.68172454833984,-145.9656524658203, -24.31827163696289
460,306004466,0.4360197,-0.5728028,-0.51205766,-0.4685947,16.081016540527344,0.8804091811180115,3.733577251434326,-129.7892303466797,-141.8959197998047, -21.86807632446289
461,306021133,0.4098254,-0.5915366,-0.5105696,-0.47058097,16.919084548950195,0.17827647924423218,5.310564994812012,-170.6365509033203,-135.62277221679688, -17.733482360839844
462,306037800,0.38204592,-0.6095724,-0.50915307,-0.4724679,18.235410690307617,-3.165004014968872,4.906478404998779,-174.5532684326172,-139.9801483154297, -25.228790283203125
463,306054467,0.356702,-0.62438756,-0.51346034,-0.46825486,21.171218872070312,-8.923504829406738,3.43804931640625,-115.96639251708984,-162.02549743652344, -36.610416412353516
464,306071134,0.33355024,-0.63486403,-0.5204152,-0.46352988,21.659940719604492,-7.531505107879639,9.439591407775879,-85.67899322509766,-149.41189575195312, -55.244022369384766
465,306087801,0.3131648,-0.6425206,-0.5231431,-0.4641298,18.65407943725586,-11.990630149841309,10.180355072021484,-99.7502670288086,-98.19390106201172, -50.52206039428711
466,306104468,0.28645787,-0.65397125,-0.5218071,-0.46688458,12.565138816833496,-8.710944175720215,-1.8510016202926636,-156.71517944335938,-115.35920715332031, -44.113834381103516
467,306121135,0.2622066,-0.66678214,-0.51811534,-0.46712533,14.203886985778809,-8.376869201660156,-8.321858406066895,-147.01715087890625,-117.67105865478516, -16.052474975585938
468,306137802,0.24515404,-0.67616695,-0.5123098,-0.46929356,11.631251335144043,-4.066654205322266,-2.2252273559570312,-121.62479400634766,-68.28768157958984, 0.8464488387107849
469,306154469,0.23727793,-0.6810979,-0.50535864,-0.47372732,9.718382835388184,-6.950125217437744,13.375205993652344,-83.18606567382812,-9.21127986907959, 16.159509658813477
470,306171136,0.23440978,-0.68369704,-0.4934598,-0.48384702,4.455324172973633,-0.9411284327507019,8.63941764831543,-91.81576538085938,49.96411895751953, 38.03578186035156
471,306187803,0.23479018,-0.684917,-0.4785101,-0.49678013,5.004790782928467,-0.4977883994579315,3.545363426208496,-93.96195983886719,83.45259857177734, 53.935829162597656
472,306204470,0.2464033,-0.6829423,-0.46386924,-0.5076425,6.572776794433594,-5.399025917053223,1.0581324100494385,-27.98554801940918,120.95659637451172, 83.662109375
473,306221137,0.27424684,-0.67470455,-0.45360133,-0.5136228,6.635504245758057,-2.994488477706909,2.8136205673217773,89.67848205566406,164.17015075683594, 107.9406967163086
474,306237804,0.3067432,-0.6624373,-0.44179493,-0.52144307,6.844962120056152,-1.0304014682769775,3.7455718517303467,107.73809051513672,204.20211791992188, 115.43040466308594
475,306254471,0.34231523,-0.6468183,-0.4266601,-0.5314205,7.510648727416992,-2.7925126552581787,2.9414427280426025,110.40531921386719,242.24639892578125, 126.91735076904297
476,306271138,0.3818641,-0.626737,-0.4091852,-0.54216987,8.943302154541016,-1.215134859085083,1.6453478336334229,127.84891510009766,279.03955078125, 136.947265625
477,306287805,0.42301658,-0.6020991,-0.38839996,-0.5546885,11.335773468017578,0.35169321298599243,0.6846692562103271,129.48471069335938,316.7944641113281, 139.7903594970703
478,306304472,0.46309713,-0.5747112,-0.3625811,-0.56901956,13.406188011169434,0.9269915819168091,-0.38594162464141846,109.0775146484375,346.56121826171875, 144.0525665283203
479,306321139,0.5001721,-0.5463713,-0.3310794,-0.58454496,15.030768394470215,2.2302258014678955,-1.4472377300262451,75.07931518554688,365.6829528808594, 148.7252960205078
480,306337806,0.53349715,-0.5172198,-0.2954698,-0.6004683,17.840911865234375,2.5860838890075684,-2.269045352935791,46.40408706665039,376.1988220214844, 146.0653076171875
481,306354473,0.56433713,-0.4865012,-0.258641,-0.6147725,20.555435180664062,0.7213923931121826,-4.047397136688232,41.60409164428711,376.5962829589844, 143.12158203125
482,306371140,0.5932096,-0.45474508,-0.22210102,-0.6260835,22.100181579589844,-2.288003921508789,-5.140527248382568,45.65681838989258,366.7367248535156, 143.8158416748047
483,306387807,0.6200074,-0.424639,-0.18616965,-0.6329405,22.990570068359375,-6.178867340087891,-6.9396514892578125,41.96235656738281,340.5306396484375, 153.82293701171875
484,306404474,0.6479679,-0.39350006,-0.15740557,-0.6328658,23.332387924194336,-9.033401489257812,-10.367293357849121,90.04805755615234,296.28558349609375, 166.2789764404297
485,306421141,0.6804573,-0.34792587,-0.14618829,-0.6281358,22.93218231201172,9.573497772216797,-12.510321617126465,248.44931030273438,273.9504089355469, 143.7027130126953
486,306437808,0.69324833,-0.32450652,-0.12720938,-0.6308092,13.790295600891113,8.279272079467773,-15.569906234741211,56.49662399291992,213.20489501953125, 65.10851287841797
487,306454475,0.70007104,-0.31657374,-0.11535532,-0.6295832,5.325625419616699,6.458548545837402,-23.89572525024414,3.7196006774902344,98.71500396728516, 55.85997009277344
488,306471142,0.6953861,-0.32967386,-0.11042875,-0.628935,7.596790790557861,1.9864879846572876,-21.203989028930664,-92.9579849243164,-33.01233673095703, 5.089412212371826
489,306487809,0.6897799,-0.3438713,-0.12256507,-0.6252473,10.435380935668945,-1.1308369636535645,-19.210474014282227,-24.016857147216797,-126.41490173339844, -22.027273178100586
490,306504476,0.6839325,-0.3548289,-0.14711002,-0.62023526,14.184113502502441,5.1124701499938965,-12.779476165771484,45.42350769042969,-174.0828399658203, -48.868385314941406
491,306521143,0.6750717,-0.37133467,-0.17118838,-0.6140711,15.16286563873291,3.591245174407959,-8.581623077392578,11.204442024230957,-200.892822265625, -49.34339904785156
492,306537810,0.6664398,-0.3884297,-0.18753098,-0.60812217,17.916667938232422,-10.403813362121582,16.38141441345215,-23.91537094116211,-166.16952514648438, -28.812583923339844
493,306554477,0.66494596,-0.39249045,-0.20841774,-0.6003004,12.819097518920898,-1.4176288843154907,13.330002784729004,76.33796691894531,-128.4151153564453, -19.51197052001953
494,306571144,0.6585483,-0.3995385,-0.22838357,-0.5954195,19.136194229125977,8.879727363586426,-7.326541423797607,41.31000518798828,-135.81329345703125, -46.490745544433594
495,306587811,0.64785457,-0.41405636,-0.24485835,-0.590666,18.595705032348633,-1.97655189037323,-2.16713285446167,-18.940502166748047,-156.48770141601562, -43.015663146972656
496,306604478,0.6410346,-0.42452684,-0.26404,-0.5823527,9.766157150268555,-7.046438217163086,-4.072267055511475,27.157943725585938,-155.4114532470703, -25.90943717956543
497,306621145,0.63928384,-0.4269161,-0.28692552,-0.57160527,11.494956970214844,-1.8581815958023071,-2.9588968753814697,96.9625473022461,-137.0922088623047, -20.653961181640625
498,306637812,0.63485026,-0.43163395,-0.3039269,-0.5641681,9.35738754272461,-0.4127764105796814,-1.0004472732543945,49.225669860839844,-115.7774429321289, -24.026079177856445
499,306654479,0.6301393,-0.43676353,-0.31683487,-0.5583709,9.661660194396973,-4.547528266906738,-0.9296420216560364,27.27206039428711,-95.1732406616211, -19.314834594726562
500,306671146,0.62525594,-0.44121176,-0.32728425,-0.55432147,10.165908813476562,-2.7407357692718506,0.3776082694530487,16.482051849365234,-77.0167465209961, -21.79981803894043
501,306687813,0.61979854,-0.4456667,-0.3361687,-0.551563,11.587467193603516,-1.545011281967163,0.5622401237487793,5.817929744720459,-67.73600006103516, -24.847646713256836
502,306704480,0.6151747,-0.44888526,-0.3456764,-0.54824287,11.802671432495117,-1.7199695110321045,-0.6246836185455322,17.257389068603516,-65.55016326904297, -24.085582733154297
503,306721147,0.6116884,-0.45037043,-0.35577378,-0.5444529,10.723640441894531,-0.49224045872688293,0.2663757801055908,31.394439697265625,-60.281551361083984, -23.807491302490234
504,306737814,0.60889196,-0.45114377,-0.3654807,-0.54050326,10.771916389465332,-0.20630864799022675,-0.11748635768890381,35.39192199707031,-54.86697006225586, -21.124000549316406
505,306754481,0.606017,-0.45190248,-0.3748836,-0.5366472,10.565326690673828,-0.16920587420463562,0.9901124835014343,33.78575897216797,-53.53207778930664, -20.93260383605957
506,306771148,0.60243106,-0.45378348,-0.3831637,-0.5332382,9.72965145111084,-1.8091669082641602,0.0736108347773552,21.54129409790039,-53.57335662841797, -19.059450149536133
507,306787815,0.5981613,-0.45629925,-0.39095458,-0.5302346,9.537875175476074,-2.423306703567505,0.29719650745391846,13.875360488891602,-54.53178405761719, -20.108062744140625
508,306804482,0.5934512,-0.45932725,-0.39911723,-0.52682036,9.092484474182129,-2.12105393409729,0.17954975366592407,12.811052322387695,-60.5366096496582, -19.886926651000977
509,306821149,0.5872716,-0.46328548,-0.40871003,-0.5229103,9.47559642791748,-1.313348650932312,0.017347268760204315,10.87010383605957,-75.48081970214844, -25.214855194091797
510,306837816,0.5792695,-0.46929994,-0.41909367,-0.51823276,9.528173446655273,-1.733323574066162,0.5028179883956909,1.7094035148620605,-93.76721954345703, -25.441696166992188
511,306854483,0.57046545,-0.47601905,-0.43019894,-0.51274174,10.424371719360352,-1.8034483194351196,0.6669255495071411,1.1827335357666016,-104.24508666992188, -25.397132873535156
512,306871150,0.5614247,-0.48285484,-0.44088724,-0.50722015,11.22249698638916,-0.9005789756774902,0.3067223131656647,-1.4810116291046143,-103.98090362548828, -24.439481735229492
513,306887817,0.55165035,-0.4902485,-0.45128408,-0.5016783,10.897595405578613,-0.1698005348443985,0.37118321657180786,-7.075043201446533,-107.24164581298828, -24.262319564819336
514,306904484,0.54159206,-0.4979681,-0.4613044,-0.49588716,11.113085746765137,-0.24806798994541168,-0.11482568830251694,-9.838768005371094,-108.8185043334961, -21.99195098876953
515,306921151,0.53135544,-0.5053933,-0.47174764,-0.48958483,11.168725967407227,-0.35036882758140564,-0.3070405423641205,-6.335644245147705,-111.85237884521484, -23.05904769897461
516,306937818,0.5206006,-0.5130991,-0.48218805,-0.48290724,11.033506393432617,-0.33326444029808044,-0.6133595108985901,-7.990930557250977,-115.91848754882812, -22.500638961791992
517,306954485,0.50875396,-0.5212909,-0.4926931,-0.47610828,11.592803001403809,-0.6718544363975525,-0.6015828847885132,-13.005114555358887,-121.95509338378906, -24.2954158782959
518,306971152,0.49553728,-0.5303294,-0.5025045,-0.46976858,11.89973258972168,-1.0408236980438232,-0.20290204882621765,-24.740440368652344,-125.44530487060547, -25.022377014160156
519,306987819,0.48019034,-0.5407225,-0.51166016,-0.46394014,12.078125953674316,-1.3732995986938477,-0.18112145364284515,-41.04547119140625,-133.25608825683594, -26.5635986328125
520,307004486,0.4627046,-0.5523743,-0.5198243,-0.45887882,12.762774467468262,-0.5024327039718628,0.6051154136657715,-59.0533447265625,-138.85244750976562, -27.79290199279785
521,307021153,0.44224942,-0.56551564,-0.5264715,-0.4554506,13.630114555358887,1.111162543296814,1.0868104696273804,-85.72823333740234,-143.35964965820312, -31.220703125
522,307037820,0.41832986,-0.58035064,-0.53032976,-0.4549108,15.36014461517334,1.7669975757598877,3.2683534622192383,-123.5671157836914,-141.7501983642578, -33.76256561279297
523,307054487,0.3911491,-0.5963106,-0.5310067,-0.45765483,17.100156784057617,1.937438726425171,6.295999050140381,-161.7646942138672,-135.26414489746094, -36.47320556640625
524,307071154,0.3638007,-0.61101764,-0.5325825,-0.45897967,19.015987396240234,-4.507959842681885,3.936521530151367,-151.06724548339844,-140.64706420898438, -41.33173751831055
525,307087821,0.34061426,-0.62124294,-0.54136544,-0.45272815,21.67893409729004,-5.879683017730713,3.9099230766296387,-71.92723083496094,-161.52687072753906, -56.06594467163086
526,307104488,0.31634912,-0.6285474,-0.5513501,-0.44817936,22.544353485107422,-10.343441009521484,8.485235214233398,-72.36865234375,-152.42857360839844, -79.62528991699219
527,307121155,0.29922053,-0.63420665,-0.55748594,-0.44436288,19.47765350341797,-14.634711265563965,8.995644569396973,-52.70344543457031,-109.35628509521484, -49.17519760131836
528,307137822,0.27580574,-0.644398,-0.5584708,-0.4436139,13.768019676208496,-7.644516944885254,0.10802266001701355,-117.12020874023438,-123.8891830444336, -35.321739196777344
529,307154489,0.2520317,-0.65605605,-0.5559871,-0.4437893,15.347686767578125,-7.231774806976318,-5.184095859527588,-135.7487335205078,-119.2531509399414, -17.401611328125
530,307171156,0.23396024,-0.665824,-0.5495075,-0.4471942,11.237577438354492,-5.218094348907471,-2.9066572189331055,-131.42079162597656,-70.23150634765625, 4.9755730628967285
531,307187823,0.22917604,-0.6692981,-0.5461189,-0.44863436,9.65162181854248,-8.712225914001465,10.514564514160156,-43.61842346191406,-14.70291805267334, 10.902252197265625
532,307204490,0.23252207,-0.6699184,-0.5388349,-0.45475248,6.258556365966797,-2.016633987426758,11.280472755432129,-31.34086036682129,51.86122512817383, 35.55818557739258
533,307221157,0.23581184,-0.6700518,-0.52645636,-0.467191,4.440526485443115,0.9914900064468384,4.901153564453125,-70.09954833984375,90.06885528564453, 46.863582611083984
534,307237824,0.24364762,-0.66932,-0.5101414,-0.4820816,7.2796950340271,-3.6607472896575928,2.4061036109924316,-69.19255828857422,126.85865020751953, 72.50591278076172
535,307254491,0.26693666,-0.6637034,-0.49615514,-0.49200904,6.954827308654785,-5.031750679016113,2.7315211296081543,35.2576789855957,170.40875244140625, 104.08085632324219
536,307271158,0.29881534,-0.6535434,-0.48249865,-0.50078493,6.85500955581665,-1.7728179693222046,3.335001230239868,87.86820983886719,209.09690856933594, 118.13848114013672
537,307287825,0.33334625,-0.64042026,-0.4652858,-0.5121048,7.631388187408447,-1.7743759155273438,2.870177984237671,85.25755310058594,246.69944763183594, 128.1968231201172
538,307304492,0.37022063,-0.6244213,-0.44419703,-0.5250941,8.744359016418457,-2.0693507194519043,1.96624755859375,83.25315856933594,280.44873046875, 140.5018768310547
539,307321159,0.40946344,-0.60491776,-0.4194393,-0.53896666,11.010968208312988,-1.2199875116348267,0.7689462900161743,86.4746322631836,313.4067687988281, 151.8723602294922
540,307337826,0.44980386,-0.58230376,-0.39047152,-0.5532909,13.363631248474121,-0.33381739258766174,-0.5857333540916443,82.97531127929688,341.8263244628906, 163.2733612060547
541,307354493,0.4895482,-0.5573812,-0.3572775,-0.5674697,15.476823806762695,0.7760727405548096,-1.2962403297424316,72.1171875,361.5673522949219, 172.287841796875
542,307371160,0.52665,-0.5310686,-0.31985977,-0.58163214,18.376615524291992,1.481490135192871,-1.9727802276611328,50.29951095581055,374.7915954589844, 174.96217346191406
543,307387827,0.5622245,-0.50194246,-0.28112864,-0.5940743,22.010807037353516,1.1043106317520142,-3.534912586212158,53.50235366821289,381.3863525390625, 173.8970184326172
544,307404494,0.5950189,-0.47127432,-0.24265671,-0.6041282,23.586088180541992,-1.1131818294525146,-4.793999671936035,55.60317611694336,373.4116516113281, 168.12753295898438
545,307421161,0.62544584,-0.4409278,-0.20605436,-0.6098706,23.419109344482422,-5.271262168884277,-6.665107727050781,61.66318893432617,346.94769287109375, 170.61253356933594
546,307437828,0.65593135,-0.40947926,-0.17624357,-0.60911345,24.009469985961914,-7.201604843139648,-9.166484832763672,104.48604583740234,303.25555419921875, 176.79989624023438
547,307454495,0.6852418,-0.36875904,-0.15825877,-0.607795,22.965408325195312,13.370609283447266,-11.90601634979248,193.50839233398438,286.40228271484375, 129.97894287109375
548,307471162,0.6995623,-0.3478987,-0.13743508,-0.6088438,11.74828815460205,4.768186569213867,-19.920875549316406,47.2951545715332,207.14576721191406, 85.4693832397461
549,307487829,0.70455384,-0.34300342,-0.12689726,-0.60815275,5.3514299392700195,10.202581405639648,-24.401411056518555,-6.923121929168701,78.46782684326172, 45.5860595703125
550,307504496,0.6991406,-0.357257,-0.12670851,-0.60623014,8.020671844482422,0.8948243856430054,-22.388418197631836,-79.86018371582031,-63.13471603393555, 0.6187806129455566
551,307521163,0.69399303,-0.36813426,-0.14536949,-0.60143065,11.913076400756836,2.0875818729400635,-18.137807846069336,18.332883834838867,-145.93020629882812, -33.56135177612305
552,307537830,0.68830544,-0.37726593,-0.17270774,-0.5950447,14.223089218139648,4.648007392883301,-12.505330085754395,62.95954895019531,-184.0911865234375, -51.801761627197266
553,307554497,0.68061906,-0.38862112,-0.20107043,-0.58762425,14.614079475402832,4.160085201263428,-9.349864959716797,52.62983703613281,-202.52334594726562, -55.043601989746094
554,307571164,0.67133945,-0.4049204,-0.21810386,-0.581183,17.943031311035156,-11.687074661254883,14.884753227233887,-21.9716739654541,-168.5685272216797, -28.857330322265625
555,307587831,0.6708046,-0.4083919,-0.23640077,-0.57214683,12.631148338317871,-7.028206825256348,17.29301643371582,70.67574310302734,-117.39580535888672, -4.8389573097229
556,307604498,0.6652366,-0.41473624,-0.2555128,-0.56583345,19.931272506713867,8.729698181152344,-7.521373748779297,41.98802947998047,-133.30233764648438, -35.02491760253906
557,307621165,0.6551563,-0.42678434,-0.27413186,-0.55989057,20.532407760620117,0.6309479475021362,-1.4661026000976562,0.3681987524032593,-159.61996459960938, -42.5216178894043
558,307637832,0.64485455,-0.43989158,-0.2915805,-0.55284643,9.474714279174805,-4.79810905456543,-1.8993037939071655,-7.4821248054504395,-161.7782745361328, -32.84086608886719
559,307654499,0.64056003,-0.44456917,-0.31341916,-0.54204214,11.114314079284668,-3.203563928604126,-3.989466905593872,72.34159851074219,-148.42259216308594, -23.689855575561523
560,307671166,0.63605046,-0.4482872,-0.33266395,-0.5327412,9.706007957458496,0.07695509493350983,-1.654675006866455,63.066368103027344,-129.11831665039062, -25.41168975830078
561,307687833,0.63100135,-0.45299006,-0.34724343,-0.5254135,9.676928520202637,-3.741352081298828,-2.2026214599609375,35.46176528930664,-107.42417907714844, -19.442180633544922
562,307704500,0.62638587,-0.45644236,-0.3594629,-0.5196997,10.842497825622559,-2.0118019580841064,-0.011717244982719421,29.879465103149414,-86.56616973876953, -20.647998809814453
563,307721167,0.61983275,-0.46149948,-0.36849922,-0.5167535,12.109548568725586,-0.349281370639801,0.09088174998760223,-1.3630480766296387,-74.73432922363281, -25.583229064941406
564,307737834,0.6133243,-0.46650437,-0.3765218,-0.51423585,11.739893913269043,-2.1812760829925537,-0.7833046913146973,-5.744895935058594,-68.802490234375, -24.12937355041504
565,307754501,0.6085805,-0.4693821,-0.38499027,-0.51097244,10.249234199523926,-2.23333740234375,0.4301230311393738,12.363151550292969,-61.019798278808594, -21.712242126464844
566,307771168,0.6050017,-0.4708726,-0.3936621,-0.5072299,10.237649917602539,-2.1938343048095703,-0.3578311800956726,23.869474411010742,-55.56013870239258, -20.006759643554688
567,307787835,0.6017613,-0.47151804,-0.40274364,-0.5033408,10.068482398986816,-1.3431627750396729,0.5777378082275391,30.26926040649414,-53.95656967163086, -21.90424919128418
568,307804502,0.59847736,-0.4722571,-0.41119167,-0.49971977,9.703973770141602,-1.1628507375717163,-0.13174162805080414,26.754629135131836,-51.030662536621094, -20.900814056396484
569,307821169,0.5949169,-0.47307903,-0.4191555,-0.49656725,9.509069442749023,-1.9229559898376465,0.011469811201095581,22.482778549194336,-48.68589401245117, -22.011659622192383
570,307837836,0.59122545,-0.4743003,-0.42706683,-0.49305767,8.930715560913086,-2.6290063858032227,0.11841760575771332,21.227455139160156,-51.48625946044922, -19.735782623291016
571,307854503,0.58687675,-0.4762335,-0.43603685,-0.4885174,8.888318061828613,-1.7185102701187134,-0.2062615156173706,22.770015716552734,-63.619476318359375, -19.219655990600586
572,307871170,0.581259,-0.47888228,-0.44720638,-0.48251045,9.113334655761719,-1.2951555252075195,0.07652673125267029,27.467823028564453,-83.62015533447266, -22.68299674987793
573,307887837,0.574284,-0.48281807,-0.4597801,-0.47506532,9.724751472473145,-2.071410655975342,0.6732701063156128,26.895174026489258,-102.53900909423828, -22.153791427612305
574,307904504,0.56651324,-0.48765662,-0.47239316,-0.46701032,10.406343460083008,-1.4100550413131714,-0.14428861439228058,22.69403076171875,-110.33171081542969, -19.69127082824707
575,307921171,0.55727255,-0.4938896,-0.4836622,-0.4599909,10.686144828796387,-1.2537322044372559,0.3471756875514984,4.614264488220215,-110.9992904663086, -19.441232681274414
576,307937838,0.5472788,-0.5014088,-0.49294937,-0.45395613,11.413126945495605,-0.6172126531600952,-0.09131121635437012,-12.459442138671875,-106.77997589111328, -14.593647003173828
577,307954505,0.53631496,-0.5093094,-0.50209576,-0.44818568,11.313395500183105,0.02894940972328186,-0.32422494888305664,-18.61081886291504,-109.95452880859375, -16.81036949157715
578,307971172,0.52532727,-0.5171371,-0.5113577,-0.44171712,11.26095962524414,0.48596376180648804,-1.0868161916732788,-15.69375991821289,-112.81925201416016, -14.920563697814941
579,307987839,0.513707,-0.5246161,-0.5214839,-0.43467015,11.885054588317871,0.46790364384651184,-1.1975147724151611,-12.052860260009766,-119.28062438964844, -18.998628616333008
580,308004506,0.5014164,-0.53220946,-0.5317667,-0.4272692,11.806706428527832,-0.7132195234298706,-1.3696264028549194,-13.163105010986328,-123.97984313964844, -19.85939598083496
581,308021173,0.48755184,-0.5408415,-0.5416224,-0.4200343,12.240020751953125,-1.4222630262374878,-0.6584172248840332,-24.393896102905273,-130.8324737548828, -19.68128204345703
582,308037840,0.47185022,-0.5505236,-0.5508811,-0.41329345,12.712139129638672,-1.3986517190933228,-0.41255974769592285,-38.34442901611328,-137.0289306640625, -20.510387420654297
583,308054507,0.45363164,-0.56160897,-0.55916107,-0.40761837,13.674328804016113,-1.1676738262176514,0.00321274995803833,-59.281192779541016,-143.52371215820312, -22.086360931396484
584,308071174,0.43190932,-0.57483685,-0.5650254,-0.40467668,15.265926361083984,-0.10460854321718216,1.0450077056884766,-96.807861328125,-145.12265014648438, -22.828950881958008
585,308087841,0.40575117,-0.5909039,-0.5665251,-0.40650705,16.836872100830078,0.7702194452285767,3.283665418624878,-153.4878692626953,-138.70985412597656, -20.972978591918945
586,308104508,0.3771149,-0.6081962,-0.5643444,-0.4115791,17.77255630493164,0.3644096851348877,5.595101356506348,-189.90647888183594,-128.72592163085938, -17.101844787597656
587,308121175,0.34646067,-0.62467784,-0.5621268,-0.41684082,18.096338272094727,-3.412144660949707,6.566434860229492,-197.0969696044922,-133.83970642089844, -26.223546981811523
588,308137842,0.31887278,-0.6372278,-0.5657699,-0.4149284,20.376169204711914,-9.817747116088867,3.186680316925049,-130.06637573242188,-155.97926330566406, -40.79593276977539
589,308154509,0.2953276,-0.64499253,-0.5735218,-0.40968195,21.651147842407227,-8.849532127380371,8.39945125579834,-77.2988052368164,-150.62112426757812, -58.85783004760742
590,308171176,0.27265084,-0.6510363,-0.576537,-0.41160512,19.347951889038086,-12.256381034851074,11.755160331726074,-111.69168853759766,-101.5097427368164, -57.030517578125
591,308187843,0.24662627,-0.65894294,-0.57624596,-0.41582483,12.116303443908691,-9.070555686950684,-5.032625198364258,-148.7963409423828,-104.19294738769531, -49.013492584228516
592,308204510,0.2234566,-0.66798735,-0.57541674,-0.41563886,14.14739990234375,-8.748661041259766,-10.077308654785156,-122.04023742675781,-115.19943237304688, -26.691431045532227
593,308221177,0.20957053,-0.67366,-0.57357275,-0.41626558,12.425810813903809,-2.743837833404541,-2.4887681007385254,-80.52918243408203,-63.46990203857422, -10.331331253051758
594,308237844,0.20323612,-0.6759463,-0.56938225,-0.4214213,9.886942863464355,-6.007259368896484,12.687641143798828,-65.29354095458984,0.2480434775352478, 2.162531852722168
595,308254511,0.20185064,-0.6768325,-0.56048346,-0.43244967,3.131438732147217,-0.727840781211853,7.201705455780029,-76.9725570678711,57.104042053222656, 24.494070053100586
596,308271178,0.20355888,-0.6778651,-0.54709136,-0.44693848,4.931230545043945,-1.5124790668487549,2.294203519821167,-89.40328216552734,90.77449035644531, 50.319488525390625
597,308287845,0.21853834,-0.67625946,-0.5347587,-0.4571077,6.208771705627441,-5.810608863830566,0.626122236251831,-4.322351455688477,127.12059783935547, 82.22763061523438
598,308304512,0.24703841,-0.6704335,-0.52444935,-0.46308088,5.9886860847473145,-2.249488353729248,2.714766502380371,86.65633392333984,167.48480224609375, 105.96514129638672
599,308321179,0.27812746,-0.662104,-0.5111089,-0.4722618,6.469383716583252,-1.1411173343658447,2.785663366317749,81.66725158691406,204.5983123779297, 113.67808532714844
600,308337846,0.31477192,-0.6502395,-0.49562234,-0.48214737,6.732549667358398,-2.8732922077178955,1.8706936836242676,104.35114288330078,242.79530334472656, 127.73206329345703
601,308354513,0.35598585,-0.6343389,-0.4777706,-0.49256846,8.367924690246582,-0.7893805503845215,1.7955613136291504,123.91444396972656,279.17431640625, 138.53118896484375
602,308371180,0.398029,-0.6155492,-0.45587417,-0.5048278,10.721468925476074,0.6506599187850952,0.09530490636825562,114.93985748291016,309.509765625, 145.0457763671875
603,308387847,0.4389816,-0.5952888,-0.4299181,-0.5177809,11.715286254882812,0.7488182187080383,-1.6843152046203613,98.16072845458984,325.2077331542969, 152.03463745117188
604,308404514,0.47802004,-0.57428783,-0.4001455,-0.53063554,13.093999862670898,1.1934019327163696,-2.2207047939300537,79.32199096679688,333.3533935546875, 159.06251525878906
605,308421181,0.5159754,-0.5499397,-0.3688732,-0.54338604,16.639892578125,2.7741377353668213,-2.2584633827209473,80.92510223388672,347.2160339355469, 152.3026885986328
606,308437848,0.55001146,-0.5249841,-0.33450538,-0.55676323,18.92167854309082,0.8402061462402344,-2.8715572357177734,55.15412902832031,353.0494689941406, 145.80528259277344
607,308454515,0.5820577,-0.4989955,-0.2987759,-0.56828284,20.226486206054688,-2.7530887126922607,-4.023955821990967,50.97773361206055,351.10986328125, 147.92218017578125
608,308471182,0.6125108,-0.4728502,-0.26301873,-0.5762504,22.28034782409668,-4.436065673828125,-5.705563545227051,53.40757369995117,336.69720458984375, 155.78440856933594
609,308487849,0.6417726,-0.44699544,-0.23023333,-0.5790644,22.3530216217041,-7.124358654022217,-9.108806610107422,69.5489730834961,304.5397644042969, 163.7335968017578
610,308504516,0.6749415,-0.4136327,-0.20869197,-0.5742907,22.688329696655273,-4.129676818847656,-9.887646675109863,171.73231506347656,268.243896484375, 166.4061737060547
611,308521183,0.70212334,-0.37462693,-0.19586487,-0.5729877,19.66568374633789,16.447404861450195,-10.514493942260742,210.49594116210938,251.9830322265625, 93.8619155883789
612,308537850,0.7124597,-0.36160037,-0.17754494,-0.5745644,9.341506004333496,2.9168407917022705,-19.28742218017578,15.899148941040039,161.4439697265625, 63.23041534423828
613,308554517,0.7139038,-0.3628919,-0.16741847,-0.5749976,7.097412109375,6.647271633148193,-22.194387435913086,-42.34269714355469,51.60307312011719, 31.09132957458496
614,308571184,0.70612013,-0.3795583,-0.16718559,-0.57391554,8.256415367126465,-2.0636253356933594,-20.750812530517578,-99.88219451904297,-71.55133819580078, -4.672402858734131
615,308587851,0.69969827,-0.3896609,-0.18598934,-0.56920534,11.664022445678711,2.5799412727355957,-16.42995834350586,15.127901077270508,-145.4088897705078, -38.81184768676758
616,308604518,0.6908253,-0.40176347,-0.21031404,-0.5631294,13.85477066040039,4.264522552490234,-10.977482795715332,22.385225296020508,-186.0102996826172, -53.97223663330078
617,308621185,0.6794241,-0.41864043,-0.22999775,-0.55697775,16.93254280090332,-4.5147624015808105,4.728212356567383,-25.177242279052734,-185.80906677246094, -43.53307342529297
618,308637852,0.67346233,-0.43056726,-0.24308549,-0.5495177,13.336464881896973,-13.410125732421875,22.273117065429688,-9.508334159851074,-131.09275817871094, -5.372283458709717
619,308654519,0.67021775,-0.43437213,-0.2624862,-0.54150754,13.398462295532227,5.104280471801758,-1.8929027318954468,60.86689758300781,-127.16082763671875, -25.137300491333008
620,308671186,0.6628759,-0.44119135,-0.2830453,-0.5346318,22.33155059814453,3.18312931060791,-4.334378242492676,36.94411849975586,-147.51934814453125, -43.46489715576172
621,308687853,0.65143526,-0.45374054,-0.3012115,-0.52822655,12.552898406982422,-2.483405590057373,0.8940450549125671,-11.321281433105469,-163.81898498535156, -42.0294075012207
622,308704520,0.6437865,-0.46231627,-0.32043433,-0.5187722,10.320884704589844,-6.472241401672363,-4.595561981201172,28.469785690307617,-155.6961669921875, -26.15379524230957
623,308721187,0.63981485,-0.46447703,-0.34211287,-0.50779605,11.147893905639648,-0.1967768371105194,-2.0945119857788086,80.77442932128906,-140.20944213867188, -28.463516235351562
624,308737854,0.6334607,-0.46985888,-0.35764572,-0.50005007,9.198402404785156,-2.4235620498657227,-2.105226993560791,29.931739807128906,-119.57384490966797, -23.825746536254883
625,308754521,0.62774706,-0.4739015,-0.3708628,-0.4937733,10.379720687866211,-2.527890920639038,-1.1636582612991333,26.267892837524414,-98.4710922241211, -23.91401481628418
626,308771188,0.62085825,-0.4788571,-0.38071498,-0.49019092,10.966360092163086,-2.0431270599365234,0.3847922682762146,0.1959613859653473,-81.20611572265625, -26.29203224182129
627,308787855,0.61365944,-0.48373392,-0.38938448,-0.48765093,11.943655967712402,-1.198410153388977,-0.515173614025116,-7.228419780731201,-73.2713623046875, -28.104339599609375
628,308804522,0.6075577,-0.487011,-0.39854446,-0.48461965,11.096107482910156,-2.27119779586792,0.31923237442970276,6.099623203277588,-68.6409912109375, -28.244184494018555
629,308821189,0.6031274,-0.48835224,-0.4082546,-0.48070538,10.083910942077637,-1.9484049081802368,-0.05512078478932381,24.00452995300293,-62.873653411865234, -26.175125122070312
630,308837856,0.5994954,-0.48858458,-0.41839004,-0.47627744,10.507311820983887,-1.5238922834396362,0.23544785380363464,34.098716735839844,-60.463539123535156, -26.00568199157715
631,308854523,0.59633785,-0.48830625,-0.42854655,-0.4714725,9.792353630065918,-1.4658470153808594,0.34966862201690674,38.914310455322266,-58.79930114746094, -24.489410400390625
632,308871190,0.5930679,-0.4879687,-0.43839866,-0.46686584,9.765484809875488,-1.611608624458313,0.13977931439876556,37.17100143432617,-57.0584602355957, -24.876537322998047
633,308887857,0.5891718,-0.4884625,-0.4474287,-0.46269715,9.20082950592041,-2.3211522102355957,-0.15741382539272308,27.68348503112793,-56.822540283203125, -23.46441078186035
634,308904524,0.5846365,-0.48986313,-0.45616218,-0.45842168,9.206343650817871,-1.9473894834518433,0.45035412907600403,21.2194881439209,-60.86106491088867, -21.351783752441406
635,308921191,0.5788223,-0.49228686,-0.46591902,-0.45336294,8.943605422973633,-1.5545037984848022,-0.012364692986011505,18.44469451904297,-74.90423583984375, -22.529787063598633
636,308937858,0.57153076,-0.4957183,-0.47765577,-0.44661066,9.334400177001953,-2.121809482574463,0.014138832688331604,20.991533279418945,-96.43682098388672, -23.917097091674805
637,308954525,0.5630088,-0.5001053,-0.49008664,-0.43901166,10.186938285827637,-1.9685486555099487,0.004810228943824768,17.919391632080078,-109.07705688476562, -23.665637969970703
638,308971192,0.55298007,-0.5058793,-0.5013764,-0.43234378,10.777703285217285,-1.5428528785705566,-0.07153220474720001,0.7454463243484497,-110.78195190429688, -23.269800186157227
639,308987859,0.5423133,-0.5127134,-0.51083136,-0.4267,11.25299072265625,-1.3729864358901978,-0.10986589640378952,-14.530211448669434,-105.66326141357422, -19.0339298248291
640,309004526,0.5309191,-0.5198076,-0.520051,-0.42127454,11.477909088134766,-0.23244209587574005,-0.33319091796875,-19.55787467956543,-107.41643524169922, -20.231903076171875
641,309021193,0.51945955,-0.5270685,-0.52871364,-0.4157193,11.4933443069458,0.3939816355705261,-0.8381544947624207,-21.580007553100586,-106.64769744873047, -17.308176040649414
642,309037860,0.5072251,-0.5344898,-0.5375829,-0.40993688,11.82886791229248,0.6981038451194763,-1.266178846359253,-23.567495346069336,-111.56539154052734, -18.80406379699707
643,309054527,0.4941298,-0.5420063,-0.5466393,-0.40404293,12.480058670043945,0.3611362874507904,-1.0682718753814697,-26.140291213989258,-116.158447265625, -21.09384536743164
644,309071194,0.47973627,-0.5501192,-0.55569696,-0.39802387,12.211219787597656,-0.28835156559944153,-0.6003076434135437,-32.54566192626953,-123.27284240722656, -21.9648380279541
645,309087861,0.46406677,-0.55885386,-0.5646704,-0.39175496,12.545549392700195,-0.7381247282028198,-0.004533976316452026,-38.722801208496094,-130.6573944091797, -21.888301849365234
646,309104528,0.4467023,-0.56808794,-0.5734162,-0.385911,13.355547904968262,-0.5332773327827454,0.06834220886230469,-49.12123107910156,-136.4091033935547, -24.95966339111328
647,309121195,0.4263688,-0.5785123,-0.58097506,-0.3821011,14.699166297912598,0.6007834076881409,1.3291698694229126,-75.57222747802734,-139.90118408203125, -29.700162887573242
648,309137862,0.40196955,-0.59111094,-0.58521134,-0.38280052,16.060640335083008,1.681751012802124,3.258021593093872,-124.88424682617188,-134.48837280273438, -31.581409454345703
649,309154529,0.3740675,-0.6053691,-0.58621013,-0.38724622,16.75543785095215,1.405730962753296,5.025867462158203,-167.29859924316406,-129.2150421142578, -31.15758514404297
650,309171196,0.3439436,-0.6190835,-0.58622885,-0.3934136,17.605119705200195,-0.538974404335022,7.073212623596191,-184.69256591796875,-127.58306121826172, -39.48477554321289
651,309187863,0.31537306,-0.6298763,-0.59115005,-0.3928581,19.28620147705078,-8.745193481445312,3.154392719268799,-130.80006408691406,-154.2716827392578, -52.036109924316406
652,309204530,0.2917803,-0.6354714,-0.6014239,-0.38643238,22.24770736694336,-10.115876197814941,9.686399459838867,-59.81816101074219,-157.55010986328125, -70.5022201538086
653,309221197,0.26984128,-0.6413355,-0.605679,-0.38604096,19.324125289916992,-15.422127723693848,8.085128784179688,-94.26671600341797,-113.8190689086914, -51.224937438964844
654,309237864,0.24583189,-0.6466744,-0.612106,-0.3830215,14.580857276916504,-8.883855819702148,-4.2204108238220215,-86.03575134277344,-137.39035034179688, -64.20941925048828
655,309254531,0.22347473,-0.6529857,-0.61647457,-0.3789831,16.062467575073242,-10.891969680786133,-6.678226470947266,-81.72199249267578,-134.23507690429688, -45.234031677246094
656,309271198,0.20731212,-0.6587442,-0.61651707,-0.37813342,12.612103462219238,-4.056980133056641,-1.4551503658294678,-78.1799545288086,-85.72271728515625, -17.332210540771484
657,309287865,0.19506724,-0.6632757,-0.6118269,-0.3842945,9.393451690673828,-8.285486221313477,9.049732208251953,-100.83230590820312,-27.663843154907227, -1.126259207725525
658,309304532,0.19283198,-0.66462797,-0.60438687,-0.39471805,5.50395393371582,-2.526700973510742,9.686723709106445,-76.25125885009766,45.486576080322266, 18.409616470336914
659,309321199,0.19058016,-0.6656629,-0.5921684,-0.41220003,4.318938255310059,0.12723016738891602,3.19073486328125,-118.15277862548828,84.49768829345703, 29.32748794555664
660,309337866,0.1955453,-0.6661499,-0.57700986,-0.43019304,6.763686656951904,-5.469112396240234,1.2136150598526,-94.73907470703125,121.51898193359375, 60.22323226928711
661,309354533,0.21767457,-0.6629183,-0.564888,-0.44052085,6.304301738739014,-4.553826332092285,1.8679988384246826,28.21821403503418,161.2913055419922, 92.35710906982422
662,309371200,0.24931808,-0.656116,-0.5528071,-0.44917348,6.6866350173950195,-1.2662312984466553,2.957500457763672,83.55762481689453,201.1849822998047, 109.4429702758789
663,309387867,0.284494,-0.64695644,-0.5373168,-0.460219,6.97139835357666,-2.5480844974517822,1.9920368194580078,84.00392150878906,238.29705810546875, 122.61551666259766
664,309404534,0.3240772,-0.6351935,-0.5183659,-0.47201702,8.017143249511719,-2.7278287410736084,1.6703143119812012,95.04669952392578,272.7477722167969, 140.7850341796875
665,309421201,0.36614007,-0.62084883,-0.49542528,-0.48481163,10.659780502319336,-1.2886725664138794,0.3274340033531189,95.20943450927734,303.03094482421875, 154.76138305664062
666,309437868,0.40949947,-0.60382766,-0.4687351,-0.4979861,12.601654052734375,-0.3899863064289093,-1.1092514991760254,93.791748046875,327.30194091796875, 165.0099639892578
667,309454535,0.45183235,-0.5856526,-0.4382636,-0.51066995,13.612532615661621,0.12936405837535858,-1.6983309984207153,81.52308654785156,336.499267578125, 174.90882873535156
668,309471202,0.49241978,-0.5657565,-0.40507078,-0.52283865,15.976574897766113,1.8585519790649414,-2.1911230087280273,71.94964599609375,343.6866149902344, 176.24761962890625
669,309487869,0.5312088,-0.54327047,-0.37027937,-0.53438544,18.765039443969727,1.9202288389205933,-3.510615348815918,69.80960083007812,351.09710693359375, 171.10325622558594
670,309504536,0.5685653,-0.5180212,-0.3354361,-0.5439397,20.34467315673828,-0.09106597304344177,-4.091578483581543,79.54539489746094,350.5960693359375, 166.5496826171875
671,309521203,0.60418934,-0.49076143,-0.30133042,-0.5507347,21.48858642578125,-2.567798137664795,-5.3198466300964355,90.46258544921875,341.7662048339844, 163.8366241455078
672,309537870,0.63818383,-0.4626506,-0.26922086,-0.55335,22.798555374145508,-4.966860294342041,-7.827878475189209,104.88985443115234,319.70025634765625, 166.74191284179688
673,309554537,0.6724666,-0.4315979,-0.24370766,-0.5496533,22.420984268188477,-5.149716377258301,-9.702009201049805,155.7273406982422,283.0890197753906, 169.2720947265625
674,309571204,0.70370835,-0.39058673,-0.22976089,-0.5472173,20.765146255493164,12.821605682373047,-11.6088285446167,234.72813415527344,266.6800537109375, 101.14559173583984
675,309587871,0.7209903,-0.36793974,-0.21489152,-0.54645693,11.943121910095215,2.881413459777832,-19.695640563964844,102.02509307861328,185.3631591796875, 72.68143463134766
676,309604538,0.7261054,-0.36395,-0.20562847,-0.54592013,7.206131935119629,9.52829647064209,-22.671037673950195,-0.1281304806470871,70.98211669921875, 39.677085876464844
677,309621205,0.7194446,-0.3788563,-0.20486045,-0.5448851,7.375177383422852,-0.721037745475769,-22.3215274810791,-91.27861022949219,-59.29507064819336, 3.8774631023406982
678,309637872,0.71299016,-0.38769656,-0.22423983,-0.53949344,11.478556632995605,2.650608777999878,-17.694326400756836,21.205394744873047,-146.33065795898438, -34.741519927978516
679,309654539,0.70398694,-0.397783,-0.25124985,-0.53201973,14.375348091125488,3.88332462310791,-12.2998628616333,39.997222900390625,-196.9256591796875, -52.230987548828125
680,309671206,0.6932689,-0.41007662,-0.2787438,-0.52298933,15.885461807250977,0.24300819635391235,-4.231977939605713,29.121692657470703,-213.74093627929688, -48.26780319213867
681,309687873,0.68446904,-0.42398754,-0.29419595,-0.51496196,16.667335510253906,-15.65422248840332,26.724557876586914,-18.50185203552246,-155.0601043701172, -9.044279098510742
682,309704540,0.68168277,-0.4285034,-0.3119616,-0.50435454,9.398350715637207,0.4597719609737396,7.1598663330078125,56.71805191040039,-128.80828857421875, -1.7854195833206177
683,309721207,0.6721093,-0.43773216,-0.32862598,-0.4986633,20.983020782470703,5.784271240234375,-10.901750564575195,0.15407812595367432,-140.21412658691406, -34.954620361328125
684,309737874,0.66062,-0.4492747,-0.34714097,-0.49114838,18.155750274658203,-1.7195385694503784,0.9178552627563477,-5.797557353973389,-165.68455505371094, -32.97438430786133
685,309754541,0.6483402,-0.4625536,-0.36288685,-0.48374823,9.59348201751709,-5.579592227935791,-4.0798139572143555,-25.735069274902344,-160.27137756347656, -23.352670669555664
686,309771208,0.6423544,-0.4667418,-0.3818932,-0.47295952,11.359736442565918,-2.0590460300445557,-4.0900678634643555,54.2154541015625,-139.3509521484375, -20.578983306884766
687,309787875,0.6355286,-0.47165394,-0.39711374,-0.46470088,9.975851058959961,-0.7822902798652649,-2.3924319744110107,29.430343627929688,-118.77819061279297, -20.51665687561035
688,309804542,0.6293837,-0.4757796,-0.4096815,-0.45789868,10.790580749511719,-2.4211599826812744,-2.090322732925415,22.625675201416016,-97.91686248779297, -18.266521453857422
