PacketCounter,SampleTimeFine,Quat_W,Quat_X,Quat_Y,Quat_Z,Acc_X,Acc_Y,Acc_Z,Gyr_X,Gyr_Y,Gyr_Z 
1,3118350567,0.48698702,-0.52289253,-0.36825305,-0.5948251,-0.946033239364624,-1.0581616163253784,-0.43004176020622253,2.008709192276001,-0.046425364911556244, 0.9466675519943237
2,3118367234,0.49233785,-0.53479236,-0.34293813,-0.59497416,13.087015151977539,0.8704063892364502,-1.7852733135223389,-81.77843475341797,341.5223083496094, 106.76814270019531
3,3118383901,0.48822463,-0.5372112,-0.32944095,-0.60374635,14.549798965454102,3.044128656387329,-2.025179862976074,-75.13867950439453,354.757568359375, 109.68930053710938
4,3118400568,0.48076752,-0.5284524,-0.32577235,-0.61925197,16.691556930541992,2.5552849769592285,-2.7445437908172607,-61.81590270996094,360.0190124511719, 114.01113891601562
5,3118417235,0.47880486,-0.515858,-0.3255294,-0.63140106,18.70006561279297,3.095888614654541,-2.393871784210205,-16.6796932220459,356.97845458984375, 116.75109100341797
6,3118433902,0.47935745,-0.50134933,-0.32571784,-0.6424743,19.609777450561523,5.44149923324585,-2.319648265838623,-4.42887544631958,347.0376892089844, 105.10307312011719
7,3118450569,0.47735164,-0.486337,-0.32600638,-0.6552339,19.709951400756836,5.212229251861572,-3.5069222450256348,-28.079784393310547,331.7310791015625, 89.40723419189453
8,3118467236,0.47165316,-0.47573742,-0.3234078,-0.66829985,19.694887161254883,5.5254058837890625,-4.651225566864014,-73.99864959716797,308.7510986328125, 75.54907989501953
9,3118483903,0.46029764,-0.47368422,-0.31544915,-0.6813525,18.476686477661133,2.7236883640289307,-7.835890293121338,-147.19984436035156,270.63385009765625, 73.04618072509766
10,3118500570,0.44944942,-0.47856236,-0.3099768,-0.68766844,15.424671173095703,4.68728494644165,-11.965786933898926,-133.236083984375,216.9127960205078, 75.85295867919922
11,3118517237,0.43921387,-0.48461762,-0.3228271,-0.68411964,10.47017765045166,7.9781599044799805,-16.865154266357422,-23.74679183959961,136.80606079101562, 39.90514373779297
12,3118533904,0.42239088,-0.496692,-0.3534006,-0.6708137,8.437774658203125,11.923762321472168,-18.36220932006836,39.275699615478516,23.046920776367188, -8.068625450134277
13,3118550571,0.39438242,-0.51709765,-0.38986143,-0.65198207,11.350536346435547,7.687263488769531,-15.491019248962402,13.32519817352295,-73.25955963134766, -33.277618408203125
14,3118567238,0.3626519,-0.53754574,-0.43017846,-0.6280724,12.648533821105957,6.6865692138671875,-10.774846076965332,33.231929779052734,-122.64746856689453, -59.18891906738281
15,3118583905,0.32619557,-0.55696195,-0.46614033,-0.6050645,13.26028060913086,7.3980536460876465,-6.9452924728393555,0.6441383361816406,-144.75933837890625, -80.22322082519531
16,3118600572,0.28117824,-0.5760283,-0.48946312,-0.5912329,15.663779258728027,2.5312111377716064,6.995060920715332,-108.46154022216797,-142.64212036132812, -94.23445129394531
17,3118617239,0.24309231,-0.5877975,-0.50353235,-0.5846842,14.641119956970215,-8.071481704711914,13.455734252929688,-118.64424133300781,-101.32511901855469, -83.52132415771484
18,3118633906,0.20785503,-0.5977947,-0.5100556,-0.5824786,16.708667755126953,-2.226104974746704,-2.6836695671081543,-141.32225036621094,-107.95538330078125, -87.0542221069336
19,3118650573,0.18189763,-0.60612935,-0.52258754,-0.5713343,17.283763885498047,-4.175291061401367,-4.747710704803467,-45.42675018310547,-130.4787139892578, -85.50209045410156
20,3118667240,0.1645507,-0.6131959,-0.53865653,-0.5538621,13.961385726928711,2.800649881362915,-2.3606796264648438,26.315244674682617,-136.00726318359375, -81.06576538085938
21,3118683907,0.14689757,-0.61922354,-0.5511749,-0.53961986,11.981391906738281,3.6660335063934326,0.9629812240600586,2.944647789001465,-126.56399536132812, -79.1854019165039
22,3118700574,0.1333742,-0.6244118,-0.5615846,-0.5262548,10.094018936157227,1.4714946746826172,0.6593395471572876,14.342342376708984,-113.73465728759766, -60.863216400146484
23,3118717241,0.12476292,-0.6286201,-0.57054764,-0.5135624,9.234047889709473,4.835858345031738,1.2801164388656616,30.928359985351562,-95.5295639038086, -44.27537155151367
24,3118733908,0.11550491,-0.6318277,-0.5757536,-0.5059252,9.816679000854492,5.4390645027160645,2.4317054748535156,-0.25395646691322327,-76.56819152832031, -38.063114166259766
25,3118750575,0.10772614,-0.63423514,-0.579617,-0.5001849,10.04469108581543,2.251709222793579,0.9970522522926331,-1.4169976711273193,-65.40535736083984, -31.314632415771484
26,3118767242,0.102982715,-0.6367058,-0.5838451,-0.49307764,11.258535385131836,-0.04931952804327011,0.46663302183151245,19.92329978942871,-64.39774322509766, -23.10934066772461
27,3118783909,0.100057244,-0.6393884,-0.5882348,-0.4849235,10.82606315612793,0.656072199344635,-0.3488793969154358,32.56479263305664,-66.4871597290039, -19.302692413330078
28,3118800576,0.09773413,-0.6420883,-0.59202176,-0.4771592,10.407025337219238,0.5480211973190308,0.3112468719482422,31.659847259521484,-64.74011993408203, -16.89821434020996
29,3118817243,0.0964928,-0.6445343,-0.5958688,-0.46926033,9.965805053710938,0.20923595130443573,0.3685239553451538,37.51258087158203,-62.674259185791016, -16.05851936340332
30,3118833910,0.09665519,-0.6466155,-0.6004466,-0.4604457,10.41340160369873,0.26322758197784424,1.0195051431655884,50.12235641479492,-62.34748458862305, -16.8015193939209
31,3118850577,0.09700283,-0.64818895,-0.60502833,-0.45208654,10.001341819763184,0.8033793568611145,2.069582939147949,49.61972427368164,-60.134544372558594, -19.520586013793945
32,3118867244,0.097372085,-0.6495127,-0.60974544,-0.4436919,9.837782859802246,1.0949774980545044,1.137807846069336,51.033660888671875,-61.647430419921875, -21.399673461914062
33,3118883911,0.09823612,-0.65062267,-0.61500955,-0.43451494,9.992072105407715,1.009574055671692,1.0963677167892456,58.711795806884766,-64.2362289428711, -22.727294921875
34,3118900578,0.099049024,-0.6514569,-0.620312,-0.4254486,10.082098007202148,1.3076729774475098,1.7106523513793945,58.611724853515625,-64.44940948486328, -24.251096725463867
35,3118917245,0.098930456,-0.65216154,-0.6252053,-0.41715303,9.95857048034668,1.1366517543792725,1.8767223358154297,50.50088119506836,-65.60962677001953, -26.04515838623047
36,3118933912,0.097447045,-0.65302217,-0.6296705,-0.40936708,10.388843536376953,0.5315979719161987,0.9498753547668457,41.232337951660156,-70.44355773925781, -27.57419776916504
37,3118950579,0.0950751,-0.65413433,-0.633813,-0.40168405,10.722147941589355,-0.03357108309864998,0.5431010723114014,35.73838806152344,-75.10368347167969, -27.70157814025879
38,3118967246,0.091754794,-0.65537745,-0.63782644,-0.39400366,11.10905933380127,-0.46735745668411255,-0.09568644315004349,30.817092895507812,-80.14994812011719, -29.416812896728516
39,3118983913,0.08807991,-0.65673023,-0.64187044,-0.38594034,11.336870193481445,-0.33442264795303345,0.15886415541172028,30.538206100463867,-84.25263977050781, -30.128934860229492
40,3119000580,0.08402181,-0.6582523,-0.64599955,-0.37726513,11.599451065063477,-0.23393090069293976,-0.39025458693504333,31.34398078918457,-89.77454376220703, -30.65018653869629
41,3119017247,0.080139376,-0.6599514,-0.6503738,-0.36749953,11.400277137756348,0.03065175749361515,-0.009436503052711487,37.189056396484375,-95.01387786865234, -30.027925491333008
42,3119033914,0.07562311,-0.6618795,-0.65490806,-0.35678062,10.912276268005371,0.3171178102493286,0.8292503356933594,38.64680862426758,-103.32727813720703, -30.7868595123291
43,3119050581,0.06905479,-0.66410375,-0.65907174,-0.34615356,10.894375801086426,1.6575095653533936,1.9906513690948486,27.774938583374023,-113.16104125976562, -32.71815872192383
44,3119067248,0.060143013,-0.66633886,-0.6628652,-0.33613306,11.723710060119629,1.462762475013733,2.164957046508789,13.785196304321289,-121.42377471923828, -36.600460052490234
45,3119083915,0.05068374,-0.66876817,-0.6665128,-0.32548586,12.72400188446045,0.6109874844551086,2.201306104660034,13.990643501281738,-127.85065460205078, -35.99521255493164
46,3119100582,0.042415928,-0.6711322,-0.6708528,-0.31263268,13.13066291809082,-0.24765974283218384,3.049753427505493,31.21792221069336,-133.46310424804688, -36.1286506652832
47,3119117249,0.036721684,-0.6731611,-0.6765624,-0.29625842,13.195199966430664,-1.3190323114395142,3.6031534671783447,62.33351516723633,-138.55245971679688, -37.415771484375
48,3119133916,0.033273827,-0.67435324,-0.68396866,-0.27627462,13.2974271774292,-1.9609240293502808,4.6225762367248535,93.01156616210938,-144.67120361328125, -43.42860794067383
49,3119150583,0.030817285,-0.67475146,-0.6924271,-0.2535857,14.142193794250488,-1.930283784866333,5.875918865203857,112.34957885742188,-152.5373992919922, -49.04672622680664
50,3119167250,0.02576346,-0.67479086,-0.7005334,-0.2307525,16.92889404296875,1.8232501745224,5.4623494148254395,100.416015625,-166.2882843017578, -53.04481506347656
51,3119183917,0.015614231,-0.6744383,-0.7073043,-0.21121061,19.492156982421875,1.2694777250289917,8.162922859191895,59.520843505859375,-176.3570556640625, -56.91612243652344
52,3119200584,0.004997387,-0.6754037,-0.71162295,-0.19338554,17.93414306640625,-2.1276943683624268,9.953300476074219,45.89274978637695,-174.37576293945312, -39.966163635253906
53,3119217251,-0.0017139118,-0.6784303,-0.7125355,-0.17894845,16.447998046875,0.3265763521194458,12.311700820922852,42.673728942871094,-143.83433532714844, -9.07740306854248
54,3119233918,-0.0018007092,-0.6783378,-0.7169487,-0.16074584,13.37753677368164,8.262560844421387,-0.7596657276153564,96.68959045410156,-126.50973510742188, -32.10724639892578
55,3119250585,-0.0017518724,-0.6775597,-0.72138005,-0.14325076,16.032503128051758,8.577216148376465,-7.914656639099121,95.14763641357422,-122.04720306396484, -34.17285919189453
56,3119267252,-0.0034516996,-0.67786735,-0.72243524,-0.13627681,12.99929141998291,2.929521322250366,2.1128745079040527,32.474761962890625,-83.16313171386719, -13.939167022705078
57,3119283919,0.00006121985,-0.68021584,-0.7191469,-0.14189509,8.524334907531738,-5.576517581939697,15.519613265991211,-9.616423606872559,-0.7061691284179688, 21.68670654296875
58,3119300586,0.01476854,-0.6826205,-0.7155686,-0.14755663,4.940273761749268,-2.009756326675415,5.989503383636475,41.39995574951172,54.9429931640625, 34.339542388916016
59,3119317253,0.031971864,-0.6826466,-0.71253383,-0.15895638,6.407210350036621,4.100057601928711,2.9834327697753906,25.2260684967041,97.43441009521484, 22.585952758789062
60,3119333920,0.046724647,-0.6817133,-0.7069369,-0.18254933,5.9410719871521,1.5459119081497192,4.156998634338379,-48.099056243896484,145.0906219482422, 24.80647850036621
61,3119350587,0.06646343,-0.67746425,-0.7019325,-0.20956059,5.970510482788086,-0.20914660394191742,4.551699638366699,-49.725311279296875,189.6985321044922, 37.85400390625
62,3119367254,0.08664397,-0.67284155,-0.69370997,-0.24195804,7.292026996612549,1.4856925010681152,4.454302787780762,-79.54444122314453,230.19491577148438, 46.92286682128906
63,3119383921,0.106224984,-0.66742307,-0.6819557,-0.27964124,8.094792366027832,1.1902737617492676,2.814154863357544,-113.5420913696289,264.66851806640625, 52.36616516113281
64,3119400588,0.12648346,-0.6623589,-0.66519827,-0.32061517,9.047676086425781,1.3429995775222778,0.9620260000228882,-126.4495849609375,296.2215576171875, 59.60462188720703
65,3119417255,0.14970617,-0.6556486,-0.64504063,-0.3628164,11.181402206420898,0.35677897930145264,-0.895227313041687,-125.04364776611328,325.0773010253906, 73.6536636352539
66,3119433922,0.17817605,-0.64698696,-0.6228607,-0.40212685,13.292346000671387,-0.7456485629081726,-1.2096014022827148,-91.85273742675781,343.92474365234375, 90.5338363647461
67,3119450589,0.2110041,-0.6355529,-0.5992886,-0.438638,15.159063339233398,1.0974456071853638,-1.2879663705825806,-61.06883239746094,360.3912353515625, 100.52567291259766
68,3119467256,0.24529918,-0.62189287,-0.57314247,-0.47390467,17.138629913330078,1.7275986671447754,-1.7252116203308105,-54.113189697265625,371.9402770996094, 108.9714126586914
69,3119483923,0.2818215,-0.60604423,-0.5461764,-0.50495416,19.24000358581543,1.7015836238861084,-2.4790735244750977,-26.984235763549805,371.473388671875, 118.32315063476562
70,3119500590,0.3187723,-0.5879162,-0.5199176,-0.53143626,20.360702514648438,3.841031074523926,-1.556731939315796,-1.1709150075912476,360.7607116699219, 117.2009506225586
71,3119517257,0.35128093,-0.5689241,-0.49228945,-0.5572957,20.994640350341797,4.894922733306885,-2.0879249572753906,-20.03276824951172,348.61798095703125, 104.83281707763672
72,3119533924,0.37817764,-0.55040264,-0.46321288,-0.5826427,20.742633819580078,4.660480499267578,-4.090908050537109,-46.95309829711914,329.38616943359375, 91.8651351928711
73,3119550591,0.3978235,-0.53612983,-0.43075582,-0.60724866,19.352388381958008,1.0277239084243774,-8.01996898651123,-96.6530990600586,295.3315124511719, 91.09893035888672
74,3119567258,0.41419744,-0.52531815,-0.3999428,-0.62652004,17.470191955566406,4.75186014175415,-11.048791885375977,-95.52278900146484,247.11264038085938, 96.21107482910156
75,3119583925,0.42707127,-0.51474947,-0.38216358,-0.63764745,10.918721199035645,7.424116611480713,-17.475929260253906,-30.31422996520996,169.98556518554688, 57.9373893737793
76,3119600592,0.4337962,-0.5065156,-0.38298422,-0.63920736,7.620809555053711,13.27955436706543,-18.25754737854004,47.74662399291992,55.25086212158203, -0.5681387186050415
77,3119617259,0.42509297,-0.5107073,-0.385856,-0.6399915,10.298877716064453,9.640597343444824,-16.081893920898438,-32.01161193847656,-48.6832160949707, -40.389495849609375
78,3119633926,0.4099997,-0.5198242,-0.3936498,-0.6377483,12.237968444824219,5.807154178619385,-12.284507751464844,-39.16893005371094,-112.25238800048828, -63.83177947998047
79,3119650593,0.39249238,-0.52915543,-0.4064446,-0.633046,12.524626731872559,6.233310699462891,-8.381409645080566,-19.820568084716797,-142.58908081054688, -84.77825927734375
80,3119667260,0.367938,-0.5416197,-0.41583338,-0.6311517,14.189352989196777,7.298209190368652,-5.334791660308838,-76.5961685180664,-156.53125, -101.87831115722656
81,3119683927,0.34100616,-0.55494237,-0.41838393,-0.63301563,16.4073543548584,-6.136008262634277,15.125188827514648,-128.04550170898438,-135.797119140625, -93.76513671875
82,3119700594,0.31698266,-0.5658797,-0.42048338,-0.63442576,15.615787506103516,-5.33181095123291,4.179077625274658,-111.97234344482422,-117.9371337890625, -85.29596710205078
83,3119717261,0.29125863,-0.5775242,-0.4244821,-0.63360023,20.63654136657715,-2.397791862487793,-6.548550128936768,-105.37676239013672,-138.85592651367188, -93.27654266357422
84,3119733928,0.2728342,-0.58523214,-0.438137,-0.6253807,15.517991065979004,-1.938400149345398,-2.214169979095459,-4.872243881225586,-149.06106567382812, -96.55303192138672
85,3119750595,0.2570009,-0.5914504,-0.4520077,-0.61630046,11.505632400512695,2.860168695449829,-2.1951520442962646,11.864566802978516,-138.73175048828125, -89.18953704833984
86,3119767262,0.24255136,-0.5968753,-0.46349666,-0.6083418,10.407498359680176,3.300783634185791,0.11462216079235077,5.31533145904541,-122.3092269897461, -78.07091522216797
87,3119783929,0.2321622,-0.6008151,-0.47333464,-0.6008963,9.384252548217773,4.999377250671387,1.1033990383148193,15.923821449279785,-98.32815551757812, -59.88468933105469
88,3119800596,0.22262254,-0.6040323,-0.47984728,-0.59609646,10.257434844970703,5.866652011871338,1.982826590538025,-1.741483449935913,-76.3747329711914, -49.1876335144043
89,3119817263,0.21492001,-0.6072878,-0.485109,-0.59133786,10.772117614746094,1.3664389848709106,0.947175920009613,0.5852561593055725,-68.42774963378906, -36.37506866455078
90,3119833930,0.21047547,-0.6100809,-0.4919107,-0.58440185,10.983598709106445,1.7133063077926636,0.8667949438095093,28.40505027770996,-67.07706451416016, -27.90764808654785
91,3119850597,0.20546289,-0.61348253,-0.49767444,-0.5777063,11.097799301147461,0.3888247609138489,0.14547498524188995,20.16265296936035,-68.96183776855469, -24.143104553222656
92,3119867264,0.20186546,-0.61678535,-0.503856,-0.5700487,10.00866413116455,0.6062195897102356,0.3922368586063385,31.219554901123047,-68.39586639404297, -19.29073143005371
93,3119883931,0.19786096,-0.62033486,-0.50937307,-0.5626499,10.21639347076416,0.23825021088123322,0.2485232651233673,25.646156311035156,-68.77471160888672, -17.590539932250977
94,3119900598,0.1954717,-0.6236705,-0.515983,-0.5537036,10.132862091064453,0.032895371317863464,0.3738687038421631,42.475345611572266,-70.39718627929688, -14.667047500610352
95,3119917265,0.19412722,-0.62653035,-0.52362466,-0.54368347,9.965495109558105,0.8530852198600769,1.1999115943908691,55.331790924072266,-70.89177703857422, -15.378847122192383
96,3119933932,0.19275233,-0.62895405,-0.53141737,-0.5337219,9.607688903808594,1.493790626525879,1.5445263385772705,56.13842010498047,-69.35325622558594, -17.79860496520996
97,3119950599,0.1910422,-0.63106126,-0.5394051,-0.5237432,9.287213325500488,1.8111083507537842,1.1727731227874756,55.8970832824707,-69.7799301147461, -21.007558822631836
98,3119967266,0.18857265,-0.6328396,-0.547474,-0.5140301,9.441068649291992,2.0065653324127197,0.9880132675170898,52.35060119628906,-70.39268493652344, -25.660554885864258
99,3119983933,0.18544748,-0.63432807,-0.5550969,-0.5050789,9.929091453552246,1.7602756023406982,0.9797794818878174,45.442562103271484,-67.96441650390625, -28.115800857543945
100,3120000600,0.18219253,-0.63556737,-0.56238186,-0.49657503,10.135804176330566,1.3202309608459473,0.47704607248306274,42.315330505371094,-65.2431869506836, -28.614622116088867
101,3120017267,0.1786938,-0.6366979,-0.5694293,-0.4882979,10.748934745788574,0.9991903901100159,-0.05825984477996826,39.70648193359375,-64.54879760742188, -29.12477684020996
102,3120033934,0.17487755,-0.63791466,-0.5760197,-0.48029584,11.227139472961426,0.21577246487140656,-0.058501508086919785,35.5919075012207,-64.34253692626953, -28.20102882385254
103,3120050601,0.171042,-0.6391394,-0.582617,-0.4720202,11.351536750793457,-0.31704211235046387,-0.5579314231872559,36.60407638549805,-65.68177795410156, -27.959718704223633
104,3120067268,0.16730553,-0.6404171,-0.5895865,-0.46288523,11.21541976928711,-0.16313090920448303,-0.4151628613471985,41.61669158935547,-69.69864654541016, -28.076717376708984
105,3120083935,0.16290487,-0.6420636,-0.5965692,-0.45312428,11.10352611541748,0.3994801938533783,-0.405394971370697,40.839881896972656,-76.36761474609375, -28.05492401123047
106,3120100602,0.1578413,-0.6441735,-0.60392034,-0.44204882,10.696198463439941,0.5460687875747681,0.13017962872982025,43.931983947753906,-86.77820587158203, -28.388822555541992
107,3120117269,0.1510131,-0.6469757,-0.61134636,-0.4299689,10.454007148742676,1.2790807485580444,1.4276410341262817,39.76553726196289,-100.77705383300781, -30.131956100463867
108,3120133936,0.1418359,-0.65033203,-0.6184845,-0.4176459,11.570088386535645,1.9380383491516113,1.9430172443389893,28.923980712890625,-113.12305450439453, -33.21980667114258
109,3120150603,0.13109548,-0.6541781,-0.6256516,-0.40425885,13.30157470703125,0.8902808427810669,2.1238954067230225,26.085161209106445,-126.03012084960938, -34.72719192504883
110,3120167270,0.120633,-0.65795904,-0.6336444,-0.38862893,14.270485877990723,0.300165057182312,2.603605270385742,39.34912109375,-135.5736846923828, -35.953453063964844
111,3120183937,0.11210777,-0.6612471,-0.642782,-0.3701563,14.914433479309082,-1.7988156080245972,2.64510178565979,63.97453689575195,-139.7303466796875, -35.777408599853516
112,3120200604,0.10737898,-0.66367537,-0.6539239,-0.34697047,15.132343292236328,-3.792374610900879,3.675611972808838,107.82027435302734,-143.8560028076172, -35.435726165771484
113,3120217271,0.10480151,-0.66530627,-0.66604626,-0.32057244,14.603860855102539,-4.094717502593994,5.883669853210449,134.98287963867188,-147.8009033203125, -36.03005599975586
114,3120233938,0.09988292,-0.6667234,-0.67764485,-0.29377,15.1740140914917,0.1502377986907959,6.137431621551514,125.1029052734375,-159.6740264892578, -39.50714874267578
115,3120250605,0.08687338,-0.6682736,-0.68717796,-0.27138504,17.631366729736328,3.3778462409973145,6.906650066375732,63.18841552734375,-176.1201934814453, -48.794490814208984
116,3120267272,0.06988746,-0.6704658,-0.69420856,-0.25232112,19.101245880126953,0.7693344950675964,8.41052532196045,24.241985321044922,-179.531005859375, -43.67264175415039
117,3120283939,0.05732725,-0.67412734,-0.6991147,-0.23131117,18.439800262451172,-1.108710765838623,11.005014419555664,49.57784652709961,-169.1106414794922, -18.28803062438965
118,3120300606,0.04846255,-0.67683864,-0.7011633,-0.21888587,14.616157531738281,4.048222541809082,9.285423278808594,21.28019905090332,-109.12016296386719, -7.155233860015869
119,3120317273,0.044399682,-0.6750949,-0.70935977,-0.1976975,12.625579833984375,12.469101905822754,-8.878973007202148,96.702392578125,-122.23657989501953, -47.08332824707031
120,3120333940,0.03621114,-0.67358357,-0.7141775,-0.18688095,14.148701667785645,8.257198333740234,-5.578577518463135,22.439388275146484,-93.48407745361328, -38.97077941894531
121,3120350607,0.029435048,-0.67424774,-0.7143415,-0.18504037,12.605149269104004,-4.165763854980469,12.829970359802246,-21.53023910522461,-46.65730667114258, -7.160354137420654
122,3120367274,0.037295125,-0.67610574,-0.7119795,-0.18594478,3.33918833732605,-5.689089298248291,10.078873634338379,29.329816818237305,36.81402587890625, 28.43412971496582
123,3120383941,0.05014111,-0.67564845,-0.7105907,-0.18985811,5.612927436828613,3.1523444652557373,3.6196773052215576,39.53035354614258,77.95915222167969, 18.19402503967285
124,3120400608,0.05907641,-0.6700623,-0.7101274,-0.2079562,6.606698036193848,4.050656318664551,3.537909984588623,-57.56281280517578,123.69413757324219, 11.512741088867188
125,3120417275,0.069301516,-0.6652124,-0.7054363,-0.23462702,6.436985015869141,-1.9297677278518677,4.257506370544434,-98.92240905761719,170.8468475341797, 26.941843032836914
126,3120433942,0.08581448,-0.660092,-0.6984977,-0.26270828,6.465318202972412,-0.7636595964431763,4.376181602478027,-80.5151596069336,209.6243896484375, 41.40648651123047
127,3120450609,0.10400922,-0.65432584,-0.68805635,-0.29600418,7.587442874908447,0.5225681066513062,3.61875581741333,-103.65711212158203,245.13018798828125, 50.15193557739258
128,3120467276,0.12415366,-0.6477254,-0.6735539,-0.33371085,8.073431015014648,-0.1231343224644661,1.8862203359603882,-122.39920806884766,279.64105224609375, 60.69390106201172
129,3120483943,0.1487117,-0.64006037,-0.65530413,-0.3725377,9.953779220581055,-0.8542922735214233,-0.5066559314727783,-115.31072235107422,311.21624755859375, 78.66048431396484
130,3120500610,0.17923689,-0.6314269,-0.634102,-0.40876538,12.28109359741211,-2.1061718463897705,-1.254255771636963,-81.40779113769531,333.649658203125, 100.78740692138672
131,3120517277,0.2152349,-0.6214431,-0.61077136,-0.44095472,14.302950859069824,-1.0657483339309692,-1.3232176303863525,-36.81847381591797,349.55078125, 117.70924377441406
132,3120533944,0.25280628,-0.60900766,-0.5850266,-0.47216815,16.138139724731445,1.7177085876464844,-1.7649177312850952,-29.741191864013672,363.10662841796875, 123.93848419189453
133,3120550611,0.28933716,-0.594989,-0.55662495,-0.5024352,17.825504302978516,2.169595241546631,-2.458057403564453,-36.201656341552734,364.8682861328125, 127.0089111328125
134,3120567278,0.3256381,-0.5790649,-0.528303,-0.5287151,19.414548873901367,2.9028000831604004,-1.5586954355239868,-17.83620262145996,354.2725830078125, 126.57877349853516
135,3120583945,0.35873872,-0.56154007,-0.49946347,-0.5536386,20.263938903808594,5.3328986167907715,-1.304666519165039,-23.984708786010742,344.3868713378906, 114.29022979736328
136,3120600612,0.38612667,-0.5436046,-0.46923846,-0.57897824,20.627832412719727,5.896700859069824,-2.7825675010681152,-51.753536224365234,331.52362060546875, 95.54115295410156
137,3120617279,0.40607423,-0.52747434,-0.43673065,-0.605096,19.606142044067383,5.875737190246582,-4.9728007316589355,-95.99955749511719,309.49285888671875, 78.29011535644531
138,3120633946,0.4203393,-0.516484,-0.40064132,-0.62932175,18.425214767456055,0.40731555223464966,-10.245001792907715,-140.21444702148438,274.40142822265625, 88.43022155761719
139,3120650613,0.4350094,-0.5059277,-0.37370646,-0.6443195,15.089216232299805,6.295793533325195,-12.293890953063965,-75.00045013427734,214.65585327148438, 85.52864074707031
140,3120667280,0.4470539,-0.49466518,-0.36524674,-0.64964926,8.595880508422852,10.005742073059082,-18.26140022277832,24.64211082458496,122.39491271972656, 36.81609344482422
141,3120683947,0.44941863,-0.49001154,-0.36973512,-0.6490051,8.331969261169434,13.799201011657715,-16.72896385192871,44.198760986328125,8.752154350280762, -15.365654945373535
142,3120700614,0.43992966,-0.4966196,-0.37511912,-0.64739233,11.464678764343262,7.236457347869873,-14.544724464416504,-24.12285804748535,-77.4301986694336, -39.49650192260742
143,3120717281,0.42797318,-0.50390023,-0.38734716,-0.6425619,12.536031723022461,5.792336463928223,-9.851757049560547,4.1603474617004395,-118.30776977539062, -62.32794189453125
144,3120733948,0.41276827,-0.51172966,-0.40154713,-0.63758546,12.29322624206543,7.269927501678467,-6.360031604766846,0.37905657291412354,-135.61322021484375, -81.59745788574219
145,3120750615,0.38829297,-0.52473944,-0.40812024,-0.6382124,14.039023399353027,6.583527088165283,-1.2370153665542603,-95.8640365600586,-142.55105590820312, -96.95826721191406
146,3120767282,0.3627935,-0.53725415,-0.4068373,-0.64360106,15.435567855834961,-9.757442474365234,18.6846923828125,-146.0748291015625,-105.165771484375, -87.16988372802734
147,3120783949,0.33871457,-0.5489497,-0.40505567,-0.6479636,16.249011993408203,-4.90130090713501,-1.5895116329193115,-138.05572509765625,-100.45431518554688, -78.96509552001953
148,3120800616,0.31637773,-0.5596098,-0.41053703,-0.646685,21.062150955200195,-4.6305623054504395,-4.908139705657959,-80.9979476928711,-129.2067413330078, -88.4682846069336
149,3120817283,0.30113566,-0.5663342,-0.42609987,-0.6379827,14.018988609313965,0.6973960399627686,-1.2694510221481323,20.633697509765625,-142.13595581054688, -90.77883911132812
150,3120833950,0.28406614,-0.57299703,-0.43912673,-0.63099027,12.024576187133789,4.883217811584473,-0.12508636713027954,-2.496283769607544,-135.33470153808594, -92.66246032714844
151,3120850617,0.26842105,-0.5793996,-0.45020026,-0.6241524,10.444205284118652,2.069345474243164,1.0558056831359863,-5.312348365783691,-125.51776123046875, -79.84109497070312
152,3120867284,0.25811288,-0.584299,-0.46057358,-0.61631536,8.96216106414795,5.168099403381348,1.0260950326919556,18.823139190673828,-105.2884521484375, -56.96400451660156
153,3120883951,0.24764264,-0.5888516,-0.46660867,-0.6117219,9.692496299743652,6.4293036460876465,2.3556900024414062,-9.847663879394531,-83.64751434326172, -47.044464111328125
154,3120900618,0.23949787,-0.5931502,-0.47110626,-0.6073487,10.550212860107422,1.795598030090332,0.6560179591178894,-7.147496223449707,-71.67428588867188, -32.18960952758789
155,3120917285,0.234483,-0.5968453,-0.47683182,-0.60118616,11.301159858703613,0.5808765888214111,0.7866660356521606,17.54646873474121,-68.3768081665039, -23.16410255432129
156,3120933952,0.22953959,-0.6005649,-0.48201004,-0.5952311,10.69819164276123,-0.20847466588020325,0.12961965799331665,14.862850189208984,-66.55622863769531, -20.9213809967041
157,3120950619,0.2256275,-0.6039482,-0.48758826,-0.5887248,10.47045612335205,0.2547982931137085,0.7110480666160583,23.113651275634766,-64.70565795898438, -18.6438045501709
158,3120967286,0.22128059,-0.60743654,-0.49238333,-0.5827646,10.071356773376465,0.12968546152114868,-0.019035905599594116,16.14867401123047,-63.148841857910156, -17.68403434753418
159,3120983953,0.21826136,-0.61048144,-0.4977894,-0.5760906,10.143434524536133,-0.0634143128991127,0.09762226045131683,27.233606338500977,-60.817562103271484, -15.365914344787598
160,3121000620,0.21664028,-0.6126553,-0.5045021,-0.56850535,10.004932403564453,1.1203047037124634,0.5688238143920898,42.70072937011719,-58.40229034423828, -16.959447860717773
161,3121017287,0.2158273,-0.6143787,-0.51184726,-0.5603303,9.550339698791504,0.9684877395629883,1.1941230297088623,51.29802322387695,-57.30568313598633, -17.16389274597168
162,3121033954,0.21568118,-0.6157027,-0.5202267,-0.5511408,9.480738639831543,1.4884545803070068,1.0483522415161133,62.2747917175293,-59.288475036621094, -18.880264282226562
163,3121050621,0.21492371,-0.6168706,-0.52937233,-0.54133517,9.698996543884277,1.245161771774292,1.3845140933990479,65.0335693359375,-64.67406463623047, -24.08990478515625
164,3121067288,0.21316771,-0.6180536,-0.5385486,-0.5315401,9.944931030273438,0.6264635324478149,1.218361735343933,60.862083435058594,-68.41822814941406, -27.90657615661621
165,3121083955,0.21057515,-0.6191756,-0.5475792,-0.5219549,9.965526580810547,0.6058326363563538,0.77229243516922,56.095943450927734,-70.23906707763672, -30.898540496826172
166,3121100622,0.20686257,-0.620622,-0.5556538,-0.51311356,10.629270553588867,0.19163210690021515,-0.15861669182777405,44.62934494018555,-71.1156005859375, -30.722673416137695
167,3121117289,0.2030698,-0.6223677,-0.563191,-0.50421935,11.348231315612793,0.07596752047538757,0.009878791868686676,42.164276123046875,-71.9770278930664, -27.520862579345703
168,3121133956,0.19940978,-0.62404877,-0.5707144,-0.4950597,11.46175765991211,0.04753320291638374,0.3920867145061493,43.79753494262695,-72.4072036743164, -26.911165237426758
169,3121150623,0.19585322,-0.6257629,-0.5784968,-0.4851847,11.427695274353027,0.32884809374809265,0.18924781680107117,47.88374710083008,-75.59719848632812, -26.59043312072754
170,3121167290,0.19208504,-0.6277668,-0.5866875,-0.47414133,11.231438636779785,0.08522885292768478,0.397002637386322,52.592350006103516,-83.04098510742188, -26.3516902923584
171,3121183957,0.18785022,-0.6302308,-0.5955844,-0.4613032,10.81969928741455,0.3838486969470978,0.8572373986244202,59.51213455200195,-95.16767120361328, -26.71940803527832
172,3121200624,0.18101461,-0.63357437,-0.6042445,-0.4480023,11.112290382385254,1.417052149772644,2.083122730255127,48.25287628173828,-110.37738800048828, -29.761436462402344
173,3121217291,0.17122364,-0.6377484,-0.61226106,-0.4348518,12.4160795211792,1.387080430984497,2.365797758102417,31.75910186767578,-123.85050964355469, -32.809024810791016
174,3121233958,0.15991992,-0.6423293,-0.62040347,-0.42064053,13.717991828918457,0.27743861079216003,2.7671499252319336,29.508651733398438,-136.34835815429688, -34.94361114501953
175,3121250625,0.14957304,-0.6465564,-0.6298055,-0.403656,14.439417839050293,-1.5207768678665161,2.873035192489624,49.609375,-145.01573181152344, -36.24235916137695
176,3121267292,0.14152068,-0.6496138,-0.64123094,-0.3831411,14.78404712677002,-2.744905710220337,3.8683199882507324,81.90937042236328,-149.76722717285156, -40.35832977294922
177,3121283959,0.1344886,-0.6513142,-0.6542231,-0.36013186,14.243844985961914,-3.6195356845855713,5.27639102935791,102.89997100830078,-154.54541015625, -48.281105041503906
178,3121300626,0.12738934,-0.6523572,-0.66750276,-0.33562204,14.20195198059082,-3.012031078338623,6.426107406616211,110.65335083007812,-160.408203125, -51.34975814819336
179,3121317293,0.11656361,-0.6537132,-0.6797709,-0.31142214,16.808231353759766,2.3409371376037598,5.962186336517334,89.90392303466797,-176.17230224609375, -54.2795524597168
180,3121333960,0.10058831,-0.6555895,-0.68980086,-0.29027486,19.391368865966797,2.730043888092041,8.454376220703125,47.34788513183594,-186.08135986328125, -55.260009765625
181,3121350627,0.08645928,-0.658835,-0.69746804,-0.26832762,18.555265426635742,-1.3585457801818848,10.081465721130371,53.88990783691406,-182.3376007080078, -33.90321731567383
182,3121367294,0.07583902,-0.6632449,-0.7010601,-0.25073788,17.277889251708984,2.0156562328338623,14.570038795471191,40.68752670288086,-145.797119140625, -6.02961540222168
183,3121383961,0.07237742,-0.6631733,-0.7082347,-0.2310116,10.885732650756836,8.935678482055664,-1.4244868755340576,92.24314880371094,-115.50257110595703, -30.516111373901367
184,3121400628,0.06806624,-0.66108465,-0.71644986,-0.21221212,13.757478713989258,11.020214080810547,-9.330543518066406,86.6611099243164,-112.76563262939453, -46.78791427612305
185,3121417295,0.0624765,-0.6612892,-0.71915317,-0.2039905,11.938972473144531,1.449277639389038,0.2241203933954239,19.772600173950195,-71.77508544921875, -17.180814743041992
186,3121433962,0.0662485,-0.66342473,-0.7168863,-0.2038455,8.438639640808105,-5.625479221343994,16.931358337402344,14.594927787780762,10.576050758361816, 24.61115264892578
187,3121450629,0.080697335,-0.66404897,-0.7148803,-0.2036495,2.7719573974609375,-1.3957948684692383,5.029497146606445,64.52723693847656,64.80508422851562, 30.943086624145508
188,3121467296,0.09602895,-0.65931654,-0.715134,-0.21133766,5.750209808349609,5.372089385986328,1.8377362489700317,25.689659118652344,107.10220336914062, 12.949631690979004
189,3121483963,0.107742675,-0.65461886,-0.7110753,-0.23289007,6.612943172454834,1.7994205951690674,4.014416217803955,-64.94365692138672,155.31927490234375, 15.915587425231934
190,3121500630,0.1234511,-0.6501204,-0.7034331,-0.2593938,5.97829008102417,-1.0689547061920166,4.629480361938477,-77.02362060546875,199.5618896484375, 33.31371307373047
191,3121517297,0.13938159,-0.64523417,-0.691793,-0.29269153,7.330818176269531,1.1053686141967773,4.126689434051514,-115.67537689208984,235.19786071777344, 41.3943977355957
192,3121533964,0.15507609,-0.6396413,-0.6758608,-0.33169696,8.259637832641602,0.5187385678291321,2.2843000888824463,-151.53843688964844,265.04547119140625, 48.4429817199707
193,3121550631,0.17251429,-0.6327238,-0.6557933,-0.37394458,9.002791404724121,0.8114771842956543,-0.08113512396812439,-165.96875,295.2359313964844, 57.86450958251953
194,3121567298,0.19296484,-0.62455076,-0.6315505,-0.41694728,11.001872062683105,-0.5737199187278748,-1.2037935256958008,-164.31570434570312,320.84881591796875, 74.47650909423828
195,3121583965,0.21893817,-0.6149967,-0.60482717,-0.45610273,13.208767890930176,-1.4513996839523315,-1.7073652744293213,-121.8106460571289,338.2893981933594, 93.90747833251953
196,3121600632,0.24921276,-0.60252464,-0.57690674,-0.49197158,15.205377578735352,0.9578344225883484,-1.2509394884109497,-89.35442352294922,353.2807312011719, 105.16719818115234
197,3121617299,0.28114453,-0.5879929,-0.546916,-0.5254572,17.092330932617188,1.6405707597732544,-1.9206905364990234,-76.53218078613281,360.5888671875, 115.238037109375
198,3121633966,0.31622353,-0.571017,-0.5177645,-0.5530481,18.861698150634766,1.488343596458435,-1.7737908363342285,-33.900150299072266,355.9400939941406, 125.44141387939453
199,3121650633,0.35258248,-0.55117536,-0.49116516,-0.5750203,19.643524169921875,3.8396785259246826,-0.7481184601783752,7.0324859619140625,343.9536437988281, 122.35382080078125
200,3121667300,0.38437325,-0.5303923,-0.46356213,-0.5967005,19.973546981811523,5.470617294311523,-1.225888729095459,-11.017932891845703,333.7667236328125, 105.73670959472656
201,3121683967,0.41035283,-0.51071805,-0.43399286,-0.61840767,19.992382049560547,3.885291814804077,-3.621100425720215,-43.346588134765625,316.23388671875, 92.6611099243164
202,3121700634,0.4310651,-0.49518588,-0.40248153,-0.6379519,18.53620147705078,0.22563350200653076,-7.49155855178833,-75.40020751953125,281.1064758300781, 95.63021850585938
203,3121717301,0.44801518,-0.4835065,-0.37211436,-0.6534793,16.7292423248291,4.660958766937256,-10.518823623657227,-83.54690551757812,237.13340759277344, 97.80852508544922
204,3121733968,0.46242827,-0.47167802,-0.35569963,-0.66117924,10.760369300842285,6.508098602294922,-17.47553253173828,-8.849746704101562,162.74014282226562, 63.86821746826172
205,3121750635,0.4696643,-0.4631828,-0.35741195,-0.6611612,7.043680667877197,13.170425415039062,-17.535444259643555,58.48090744018555,47.895450592041016, 5.309549331665039
206,3121767302,0.46060792,-0.46888295,-0.35937658,-0.6624484,10.478668212890625,10.18822193145752,-14.977474212646484,-41.404144287109375,-52.871177673339844, -38.62015151977539
207,3121783969,0.44480523,-0.48005307,-0.36526912,-0.66202414,12.592615127563477,5.7403059005737305,-11.277493476867676,-58.43257522583008,-112.05399322509766, -62.88938522338867
208,3121800636,0.42621973,-0.49150681,-0.37549496,-0.6601223,13.518468856811523,7.072707653045654,-7.23933744430542,-45.091800689697266,-138.2209930419922, -84.54293060302734
209,3121817303,0.40106982,-0.50564206,-0.3830606,-0.66085845,14.51778507232666,7.713462829589844,-0.21310845017433167,-94.06250762939453,-150.50799560546875, -106.05561065673828
210,3121833970,0.37840322,-0.5185221,-0.388775,-0.6609084,18.700471878051758,-8.243552207946777,11.142223358154297,-88.5789794921875,-135.5782470703125, -89.64437866210938
211,3121850637,0.35408154,-0.53155375,-0.39459756,-0.6605828,17.914310455322266,-1.6642197370529175,-1.98959219455719,-93.31595611572266,-142.5823516845703, -96.396728515625
212,3121867304,0.33231464,-0.54249954,-0.4053748,-0.65645474,17.384014129638672,-2.4281234741210938,-3.0073304176330566,-46.079124450683594,-152.11453247070312, -99.38543701171875
213,3121883971,0.3154201,-0.5502789,-0.4203615,-0.6488448,12.227665901184082,0.3809530436992645,-1.409964919090271,8.026453971862793,-146.81817626953125, -94.0647964477539
214,3121900638,0.30010867,-0.55650496,-0.43337774,-0.64220005,10.986690521240234,5.080127716064453,-1.0905728340148926,5.796278953552246,-127.4068374633789, -86.16754150390625
215,3121917305,0.28541902,-0.5617038,-0.44236666,-0.63822937,10.29318618774414,7.552689075469971,0.0820339024066925,-15.458847999572754,-102.50330352783203, -76.54322052001953
216,3121933972,0.27284625,-0.5663752,-0.4482184,-0.6355113,10.70667552947998,4.546662330627441,-0.5883922576904297,-23.809316635131836,-82.8076400756836, -59.117515563964844
217,3121950639,0.26633212,-0.5701607,-0.4548462,-0.63015777,11.490606307983398,-0.04051593318581581,0.15390872955322266,12.969895362854004,-72.02482604980469, -33.436920166015625
218,3121967306,0.2635425,-0.5727846,-0.46316418,-0.6228502,11.427056312561035,1.2888432741165161,-0.0588923916220665,43.14265060424805,-66.1601791381836, -24.058576583862305
219,3121983973,0.26158467,-0.5752906,-0.471018,-0.61543185,11.592679023742676,-0.0789952203631401,0.8867689371109009,45.00797653198242,-62.65558624267578, -18.894268035888672
220,3122000640,0.26053998,-0.57761204,-0.47897887,-0.60750514,10.33370304107666,-0.009994215331971645,1.4071005582809448,51.06107711791992,-61.19548416137695, -15.210158348083496
221,3122017307,0.25872767,-0.579896,-0.48579034,-0.6006567,9.89840030670166,2.2335240840911865,0.8442506790161133,39.74207305908203,-57.30620193481445, -15.967267990112305
222,3122033974,0.25594175,-0.5826956,-0.4909278,-0.59493685,9.803841590881348,0.8861539959907532,0.8318915963172913,24.27648162841797,-55.27345657348633, -13.61142349243164
223,3122050641,0.2540955,-0.5851997,-0.49664608,-0.5884894,9.829941749572754,1.371246099472046,1.513466477394104,33.406673431396484,-54.891685485839844, -11.848188400268555
224,3122067308,0.25319362,-0.5871955,-0.50358063,-0.58094835,9.082109451293945,1.2823611497879028,2.401169538497925,46.76341247558594,-56.212074279785156, -12.770828247070312
225,3122083975,0.25442502,-0.58829886,-0.51344013,-0.5705713,9.019275665283203,1.4828611612319946,1.184163212776184,78.45450592041016,-61.89350128173828, -14.234127044677734
226,3122100642,0.25540918,-0.5891081,-0.52424544,-0.55936104,9.319245338439941,1.589661955833435,2.1440670490264893,84.63694763183594,-66.70065307617188, -18.62425422668457
227,3122117309,0.25415727,-0.59039515,-0.5332816,-0.5499533,9.653218269348145,1.8910876512527466,1.8758225440979004,61.455810546875,-66.27632141113281, -21.51351547241211
228,3122133976,0.25087813,-0.5923554,-0.5406297,-0.54212093,9.945626258850098,1.5161057710647583,1.719427466392517,39.91521453857422,-66.98880767822266, -22.62196922302246
229,3122150643,0.24676874,-0.59459287,-0.54749495,-0.5346159,10.398630142211914,0.8794515132904053,0.5617120265960693,33.05284881591797,-69.02210998535156, -23.302268981933594
230,3122167310,0.24279441,-0.59673136,-0.5545987,-0.52667165,11.190849304199219,0.10536732524633408,1.0079519748687744,36.310218811035156,-70.40933227539062, -23.440139770507812
231,3122183977,0.2382463,-0.59899,-0.5618071,-0.51848125,11.55604362487793,-0.3730860948562622,-0.19046545028686523,35.074554443359375,-74.29684448242188, -25.126792907714844
232,3122200644,0.23327598,-0.60115486,-0.569286,-0.5100085,11.521868705749512,-0.9370840787887573,-0.011272735893726349,35.53463363647461,-77.25868225097656, -27.70137596130371
233,3122217311,0.22736764,-0.6036671,-0.5764651,-0.50157595,12.011873245239258,-1.0027846097946167,-0.40116381645202637,29.879209518432617,-81.5694580078125, -28.51970863342285
234,3122233978,0.22139338,-0.6064739,-0.58390015,-0.4921739,12.011697769165039,-1.3014601469039917,-0.692947268486023,33.853050231933594,-87.34021759033203, -27.19124984741211
235,3122250645,0.2159011,-0.6097771,-0.59206605,-0.48064202,11.607345581054688,-1.0365147590637207,0.3685968518257141,46.10742950439453,-97.1481704711914, -23.438833236694336
236,3122267312,0.20952109,-0.61369497,-0.6004449,-0.46791634,11.75343132019043,0.440646231174469,1.8803807497024536,47.021549224853516,-108.20915985107422, -23.046159744262695
237,3122283979,0.20085941,-0.61834687,-0.60840875,-0.4551282,12.31088924407959,0.8057393431663513,2.91648530960083,35.26924133300781,-119.78678131103516, -25.54558563232422
238,3122300646,0.19070856,-0.6235628,-0.61641854,-0.44139338,12.790687561035156,0.4741491675376892,3.670964241027832,32.284202575683594,-132.03070068359375, -26.76505470275879
239,3122317313,0.18086188,-0.62838405,-0.6256429,-0.42543364,13.226717948913574,-0.011640626937150955,4.433617115020752,47.24321365356445,-140.86309814453125, -29.842025756835938
240,3122333980,0.17173459,-0.6322142,-0.63678485,-0.40659294,13.396818161010742,-0.9302368760108948,5.390172481536865,69.61035919189453,-149.917724609375, -36.745033264160156
241,3122350647,0.16263665,-0.6346438,-0.6498517,-0.3853177,13.536298751831055,-0.9397540092468262,6.728325366973877,87.45418548583984,-158.97576904296875, -48.331722259521484
242,3122367314,0.15226772,-0.6362393,-0.6635586,-0.3629106,14.682467460632324,-0.06782485544681549,7.036483287811279,89.62883758544922,-168.37586975097656, -56.987178802490234
243,3122383981,0.13902028,-0.63795805,-0.6768653,-0.33990693,18.087480545043945,2.8336775302886963,5.991881370544434,78.68252563476562,-184.3084716796875, -61.25646209716797
244,3122400648,0.1232702,-0.63981193,-0.6884792,-0.31849942,19.82975196838379,0.019262313842773438,8.938261032104492,56.28592300415039,-187.9893035888672, -60.5928955078125
245,3122417315,0.11167152,-0.64294815,-0.6978005,-0.29533306,18.05877685546875,-1.4398353099822998,12.11273193359375,76.83064270019531,-177.36045837402344, -33.9198112487793
246,3122433982,0.10549387,-0.6445825,-0.7051175,-0.27603212,14.839899063110352,5.241626262664795,8.929691314697266,79.37257385253906,-130.102294921875, -24.26999282836914
247,3122450649,0.10211321,-0.6424272,-0.7167239,-0.25133097,14.046610832214355,10.217232704162598,-7.429965496063232,129.01358032226562,-136.71627807617188, -52.34409713745117
248,3122467316,0.10063096,-0.6410655,-0.7249443,-0.23100774,16.027507781982422,6.187194347381592,-4.107112884521484,109.58038330078125,-107.07946014404297, -33.100406646728516
249,3122483983,0.099814914,-0.6409984,-0.7274034,-0.22370178,11.94040298461914,-0.9475307464599609,14.011940002441406,37.681884765625,-44.61835861206055, -9.137007713317871
250,3122500650,0.110101275,-0.64191955,-0.72608626,-0.22049019,2.9011287689208984,-5.007505893707275,8.720431327819824,59.66651916503906,29.720218658447266, 26.714984893798828
251,3122517317,0.12479409,-0.6398026,-0.72510344,-0.22204605,5.872885704040527,2.0653839111328125,3.548431396484375,58.006507873535156,77.10747528076172, 13.178245544433594
252,3122533984,0.13599524,-0.63690686,-0.7209667,-0.23677458,6.1785149574279785,2.3756752014160156,2.151505708694458,-30.11305046081543,120.58356475830078, 11.409577369689941
253,3122550651,0.148158,-0.6340435,-0.71323144,-0.2594981,6.014343738555908,-2.414973735809326,3.19661545753479,-74.93458557128906,162.58807373046875, 26.1594181060791
254,3122567318,0.16352403,-0.630286,-0.7024663,-0.2872988,5.719342231750488,0.7409323453903198,5.165716648101807,-90.394775390625,205.1370849609375, 34.25380325317383
255,3122583985,0.17477925,-0.62628055,-0.68584955,-0.32685718,6.480167388916016,2.2517945766448975,4.329387187957764,-177.63272094726562,242.82073974609375, 37.308650970458984
256,3122600652,0.18589728,-0.621249,-0.6637046,-0.37281168,7.397952079772949,0.8227375745773315,2.0167179107666016,-220.1756134033203,278.3268737792969, 47.29220962524414
257,3122617319,0.20370716,-0.6142024,-0.63749284,-0.41816515,9.527901649475098,-1.1590200662612915,0.1829203963279724,-196.20147705078125,316.815673828125, 71.36080169677734
258,3122633986,0.23116928,-0.60425013,-0.6105999,-0.45673907,12.17831039428711,-1.4836246967315674,-1.444272518157959,-123.05403137207031,340.1401672363281, 96.96438598632812
259,3122650653,0.26658255,-0.5907059,-0.5842906,-0.488472,14.182865142822266,0.024585211649537086,-2.265395164489746,-52.339134216308594,356.1775817871094, 113.4902114868164
260,3122667320,0.30494136,-0.57442707,-0.5567457,-0.5167965,16.296159744262695,1.4977110624313354,-3.075155019760132,-20.052501678466797,367.39263916015625, 121.00546264648438
261,3122683987,0.34438163,-0.5556198,-0.52835464,-0.5417838,18.476539611816406,1.8405678272247314,-3.6280999183654785,-0.7549038529396057,369.2715759277344, 125.57095336914062
262,3122700654,0.3840259,-0.533897,-0.50127494,-0.5623182,19.805801391601562,3.361741781234741,-2.6927499771118164,27.93852424621582,360.9701232910156, 121.36566162109375
263,3122717321,0.4203313,-0.51025647,-0.47474656,-0.5810127,20.395254135131836,5.240534782409668,-2.4996132850646973,29.16530418395996,348.9031066894531, 104.82298278808594
264,3122733988,0.4498927,-0.4869251,-0.44728455,-0.60036427,21.08781623840332,7.509895324707031,-3.60137677192688,-1.3263198137283325,330.947265625, 80.43941497802734
265,3122750655,0.46742314,-0.46994233,-0.41220573,-0.6251051,20.075408935546875,6.573338031768799,-6.78414249420166,-109.36495971679688,309.74322509765625, 59.301326751708984
266,3122767322,0.47727144,-0.46230328,-0.37255433,-0.64783585,18.348417282104492,0.9004063010215759,-11.278545379638672,-178.28048706054688,256.5224914550781, 74.10234832763672
267,3122783989,0.4808618,-0.46064892,-0.33463624,-0.66677815,14.498189926147461,4.8319172859191895,-15.957557678222656,-200.43382263183594,196.7269287109375, 68.44792175292969
268,3122800656,0.48780125,-0.45238993,-0.3272879,-0.67102623,8.344769477844238,8.673791885375977,-20.04749298095703,5.946434020996094,87.7540283203125, 20.491073608398438
269,3122817323,0.48478857,-0.4514435,-0.3324514,-0.67130864,8.741150856018066,14.289946556091309,-17.140464782714844,17.016277313232422,-21.9883975982666, -34.340003967285156
270,3122833990,0.46983734,-0.46389332,-0.33630198,-0.6715334,12.641387939453125,6.615462779998779,-15.716919898986816,-70.75934600830078,-106.36492919921875, -54.208221435546875
271,3122850657,0.45384198,-0.4763721,-0.34930244,-0.6671471,14.025148391723633,6.672502517700195,-11.267844200134277,-21.337797164916992,-152.69293212890625, -73.09547424316406
272,3122867324,0.43269128,-0.49043286,-0.36164704,-0.66442853,15.706194877624512,6.251805782318115,1.2196141481399536,-50.23458480834961,-164.49700927734375, -95.86040496826172
273,3122883991,0.41489244,-0.5021307,-0.36951303,-0.66271365,15.227893829345703,-11.44644832611084,17.46478843688965,-54.8770637512207,-128.67689514160156, -74.19085693359375
274,3122900658,0.392313,-0.5155579,-0.37197554,-0.6647744,14.935192108154297,1.4896388053894043,-0.2538961172103882,-110.42884063720703,-120.73944091796875, -84.024169921875
275,3122917325,0.37049752,-0.52845883,-0.37809741,-0.66370577,18.406204223632812,-0.8513807058334351,-4.839128494262695,-81.57654571533203,-137.32870483398438, -86.39978790283203
276,3122933992,0.35402074,-0.5374641,-0.3912095,-0.65784276,13.694280624389648,0.5864858627319336,-1.594559907913208,-7.903810501098633,-140.75877380371094, -85.40907287597656
277,3122950659,0.33852643,-0.5453614,-0.40234435,-0.6527635,11.573647499084473,3.273066282272339,-1.3789851665496826,-12.640759468078613,-125.3789291381836, -78.57872009277344
278,3122967326,0.3252958,-0.552337,-0.41215,-0.6474867,11.060420036315918,2.9049806594848633,0.3796314597129822,-7.436376094818115,-112.63069152832031, -65.49516296386719
279,3122983993,0.31503168,-0.55762625,-0.42073584,-0.642487,9.844034194946289,4.363019943237305,1.2986470460891724,1.3898075819015503,-92.9937973022461, -53.04436492919922
280,3123000660,0.30591223,-0.56247735,-0.42718524,-0.6383963,10.920855522155762,2.1749885082244873,0.5720905065536499,-5.324279308319092,-79.7161865234375, -42.99303436279297
281,3123017327,0.30000007,-0.56651914,-0.4343911,-0.63274056,10.7537841796875,0.547696053981781,1.3394672870635986,16.711437225341797,-74.45193481445312, -30.94867706298828
282,3123033994,0.29426825,-0.57013994,-0.44077682,-0.62774396,10.640237808227539,1.3353520631790161,1.0026371479034424,12.761725425720215,-67.90953063964844, -29.647764205932617
283,3123050661,0.2894712,-0.573491,-0.44687176,-0.6225916,10.123673439025879,-0.31823357939720154,0.5860725045204163,16.20490837097168,-64.01045227050781, -25.016067504882812
284,3123067328,0.28477043,-0.5765838,-0.45236975,-0.61791486,10.451009750366211,0.8199851512908936,0.6554641723632812,13.090625762939453,-59.61304473876953, -24.062997817993164
285,3123083995,0.28071424,-0.57946044,-0.45777982,-0.61307687,10.189553260803223,-0.06655286997556686,0.5062888264656067,16.207185745239258,-57.22439956665039, -21.379161834716797
286,3123100662,0.27779958,-0.5816771,-0.4642647,-0.6074024,9.798996925354004,1.0810116529464722,0.8150373697280884,29.197956085205078,-56.320648193359375, -21.3758602142334
287,3123117329,0.2753383,-0.58359736,-0.4715512,-0.6010347,9.401439666748047,1.0606149435043335,1.1680891513824463,37.151668548583984,-58.00860595703125, -22.345123291015625
288,3123133996,0.27417004,-0.58505005,-0.4801669,-0.5932851,9.341109275817871,1.0195189714431763,0.6602905988693237,53.21140670776367,-60.023048400878906, -21.26796531677246
289,3123150663,0.27336463,-0.58618766,-0.49011207,-0.58433396,9.548188209533691,0.9989217519760132,0.6095770001411438,64.6649398803711,-64.94554901123047, -23.941486358642578
290,3123167330,0.27245098,-0.58721775,-0.50068295,-0.57468474,10.255064964294434,1.282334327697754,0.7963677644729614,69.3072280883789,-68.93476867675781, -25.979347229003906
291,3123183997,0.27164462,-0.5880944,-0.5114346,-0.56461424,10.49345874786377,0.9487898945808411,1.1532553434371948,72.20454406738281,-70.07609558105469, -26.050437927246094
292,3123200664,0.27057117,-0.58878756,-0.52177685,-0.55486,10.755342483520508,1.312935471534729,1.075827717781067,68.77793884277344,-68.34817504882812, -26.69993782043457
293,3123217331,0.26854265,-0.5898303,-0.53079724,-0.54611313,11.249181747436523,0.4975607991218567,0.7389521598815918,55.62016296386719,-66.65907287597656, -25.635669708251953
294,3123233998,0.26623157,-0.5911851,-0.5393052,-0.5373741,11.373779296875,-0.4576775133609772,-0.2639085650444031,51.95163345336914,-67.96717071533203, -23.533498764038086
295,3123250665,0.26346,-0.5927281,-0.5480163,-0.5281482,11.423148155212402,-0.42662760615348816,0.36221978068351746,52.28306198120117,-72.78231811523438, -24.528528213500977
296,3123267332,0.25941318,-0.5949308,-0.5562072,-0.51903343,11.583206176757812,-0.4013711214065552,-0.3042544424533844,43.5788459777832,-78.6664810180664, -24.807600021362305
297,3123283999,0.25534397,-0.5974902,-0.56515664,-0.5083339,11.723904609680176,-0.753303050994873,0.4978575110435486,51.61000442504883,-87.92619323730469, -23.848073959350586
298,3123300666,0.24996535,-0.60082364,-0.57468975,-0.49624628,10.978042602539062,0.37795212864875793,1.5679254531860352,52.298126220703125,-102.53846740722656, -25.42849349975586
299,3123317333,0.24168605,-0.60525894,-0.5840025,-0.483933,10.843079566955566,1.2016921043395996,2.696774482727051,38.570316314697266,-118.4218521118164, -29.696460723876953
300,3123334000,0.23069891,-0.6106287,-0.5929175,-0.4715501,12.058938980102539,1.1453437805175781,2.656606912612915,24.7294864654541,-132.1650390625, -33.19171142578125
301,3123350667,0.21864136,-0.61642945,-0.6021608,-0.45783535,13.20071792602539,-0.056177906692028046,2.9182956218719482,26.069246292114258,-144.18138122558594, -34.19187927246094
302,3123367334,0.20777187,-0.6215716,-0.61295414,-0.44132417,13.852164268493652,-1.1993489265441895,3.490943431854248,48.56237030029297,-151.5391845703125, -35.591156005859375
303,3123384001,0.19941083,-0.6252965,-0.6259474,-0.42122406,14.148789405822754,-2.644209861755371,4.5396857261657715,83.1120376586914,-155.3431396484375, -38.285850524902344
304,3123400668,0.19243912,-0.62767255,-0.6402232,-0.39888456,14.185726165771484,-2.6516425609588623,6.559483528137207,104.27884674072266,-157.0732879638672, -42.57500457763672
305,3123417335,0.18184324,-0.6302325,-0.6534445,-0.3778233,15.897314071655273,1.361541509628296,4.968488693237305,79.8764419555664,-166.88571166992188, -48.89729309082031
306,3123434002,0.16695608,-0.6331819,-0.66558075,-0.35806286,18.25201988220215,2.109999656677246,6.772847652435303,52.18354797363281,-180.43748474121094, -55.22513961791992
307,3123450669,0.15064628,-0.6368196,-0.6757238,-0.33935845,19.537508010864258,-0.6792973279953003,8.341686248779297,35.537899017333984,-182.07431030273438, -48.136505126953125
308,3123467336,0.140502,-0.6409516,-0.68496054,-0.3166539,18.34455680847168,-1.2385993003845215,11.042394638061523,78.52716064453125,-171.52590942382812, -23.40049934387207
309,3123484003,0.13607414,-0.6436226,-0.6919317,-0.29743028,13.832841873168945,2.956749677658081,10.643559455871582,83.83142852783203,-124.27373504638672, -11.241898536682129
310,3123500670,0.13716324,-0.6400084,-0.70533204,-0.27218097,12.973248481750488,11.768329620361328,-7.560869216918945,156.07167053222656,-118.14279174804688, -52.58021545410156
311,3123517337,0.1356106,-0.6378857,-0.7136465,-0.2557745,15.443031311035156,7.624582767486572,-5.805695533752441,90.81564331054688,-90.00367736816406, -36.03372573852539
312,3123534004,0.13399915,-0.6375115,-0.71581763,-0.2514538,11.27182388305664,-0.2077232152223587,12.816327095031738,18.930553436279297,-34.693721771240234, -11.80119800567627
313,3123550671,0.1414731,-0.6376513,-0.7134111,-0.25383228,3.07804274559021,-4.8718743324279785,10.051837921142578,17.42131805419922,42.476654052734375, 20.308137893676758
314,3123567338,0.15478262,-0.63472086,-0.71167547,-0.25824445,6.305933475494385,1.246394157409668,3.854975461959839,37.095767974853516,84.71654510498047, 10.501687049865723
315,3123584005,0.1672665,-0.63019705,-0.70778894,-0.27186158,6.367925643920898,3.605189085006714,3.134230852127075,-14.842348098754883,125.66117858886719, 2.276937484741211
316,3123600672,0.17988256,-0.6252393,-0.69984156,-0.2948565,6.3508806228637695,-0.23663011193275452,4.266054153442383,-69.57609558105469,171.76458740234375, 9.984088897705078
317,3123617339,0.196131,-0.6191906,-0.68864423,-0.3223432,6.594490051269531,-0.3497459590435028,4.597673416137695,-82.40091705322266,214.38626098632812, 21.51211166381836
318,3123634006,0.21229911,-0.61245334,-0.6727011,-0.35679612,8.12684440612793,0.6154101490974426,3.8384456634521484,-126.4488754272461,251.30413818359375, 29.024110794067383
319,3123650673,0.22925109,-0.6044928,-0.6521425,-0.39590737,8.30164623260498,-0.12130710482597351,1.4744846820831299,-155.4914093017578,283.94598388671875, 37.82463836669922
320,3123667340,0.2489169,-0.59505254,-0.62689805,-0.43698055,9.684845924377441,-0.9410310983657837,0.43675094842910767,-163.31338500976562,315.82025146484375, 53.716800689697266
321,3123684007,0.27236965,-0.58417577,-0.596804,-0.4778899,11.928360939025879,-2.083942413330078,-1.176221251487732,-159.06112670898438,344.33843994140625, 77.80448913574219
322,3123700674,0.3013236,-0.57110274,-0.5640606,-0.51466686,14.343806266784668,-2.2831006050109863,-2.259613037109375,-123.44354248046875,363.0692443847656, 103.81938934326172
323,3123717341,0.3357283,-0.555277,-0.53009796,-0.54584837,16.888700485229492,-1.0939903259277344,-2.3666934967041016,-77.24834442138672,375.20751953125, 127.66905212402344
324,3123734008,0.37335768,-0.5366906,-0.4954699,-0.5719065,19.133882522583008,0.8052949905395508,-2.579155921936035,-38.110107421875,380.3025207519531, 143.29833984375
325,3123750675,0.41139737,-0.5155008,-0.46125284,-0.5935126,20.95230484008789,3.7085118293762207,-2.006681442260742,-13.155501365661621,374.6321716308594, 145.98248291015625
326,3123767342,0.445353,-0.49343368,-0.42665112,-0.6133131,22.010757446289062,5.3507232666015625,-2.2345290184020996,-21.03213882446289,360.1415710449219, 133.10147094726562
327,3123784009,0.4729193,-0.47173446,-0.39309734,-0.63189304,21.6456298828125,7.672587871551514,-3.8889176845550537,-35.88361740112305,332.7374572753906, 107.5442123413086
328,3123800676,0.4896353,-0.45597547,-0.3555829,-0.65261376,20.523216247558594,6.197930335998535,-7.920737266540527,-113.47496032714844,297.7724609375, 82.50881958007812
329,3123817343,0.50404495,-0.4451993,-0.3203531,-0.667166,17.82952880859375,1.4508640766143799,-14.996220588684082,-112.20580291748047,243.2086639404297, 98.08316040039062
330,3123834010,0.5140487,-0.43545502,-0.3013732,-0.6747647,10.204329490661621,9.875804901123047,-20.11881446838379,-39.4137077331543,151.77191162109375, 54.550048828125
331,3123850677,0.5160991,-0.43007874,-0.30246875,-0.6761561,6.889374732971191,13.960264205932617,-19.008583068847656,27.242462158203125,26.146833419799805, -11.204989433288574
332,3123867344,0.5036482,-0.4383289,-0.3058517,-0.67872024,10.60720443725586,12.617608070373535,-15.241781234741211,-55.93407440185547,-71.44654846191406, -60.87911605834961
333,3123884011,0.48543718,-0.4529836,-0.31185246,-0.67963594,13.022468566894531,5.402453899383545,-12.756339073181152,-79.91510009765625,-127.02114868164062, -76.17204284667969
334,3123900678,0.4659477,-0.46697697,-0.32321018,-0.67849886,14.044806480407715,7.0679192543029785,-8.30584716796875,-52.304500579833984,-150.55758666992188, -93.25628662109375
335,3123917345,0.4410486,-0.4843364,-0.32936457,-0.68000996,16.052595138549805,1.4366108179092407,5.347193241119385,-110.68728637695312,-152.86386108398438, -102.61093139648438
336,3123934012,0.4204297,-0.49765202,-0.33385625,-0.6812647,15.671883583068848,-10.579849243164062,13.085010528564453,-91.3547592163086,-120.18486785888672, -85.40054321289062
337,3123950679,0.3983139,-0.5119993,-0.33739054,-0.68218094,17.191743850708008,-1.7510002851486206,-6.275162696838379,-103.0765151977539,-127.18487548828125, -86.06391906738281
338,3123967346,0.38107687,-0.5221863,-0.3502974,-0.677786,18.583471298217773,-1.8584522008895874,-3.4055631160736084,-18.23121452331543,-140.51185607910156, -91.32733917236328
339,3123984013,0.36708954,-0.52987075,-0.36662278,-0.6708726,11.936382293701172,3.2161781787872314,-1.9763082265853882,21.978078842163086,-138.90240478515625, -87.9716796875
340,3124000680,0.35172218,-0.53787434,-0.3786096,-0.66606134,11.823531150817871,4.873997211456299,0.46610361337661743,-9.195206642150879,-125.21295166015625, -82.99337768554688
341,3124017347,0.3391508,-0.54433006,-0.38832566,-0.66172886,9.969236373901367,4.035144805908203,0.5039750337600708,-6.771389007568359,-103.62700653076172, -66.90476989746094
342,3124034014,0.3298255,-0.5493414,-0.3967693,-0.65727746,10.728973388671875,4.710205078125,-0.5213542580604553,3.272169828414917,-85.92302703857422, -50.91090393066406
343,3124050681,0.324218,-0.55336267,-0.40501723,-0.6516392,10.929544448852539,1.076516032218933,1.2899994850158691,21.91483497619629,-75.37213897705078, -33.3341064453125
344,3124067348,0.32084632,-0.5564505,-0.4138129,-0.6451198,11.254618644714355,1.5744812488555908,0.22876793146133423,37.42975997924805,-69.62107849121094, -26.0950870513916
345,3124084015,0.31719515,-0.5597766,-0.421353,-0.6391395,11.117104530334473,0.5261780619621277,0.5214517712593079,28.74448585510254,-66.69448852539062, -23.089794158935547
346,3124100682,0.31371292,-0.5630873,-0.42802766,-0.63348997,10.113880157470703,0.07432038336992264,0.8109230399131775,24.681835174560547,-63.04395294189453, -19.851255416870117
347,3124117349,0.3097559,-0.5664093,-0.4338853,-0.6284708,10.213613510131836,0.9942198991775513,-0.0939650759100914,17.42168617248535,-60.36726760864258, -20.155445098876953
348,3124134016,0.30666456,-0.5693305,-0.43980372,-0.6232114,9.955580711364746,0.044434577226638794,0.39987698197364807,22.635311126708984,-57.1703987121582, -17.38237190246582
349,3124150683,0.3053843,-0.5712066,-0.44679564,-0.6171202,10.075325012207031,0.9696522355079651,0.8489442467689514,39.0550422668457,-52.8051643371582, -15.303154945373535
350,3124167350,0.3055512,-0.5722405,-0.45486903,-0.6101424,9.634658813476562,0.9878444075584412,1.3845493793487549,53.834754943847656,-50.62433624267578, -14.187684059143066
351,3124184017,0.30690512,-0.5726288,-0.4646381,-0.6016786,9.435412406921387,1.2082314491271973,0.961826503276825,71.64167785644531,-53.71604919433594, -14.828185081481934
352,3124200684,0.30778837,-0.57293594,-0.47509354,-0.5927033,9.773713111877441,1.477821707725525,1.6370608806610107,74.44995880126953,-58.4354248046875, -18.70029067993164
353,3124217351,0.3078292,-0.57337594,-0.48497024,-0.58419645,9.978747367858887,0.9744237065315247,1.9853709936141968,66.98383331298828,-58.76886749267578, -20.44577407836914
354,3124234018,0.30677995,-0.57412404,-0.4943618,-0.57608545,10.13351058959961,1.0259822607040405,1.554478645324707,58.78493881225586,-61.177303314208984, -22.766389846801758
355,3124250685,0.30523232,-0.5750198,-0.50353473,-0.56801295,10.276084899902344,0.46049898862838745,0.877227246761322,55.529762268066406,-62.95305633544922, -23.495935440063477
356,3124267352,0.30322942,-0.5761318,-0.51254416,-0.5598418,10.91324234008789,0.24926000833511353,0.24236853420734406,52.98817825317383,-65.51415252685547, -23.72064971923828
357,3124284019,0.30094105,-0.57759714,-0.5223358,-0.5504378,10.96347713470459,-1.0422987937927246,-0.23920701444149017,58.480892181396484,-74.47541046142578, -24.158058166503906
358,3124300686,0.29688725,-0.57982343,-0.53172064,-0.54123604,11.077048301696777,-0.9037045836448669,0.07434830069541931,47.619869232177734,-82.12274932861328, -26.990100860595703
359,3124317353,0.2909642,-0.58302045,-0.54041034,-0.53233814,11.723172187805176,-0.8469914197921753,0.24583576619625092,34.48170471191406,-90.02416229248047, -28.31893539428711
360,3124334020,0.28385255,-0.5868986,-0.5492988,-0.522732,11.723946571350098,-0.8320546746253967,0.31991973519325256,31.70577621459961,-100.26703643798828, -29.589929580688477
361,3124350687,0.27510473,-0.5917731,-0.5584984,-0.51205647,11.219938278198242,0.7807301878929138,1.5938572883605957,28.308544158935547,-115.05610656738281, -30.94329833984375
362,3124367354,0.2634775,-0.5976494,-0.56738466,-0.50146776,11.730253219604492,1.561523199081421,2.8656539916992188,13.272851943969727,-128.82986450195312, -36.150691986083984
363,3124384021,0.25016433,-0.6042215,-0.57645655,-0.48993108,13.035209655761719,0.6271407604217529,2.6483232975006104,9.454673767089844,-142.2119140625, -38.31272888183594
364,3124400688,0.2373901,-0.6103691,-0.587009,-0.47593755,13.969772338867188,-0.07232052087783813,3.383047103881836,27.16985511779785,-151.58700561523438, -40.152713775634766
365,3124417355,0.22658905,-0.6154011,-0.59935594,-0.45903346,15.012880325317383,-1.8649183511734009,4.135544776916504,54.90916061401367,-155.34085083007812, -41.0431022644043
366,3124434022,0.21851657,-0.6187192,-0.6143796,-0.43815008,14.957768440246582,-2.7045974731445312,5.288090705871582,93.97560119628906,-159.9665069580078, -44.71503448486328
367,3124450689,0.2107828,-0.6206957,-0.6306245,-0.4154763,14.62094497680664,-2.076134204864502,6.893329620361328,108.67453002929688,-164.25405883789062, -51.95518112182617
368,3124467356,0.20141841,-0.6223821,-0.6466621,-0.3923005,15.474453926086426,0.4966468811035156,6.425167083740234,103.73941802978516,-172.6781463623047, -56.31447982788086
369,3124484023,0.18817338,-0.6248339,-0.66132957,-0.36988768,18.907367706298828,2.7850208282470703,6.088216304779053,79.03871154785156,-187.17132568359375, -58.580047607421875
370,3124500690,0.17633547,-0.62836903,-0.67402476,-0.34604758,19.528141021728516,-1.3051615953445435,10.566693305969238,85.24855041503906,-187.49468994140625, -39.74690246582031
371,3124517357,0.16723114,-0.63284177,-0.6818842,-0.3264648,18.58770179748535,3.2289345264434814,15.674728393554688,64.7177505493164,-153.28195190429688, -13.228529930114746
372,3124534024,0.16398221,-0.63275886,-0.6922951,-0.30570257,11.475595474243164,8.34699821472168,-0.8429021239280701,106.85322570800781,-124.23243713378906, -31.15300178527832
373,3124550691,0.16097163,-0.629689,-0.7049888,-0.28385064,14.851676940917969,11.984419822692871,-8.897876739501953,121.41612243652344,-124.2114028930664, -53.37968826293945
374,3124567358,0.15278132,-0.6299102,-0.7087762,-0.27840227,14.055940628051758,3.0393927097320557,2.805314540863037,-1.3477959632873535,-74.86045837402344, -26.965513229370117
375,3124584025,0.1535492,-0.6304594,-0.7067251,-0.2819278,6.455512523651123,-4.820034027099609,14.342857360839844,-17.741260528564453,12.96164608001709, 7.606044769287109
376,3124600692,0.16278128,-0.62855434,-0.7049743,-0.28536516,4.245940208435059,0.16082745790481567,3.574939012527466,26.128944396972656,58.89268493652344, 7.349755764007568
377,3124617359,0.17067909,-0.6245049,-0.7008893,-0.2993608,5.4681620597839355,3.8391878604888916,2.096095085144043,-34.49739074707031,104.49079895019531, -5.86162805557251
378,3124634026,0.17898014,-0.62076867,-0.6917185,-0.32270437,5.402900695800781,-2.091416597366333,3.4103505611419678,-91.32295227050781,151.2240447998047, 9.805745124816895
379,3124650693,0.19253743,-0.6161296,-0.679506,-0.3486917,5.297419548034668,-1.2302913665771484,4.137295722961426,-88.28413391113281,192.96856689453125, 27.603052139282227
380,3124667360,0.20511845,-0.611962,-0.66120493,-0.3824096,7.189089298248291,-0.31924259662628174,3.21860408782959,-142.0487823486328,228.57301330566406, 41.576290130615234
381,3124684027,0.21921292,-0.6069736,-0.63809234,-0.41996118,7.568694591522217,-1.3686596155166626,1.551650047302246,-164.63116455078125,260.5447692871094, 56.515892028808594
382,3124700694,0.23642181,-0.60028654,-0.61073935,-0.4590846,8.598845481872559,-1.5015106201171875,-0.38086387515068054,-168.25950622558594,292.12847900390625, 73.21189880371094
383,3124717361,0.25811452,-0.5916462,-0.5805208,-0.4963141,10.605443000793457,-2.237333297729492,-1.2372925281524658,-147.70770263671875,314.0621643066406, 93.90485382080078
384,3124734028,0.28582603,-0.57966137,-0.55008626,-0.5288684,12.383227348327637,-1.165363073348999,-1.527684211730957,-107.0012435913086,329.32763671875, 111.74348449707031
385,3124750695,0.3171736,-0.56478596,-0.5181125,-0.55854964,14.4567289352417,0.9157099723815918,-1.618011713027954,-80.67796325683594,345.6943054199219, 124.80326843261719
386,3124767362,0.3508702,-0.54724425,-0.48474845,-0.5851778,16.63797950744629,1.7181334495544434,-1.902972936630249,-58.65691375732422,356.0742492675781, 135.65802001953125
387,3124784029,0.3872644,-0.5261627,-0.45283866,-0.6067261,18.689607620239258,2.6101434230804443,-1.6113786697387695,-12.076798439025879,357.543212890625, 141.5764617919922
388,3124800696,0.42307004,-0.50137836,-0.42265123,-0.62529826,19.94587516784668,5.536789894104004,-1.101553201675415,12.099526405334473,355.9786376953125, 129.38876342773438
389,3124817363,0.45425567,-0.47525698,-0.39234903,-0.643308,20.9849910736084,5.764006614685059,-2.4096672534942627,1.1681880950927734,346.9101257324219, 107.86271667480469
390,3124834030,0.47910845,-0.45046318,-0.36104807,-0.6611979,21.024032592773438,6.489109039306641,-4.351556301116943,-27.825395584106445,327.0010070800781, 87.25476837158203
391,3124850697,0.4958018,-0.43311903,-0.32531774,-0.678791,19.00025749206543,1.8319307565689087,-8.60899543762207,-97.13432312011719,286.98736572265625, 83.52961730957031
392,3124867364,0.5066965,-0.4235133,-0.288478,-0.693308,17.24057388305664,6.558752059936523,-10.420832633972168,-139.12936401367188,233.09774780273438, 87.61455535888672
393,3124884031,0.51473457,-0.41502956,-0.26539698,-0.7016863,11.293814659118652,5.641634941101074,-18.26688575744629,-73.65933227539062,156.86302185058594, 57.72966766357422
394,3124900698,0.520106,-0.40579027,-0.26766998,-0.70226574,7.744187355041504,14.14421558380127,-17.823699951171875,57.88796615600586,44.37300491333008, -1.070220947265625
395,3124917365,0.5116326,-0.41210094,-0.27033588,-0.7037925,10.411383628845215,10.810322761535645,-15.63110637664795,-36.382476806640625,-54.322349548339844, -43.408897399902344
396,3124934032,0.49781114,-0.4247258,-0.2781381,-0.70315844,12.8425931930542,5.398993015289307,-12.050777435302734,-45.023345947265625,-118.4449234008789, -64.20976257324219
397,3124950699,0.48109752,-0.43746737,-0.29226288,-0.70124906,14.166539192199707,8.161293983459473,-6.722631931304932,-20.93671417236328,-149.44476318359375, -91.91139221191406
398,3124967366,0.4596594,-0.45421273,-0.29999304,-0.7017183,17.142566680908203,-2.8130061626434326,8.787859916687012,-84.11433410644531,-149.64012145996094, -95.04828643798828
399,3124984033,0.44126433,-0.46736878,-0.309171,-0.7009036,16.03619384765625,-4.9644670486450195,5.823970794677734,-53.59419631958008,-134.77001953125, -88.29559326171875
400,3125000700,0.41815,-0.48346853,-0.3161161,-0.7010561,17.817262649536133,1.4593193531036377,-4.475803852081299,-90.46685791015625,-149.1996307373047, -100.67108154296875
401,3125017367,0.398751,-0.4959737,-0.33024853,-0.6970968,15.096673965454102,-1.8345698118209839,-1.1844124794006348,-24.233654022216797,-157.90606689453125, -102.5965805053711
402,3125034034,0.38257772,-0.50563866,-0.345433,-0.6918384,10.712389945983887,2.0098788738250732,-1.099665880203247,2.54020619392395,-144.20785522460938, -93.68498229980469
403,3125050701,0.36792576,-0.5137483,-0.358045,-0.6873844,11.17359733581543,5.145796775817871,-0.6419242024421692,-2.2576160430908203,-123.61007690429688, -83.29314422607422
404,3125067368,0.3546687,-0.520436,-0.36742067,-0.68436754,10.021036148071289,7.985669136047363,1.299055814743042,-12.603987693786621,-100.18726348876953, -72.30799865722656
405,3125084035,0.3429042,-0.52668494,-0.37317583,-0.682466,10.284708976745605,3.1496288776397705,-0.005896084010601044,-26.07285499572754,-81.60224151611328, -55.991092681884766
406,3125100702,0.3374448,-0.53099924,-0.3813896,-0.67728364,11.662187576293945,-0.5487678050994873,-0.5953049659729004,21.2777156829834,-74.05703735351562, -32.52132034301758
407,3125117369,0.33386472,-0.5342803,-0.39061648,-0.6711915,11.780097007751465,0.9278440475463867,0.019734419882297516,37.65473937988281,-70.00406646728516, -28.178773880004883
408,3125134036,0.3304265,-0.5376504,-0.3988713,-0.66532135,11.356767654418945,-0.5758325457572937,0.3747382164001465,32.90296173095703,-67.01995849609375, -24.295801162719727
409,3125150703,0.3274998,-0.54073775,-0.40678114,-0.6594512,10.178908348083496,0.82060307264328,0.8843638300895691,33.876346588134766,-63.59505081176758, -21.566064834594727
410,3125167370,0.3243907,-0.5439564,-0.41337377,-0.6542206,10.210015296936035,1.2975752353668213,0.6959459185600281,25.16028594970703,-59.42975616455078, -18.63153839111328
411,3125184037,0.32214332,-0.5467558,-0.42003766,-0.64873004,9.816238403320312,0.9710131883621216,1.272691011428833,30.393569946289062,-56.29499435424805, -15.681139945983887
412,3125200704,0.32095796,-0.54905415,-0.4278008,-0.64227134,9.377562522888184,1.8544374704360962,1.5635402202606201,43.216617584228516,-57.15517807006836, -14.437216758728027
413,3125217371,0.32177317,-0.55039024,-0.43837097,-0.63353294,9.045082092285156,1.7592644691467285,1.1607414484024048,67.41030883789062,-62.20722579956055, -15.379676818847656
414,3125234038,0.3234953,-0.55111223,-0.4511244,-0.62298733,9.519990921020508,1.5912914276123047,0.9900491833686829,86.6333999633789,-68.64118957519531, -17.64148712158203
415,3125250705,0.32526457,-0.5513063,-0.46395162,-0.61238354,9.89394760131836,1.5731399059295654,1.3839892148971558,86.66352081298828,-66.9140853881836, -19.629955291748047
416,3125267372,0.32589227,-0.55173457,-0.47527003,-0.60291123,10.265750885009766,1.674901008605957,1.485359787940979,71.1111831665039,-64.12825775146484, -20.57940101623535
417,3125284039,0.32469237,-0.55287826,-0.4843485,-0.59523743,10.440767288208008,1.6387217044830322,1.4224283695220947,55.1029052734375,-60.59935760498047, -19.594676971435547
418,3125300706,0.32299653,-0.5541041,-0.49278,-0.58805627,10.992079734802246,1.4437034130096436,0.889548122882843,48.7672004699707,-59.38206100463867, -20.029052734375
419,3125317373,0.32093722,-0.5558271,-0.5006138,-0.58089733,11.173977851867676,-0.42191949486732483,-0.279488205909729,43.80357360839844,-61.31034851074219, -17.63052749633789
420,3125334040,0.31857726,-0.5576025,-0.50903493,-0.5731246,11.468822479248047,-0.548881471157074,-0.3565847873687744,46.996829986572266,-66.26811218261719, -19.631515502929688
421,3125350707,0.31536198,-0.5599266,-0.5173979,-0.565092,11.461088180541992,-0.8319424986839294,-0.285205602645874,43.19379425048828,-72.3664321899414, -20.380361557006836
422,3125367374,0.3106639,-0.56311744,-0.5256154,-0.55688024,11.380912780761719,-0.528566300868988,0.31174662709236145,35.67158508300781,-81.46561431884766, -22.201860427856445
423,3125384041,0.3045032,-0.5670384,-0.5339507,-0.5483085,11.075604438781738,-0.31645718216896057,0.45444899797439575,30.19940185546875,-91.29765319824219, -24.928436279296875
424,3125400708,0.296973,-0.5719219,-0.54300106,-0.5383889,10.826693534851074,0.3102003037929535,1.5346484184265137,30.488908767700195,-106.8177261352539, -26.59099769592285
425,3125417375,0.28694153,-0.577815,-0.55198485,-0.5283062,11.193841934204102,1.1885831356048584,2.6612565517425537,18.964134216308594,-120.54349517822266, -31.533288955688477
426,3125434042,0.27494243,-0.58445483,-0.56087947,-0.51791286,12.644275665283203,0.6041687726974487,2.4403817653656006,10.555516242980957,-131.96475219726562, -34.90608596801758
427,3125450709,0.26301473,-0.5911448,-0.5709195,-0.5053931,13.5477294921875,0.03627220168709755,2.917349338531494,23.04588508605957,-142.77232360839844, -35.095458984375
428,3125467376,0.25218529,-0.5970153,-0.58247644,-0.49060878,13.716495513916016,-0.9946767687797546,3.731992244720459,43.169166564941406,-147.78494262695312, -36.63792419433594
429,3125484043,0.24336305,-0.60123676,-0.5965112,-0.47271925,13.751585006713867,-1.5267114639282227,4.431619167327881,75.0736312866211,-151.48536682128906, -41.348609924316406
430,3125500710,0.23491602,-0.60400516,-0.6121436,-0.45307043,13.833540916442871,-1.1275057792663574,5.185919761657715,91.47615814208984,-155.45970153808594, -49.838565826416016
431,3125517377,0.22659926,-0.6058483,-0.62911826,-0.43105844,14.784353256225586,-0.14448139071464539,6.359946250915527,107.66390991210938,-164.3299560546875, -55.14693832397461
432,3125534044,0.21345328,-0.6085445,-0.6447974,-0.41030222,18.1818904876709,3.6530497074127197,6.403331756591797,76.991455078125,-180.85922241210938, -62.37141036987305
433,3125550711,0.1990612,-0.6127883,-0.65764743,-0.39034,19.116838455200195,-2.4530539512634277,9.713265419006348,58.113468170166016,-183.6822509765625, -48.345916748046875
434,3125567378,0.18834342,-0.61781627,-0.6672062,-0.37103373,18.801198959350586,1.2838290929794312,12.567977905273438,60.744197845458984,-162.40765380859375, -22.094738006591797
435,3125584045,0.18239695,-0.62014526,-0.67519397,-0.3553373,13.099409103393555,4.874675273895264,3.667518377304077,64.04744720458984,-116.82061004638672, -20.342178344726562
436,3125600712,0.1790767,-0.61847794,-0.6884892,-0.333766,14.683060646057129,10.28089427947998,-9.179506301879883,120.62544250488281,-126.80777740478516, -47.634605407714844
437,3125617379,0.17327762,-0.6191097,-0.695151,-0.32162666,13.879961013793945,6.212021827697754,-3.9943807125091553,47.514251708984375,-95.5173568725586, -25.65753173828125
438,3125634046,0.17038782,-0.6209131,-0.6949055,-0.32022157,12.179441452026367,-1.502800464630127,16.055801391601562,-7.992432117462158,-30.365819931030273, 3.0396554470062256
439,3125650713,0.1750122,-0.6222439,-0.6903202,-0.32502586,3.139369487762451,-3.589066505432129,8.130938529968262,-6.089119911193848,40.006221771240234, 22.804216384887695
440,3125667380,0.18492307,-0.62026423,-0.68589085,-0.33261093,5.838461399078369,3.055267333984375,3.0977888107299805,5.902668476104736,83.60135650634766, 16.133615493774414
441,3125684047,0.1927108,-0.61758864,-0.6769939,-0.3508938,5.67891263961792,2.3730733394622803,3.5645081996917725,-64.70343017578125,125.95878601074219, 14.858931541442871
442,3125700714,0.20506,-0.61355054,-0.66500413,-0.3731972,5.473689556121826,-1.2761199474334717,4.603775501251221,-72.67647552490234,170.85943603515625, 29.264421463012695
443,3125717381,0.22119354,-0.6078477,-0.64971,-0.39933947,6.396003723144531,0.6070321798324585,4.589009761810303,-81.48125457763672,212.9904022216797, 40.4498176574707
444,3125734048,0.2384849,-0.6006873,-0.6301221,-0.43040225,7.663743495941162,0.5659427046775818,3.024543285369873,-111.16465759277344,248.51895141601562, 48.76890182495117
445,3125750715,0.25753322,-0.5919562,-0.60624665,-0.46446756,8.153118133544922,-0.15203146636486053,1.24821937084198,-124.80188751220703,280.7407531738281, 58.96831512451172
446,3125767382,0.2798097,-0.5811956,-0.57872325,-0.49899706,9.780065536499023,-0.9943420886993408,-0.35490530729293823,-121.6672134399414,309.0853576660156, 74.74038696289062
447,3125784049,0.30608472,-0.5681529,-0.5486042,-0.5315527,11.667097091674805,-1.4191501140594482,-1.0660138130187988,-102.3733139038086,330.0218811035156, 93.4383773803711
448,3125800716,0.33681494,-0.5516323,-0.5173603,-0.56088877,13.700982093811035,-0.23920568823814392,-1.8880887031555176,-75.9833984375,348.4456787109375, 107.68921661376953
449,3125817383,0.36981967,-0.53231484,-0.4843776,-0.58758235,15.93037223815918,0.9931992888450623,-1.5998202562332153,-57.6713981628418,361.7635192871094, 118.56455993652344
450,3125834050,0.40338555,-0.5108928,-0.44949764,-0.611736,18.270288467407227,1.3549240827560425,-2.0826122760772705,-43.71083450317383,368.5411682128906, 127.8755111694336
451,3125850717,0.4380107,-0.48635074,-0.41651148,-0.63097394,20.410749435424805,3.1376421451568604,-1.8526103496551514,-8.1859130859375,362.6338806152344, 129.72164916992188
452,3125867384,0.46946248,-0.4606109,-0.38356093,-0.648324,21.358734130859375,5.1676788330078125,-1.9403828382492065,-9.665107727050781,352.5858459472656, 118.2068862915039
453,3125884051,0.4954731,-0.43546999,-0.34979168,-0.66522074,21.631996154785156,6.410888195037842,-3.1981167793273926,-31.345272064208984,337.1069641113281, 99.75577545166016
454,3125900718,0.51382613,-0.41563153,-0.3128561,-0.682169,20.397258758544922,3.4672749042510986,-7.621324062347412,-87.04166412353516,305.8120422363281, 86.96990203857422
455,3125917385,0.52904,-0.4018098,-0.27764076,-0.6939608,18.717409133911133,4.168154239654541,-10.82761287689209,-98.16543579101562,250.6009063720703, 98.596923828125
456,3125934052,0.54006016,-0.39067766,-0.2519229,-0.70159906,12.94658374786377,6.582786560058594,-17.885656356811523,-66.3399658203125,184.3878173828125, 72.72908782958984
457,3125950719,0.54790163,-0.37916964,-0.25123677,-0.70207876,7.710648059844971,11.992192268371582,-19.669574737548828,59.58879852294922,69.25501251220703, 16.303640365600586
458,3125967386,0.54212904,-0.38220006,-0.2549837,-0.70356447,9.714625358581543,13.899165153503418,-16.201496124267578,-11.181872367858887,-37.8365478515625, -39.32558059692383
459,3125984053,0.5262934,-0.3979828,-0.2572375,-0.7060129,12.64261245727539,6.868833065032959,-14.272403717041016,-94.28374481201172,-108.49433898925781, -64.94193267822266
460,3126000720,0.50756204,-0.41459125,-0.2662136,-0.70684195,14.002883911132812,8.339180946350098,-9.552857398986816,-69.79856872558594,-145.8446044921875, -89.84752655029297
461,3126017387,0.4831259,-0.43451667,-0.27099875,-0.71017236,16.773691177368164,3.153325319290161,5.0153584480285645,-122.71586608886719,-150.2659149169922, -108.00910949707031
462,3126034054,0.46414423,-0.45017505,-0.2772084,-0.71068174,17.143421173095703,-10.602510452270508,7.1593146324157715,-80.0669937133789,-132.4266357421875, -84.06362915039062
463,3126050721,0.4421742,-0.46772853,-0.28303817,-0.71105677,17.902917861938477,-0.6935608983039856,-5.397265434265137,-96.84663391113281,-146.68182373046875, -93.69380187988281
464,3126067388,0.42431942,-0.4808932,-0.29727933,-0.707333,16.566570281982422,-1.6385363340377808,-1.0070593357086182,-21.176008224487305,-155.68702697753906, -96.68070983886719
465,3126084055,0.40873057,-0.49115956,-0.31327492,-0.70253885,11.402753829956055,3.9403903484344482,0.25480639934539795,5.48643159866333,-145.5013885498047, -94.3148193359375
466,3126100722,0.3920056,-0.5010778,-0.32501101,-0.69972926,11.162209510803223,5.24043083190918,-0.1604263335466385,-22.274742126464844,-127.58788299560547, -91.65653991699219
467,3126117389,0.37791634,-0.50949365,-0.33486316,-0.6967515,9.448264122009277,4.683884620666504,-0.14744152128696442,-17.881839752197266,-109.96990966796875, -75.26514434814453
468,3126134056,0.36788613,-0.5160283,-0.34356424,-0.6930646,10.05449390411377,2.8551650047302246,0.6286481022834778,-2.6826140880584717,-91.12456512451172, -54.185791015625
469,3126150723,0.36167043,-0.52078235,-0.35225156,-0.6884035,11.082796096801758,0.8722997307777405,0.8816449642181396,17.58992576599121,-77.09257507324219, -37.68803024291992
470,3126167390,0.35750538,-0.5243334,-0.3613864,-0.6831285,11.328371047973633,1.4969028234481812,0.08912170678377151,31.54553985595703,-69.78797912597656, -31.032243728637695
471,3126184057,0.35297868,-0.52825755,-0.36874852,-0.67850924,11.607425689697266,-0.18054719269275665,-0.015698663890361786,19.379791259765625,-65.73870086669922, -27.070018768310547
472,3126200724,0.349435,-0.53151226,-0.37599954,-0.67380613,10.198351860046387,0.4030289947986603,0.3582935035228729,24.285585403442383,-60.183509826660156, -23.665279388427734
473,3126217391,0.34518716,-0.5349672,-0.38152996,-0.67014277,10.51442813873291,0.9156762361526489,0.28157269954681396,10.586933135986328,-55.047359466552734, -22.688222885131836
474,3126234058,0.3420924,-0.5378306,-0.38726154,-0.66613805,9.842777252197266,0.23896799981594086,0.5292364954948425,18.06733512878418,-51.076171875, -18.908906936645508
475,3126250725,0.34095117,-0.5400721,-0.3946748,-0.66053516,9.847250938415527,1.2051678895950317,1.7377358675003052,34.93022918701172,-52.739715576171875, -16.109207153320312
476,3126267392,0.34162444,-0.5414271,-0.40448618,-0.65310085,9.207348823547363,1.4636470079421997,1.4691721200942993,58.57170104980469,-56.302364349365234, -15.410377502441406
477,3126284059,0.34380195,-0.5420906,-0.41751388,-0.6431333,9.322525024414062,1.6109800338745117,0.6608874201774597,86.41506958007812,-66.13094329833984, -16.99791717529297
478,3126300726,0.3461412,-0.54236555,-0.43152815,-0.63230515,9.906523704528809,1.5175343751907349,0.724164605140686,94.17987060546875,-69.64083862304688, -19.259105682373047
479,3126317393,0.3477055,-0.54275656,-0.44403765,-0.62237227,10.307374954223633,1.2153037786483765,1.2296509742736816,80.77693939208984,-65.70561981201172, -19.19309425354004
480,3126334060,0.34738395,-0.54351354,-0.45443487,-0.61433446,10.589752197265625,1.274021029472351,1.4146568775177002,65.37084197998047,-60.976959228515625, -19.60832977294922
481,3126350727,0.3460645,-0.5447011,-0.46354938,-0.60717607,10.981608390808105,0.924584686756134,1.0674299001693726,52.46596145629883,-59.67252731323242, -19.842241287231445
482,3126367394,0.34377804,-0.54652685,-0.47223777,-0.6000974,10.987391471862793,0.24714021384716034,0.537959635257721,45.30868911743164,-64.2079849243164, -20.50232696533203
483,3126384061,0.3404814,-0.54866785,-0.4811398,-0.5929089,10.853677749633789,0.150248184800148,0.5555516481399536,42.01628875732422,-69.79964447021484, -24.26590919494629
484,3126400728,0.33625954,-0.5512353,-0.49019554,-0.5854723,11.046626091003418,-0.3263673484325409,0.4190758168697357,38.98182678222656,-75.99214172363281, -26.700326919555664
485,3126417395,0.3311725,-0.5543597,-0.49969056,-0.57733864,11.472179412841797,-0.3391674757003784,-0.3697405159473419,38.53780746459961,-84.90699768066406, -28.44468879699707
486,3126434062,0.32574826,-0.55817044,-0.5097931,-0.5678428,11.4605131149292,-0.7212852239608765,0.5065349340438843,42.7785530090332,-95.4466552734375, -26.722545623779297
487,3126450729,0.31868392,-0.5631261,-0.5201546,-0.5574668,11.507328987121582,0.6462480425834656,1.9449857473373413,38.01544189453125,-109.74002838134766, -28.227407455444336
488,3126467396,0.30869758,-0.5695248,-0.52987075,-0.5473434,12.040252685546875,0.9110751748085022,2.808912992477417,20.179340362548828,-123.49726867675781, -32.369903564453125
489,3126484063,0.2970324,-0.5768045,-0.53989166,-0.53627014,12.825352668762207,0.2143702656030655,2.858266830444336,16.36578941345215,-137.4965362548828, -34.70024871826172
490,3126500730,0.28548986,-0.583644,-0.55151,-0.5231561,13.334481239318848,-0.22948282957077026,3.5290687084198,31.235517501831055,-146.9887237548828, -38.119224548339844
491,3126517397,0.27518755,-0.58923745,-0.5652552,-0.50750154,13.539613723754883,-1.112831473350525,4.021495342254639,55.96247863769531,-152.42306518554688, -42.01451110839844
492,3126534064,0.2661115,-0.5931684,-0.58129406,-0.48931947,13.720634460449219,-1.3258136510849,5.428229808807373,81.91752624511719,-156.7131805419922, -48.8100700378418
493,3126550731,0.25662547,-0.59641755,-0.59779966,-0.4701759,14.379347801208496,-0.37218016386032104,5.828551292419434,86.92723846435547,-161.16334533691406, -53.15790939331055
494,3126567398,0.24335821,-0.6005697,-0.6133226,-0.4515847,17.264835357666016,2.990668296813965,5.070250988006592,64.41368103027344,-175.97491455078125, -58.687965393066406
495,3126584065,0.22744913,-0.6054941,-0.6269739,-0.434221,19.13933563232422,1.5091943740844727,8.062110900878906,41.301185607910156,-181.67880249023438, -57.97606658935547
496,3126600732,0.21574102,-0.61086506,-0.63961565,-0.41375342,18.311616897583008,-2.027679204940796,9.318005561828613,68.54339599609375,-176.7281036376953, -34.51883316040039
497,3126617399,0.2080454,-0.61558837,-0.6471269,-0.39874223,17.6551570892334,1.954430341720581,13.080951690673828,47.78767013549805,-127.20724487304688, -12.625174522399902
498,3126634066,0.20601015,-0.6155269,-0.6595964,-0.3789715,11.450607299804688,7.300617218017578,-1.9455647468566895,113.49790954589844,-116.73180389404297, -32.587852478027344
499,3126650733,0.20336555,-0.6130315,-0.6736999,-0.35911512,13.941455841064453,11.107062339782715,-7.977044105529785,119.1374740600586,-115.9126968383789, -51.823036193847656
500,3126667400,0.19878845,-0.6128954,-0.6798627,-0.3501852,12.265938758850098,2.7445197105407715,0.41680723428726196,37.62678909301758,-73.51258850097656, -27.268646240234375
501,3126684067,0.20085022,-0.6134635,-0.6793475,-0.3490117,9.45966911315918,-4.612387657165527,16.0382080078125,12.349141120910645,-2.5233137607574463, 9.550029754638672
502,3126700734,0.21157824,-0.6121039,-0.67763233,-0.34839404,3.997333526611328,-2.385202169418335,5.448469638824463,55.39878845214844,48.23055648803711, 21.66706657409668
503,3126717401,0.22367775,-0.60778654,-0.6748803,-0.35369596,5.954577445983887,4.557525634765625,2.6436901092529297,34.59477996826172,87.75306701660156, 7.362955093383789
504,3126734068,0.23190773,-0.60385394,-0.66554004,-0.37233898,5.896382808685303,1.8313487768173218,4.067662239074707,-62.727508544921875,134.0909881591797, 8.095745086669922
505,3126750735,0.24363919,-0.59890646,-0.6523308,-0.39549437,5.575030326843262,-1.250059723854065,4.722851753234863,-79.5556640625,177.0343475341797, 22.324222564697266
506,3126767402,0.25675192,-0.59297305,-0.6346687,-0.42386022,6.611582279205322,0.457856148481369,4.213208198547363,-109.64891052246094,214.36773681640625, 31.859237670898438
507,3126784069,0.2705615,-0.585959,-0.6125194,-0.4563648,7.419608116149902,0.24375826120376587,2.5434675216674805,-137.34750366210938,245.04454040527344, 40.40285873413086
508,3126800736,0.28645214,-0.57685834,-0.58642936,-0.49120337,8.069875717163086,0.5990337133407593,0.8324500322341919,-147.27536010742188,277.10308837890625, 49.556678771972656
509,3126817403,0.3052704,-0.56568295,-0.5563305,-0.5266021,9.698168754577637,-0.671450674533844,-0.10162937641143799,-147.37814331054688,306.1135559082031, 65.76902770996094
510,3126834070,0.32924303,-0.5516069,-0.5241873,-0.5590679,11.747410774230957,-1.6106082201004028,-0.9168785810470581,-117.43080139160156,329.3206481933594, 87.32647705078125
511,3126850737,0.35857353,-0.5337992,-0.49136516,-0.58740455,13.831811904907227,-0.37237226963043213,-1.335218906402588,-82.10090637207031,348.3283386230469, 105.22300720214844
512,3126867404,0.39096996,-0.51314914,-0.45762393,-0.6118833,16.153841018676758,0.5835719108581543,-2.1222777366638184,-54.09022903442383,358.66729736328125, 120.34748077392578
513,3126884071,0.4256193,-0.48930505,-0.42470813,-0.6317058,18.5958251953125,1.8440595865249634,-2.1962227821350098,-14.208017349243164,361.164794921875, 130.9980010986328
514,3126900738,0.46060106,-0.46206468,-0.39328283,-0.64782095,20.351526260375977,3.87516713142395,-1.4399445056915283,14.13414478302002,360.302490234375, 128.4494171142578
515,3126917405,0.49230057,-0.43312284,-0.36188734,-0.66263324,21.43797492980957,4.956857204437256,-2.4209487438201904,12.706011772155762,355.0538024902344, 113.4139404296875
516,3126934072,0.5183728,-0.4050459,-0.33002937,-0.67698485,21.011577606201172,5.173246383666992,-5.131863594055176,-8.009649276733398,337.6744079589844, 93.03817749023438
517,3126950739,0.5390425,-0.38377407,-0.29713237,-0.6883775,19.715253829956055,1.9224201440811157,-9.051519393920898,-45.52595901489258,289.6834411621094, 96.9366455078125
518,3126967406,0.5491418,-0.374281,-0.25682697,-0.7017104,18.443687438964844,7.89120626449585,-11.96912670135498,-156.17405700683594,245.55723571777344, 83.39633178710938
519,3126984073,0.5562366,-0.3671253,-0.23095626,-0.70885783,11.733299255371094,3.9877278804779053,-22.1469783782959,-92.2540512084961,159.21774291992188, 59.45710372924805
520,3127000740,0.55872554,-0.360304,-0.23230632,-0.70995855,6.925245761871338,14.190265655517578,-20.5640926361084,37.07963943481445,31.71131134033203, -7.896860599517822
521,3127017407,0.54588324,-0.37220895,-0.23197222,-0.71390575,11.448107719421387,13.066703796386719,-17.091882705688477,-85.83118438720703,-70.01850891113281, -59.22215270996094
522,3127034074,0.5244562,-0.39396608,-0.2346228,-0.71741813,14.146502494812012,10.39902400970459,-13.288871765136719,-129.66348266601562,-143.79664611816406, -91.27275848388672
523,3127050741,0.50134385,-0.4139218,-0.24186066,-0.7202964,18.684558868408203,1.3935587406158447,6.557312965393066,-104.24666595458984,-155.3805694580078, -112.27416229248047
524,3127067408,0.4840713,-0.4299574,-0.25372598,-0.7186343,18.715045928955078,-5.524362564086914,1.6809736490249634,-43.67424011230469,-155.08311462402344, -87.27555084228516
525,3127084075,0.46181083,-0.44843277,-0.26471978,-0.71802706,20.767444610595703,-0.11276435852050781,-5.0420050621032715,-72.62957763671875,-169.6898193359375, -108.68538665771484
526,3127100742,0.44363832,-0.46259734,-0.28257576,-0.71368074,14.749433517456055,-2.4627692699432373,-0.4952280819416046,-5.671530246734619,-173.94393920898438, -105.58160400390625
527,3127117409,0.4287412,-0.47293442,-0.30055478,-0.7086475,9.890071868896484,5.204287052154541,-1.3281607627868652,18.361663818359375,-151.25819396972656, -95.31314086914062
528,3127134076,0.4116602,-0.48342285,-0.3122966,-0.70661837,10.820868492126465,7.657118797302246,-2.3891403675079346,-25.86397361755371,-128.30567932128906, -94.08462524414062
529,3127150743,0.39766163,-0.49291378,-0.32059705,-0.7043573,9.990644454956055,2.880446195602417,1.1982148885726929,-29.101675033569336,-107.79911804199219, -68.94881439208984
530,3127167410,0.38921195,-0.49929065,-0.32817024,-0.7010904,10.965405464172363,2.2056100368499756,0.3237461447715759,-3.0968236923217773,-81.96326446533203, -43.67951202392578
531,3127184077,0.38442776,-0.5039559,-0.33642492,-0.6964641,12.651519775390625,-0.17117036879062653,0.27119457721710205,20.42201042175293,-71.94923400878906, -28.576452255249023
532,3127200744,0.38020968,-0.50769734,-0.34400985,-0.6923451,11.479513168334961,0.8723273873329163,0.1833862066268921,20.466445922851562,-62.69261169433594, -27.108646392822266
533,3127217411,0.37772825,-0.5105765,-0.35175076,-0.68768084,11.31201171875,-0.03979171812534332,0.8192280530929565,30.828718185424805,-56.8046760559082, -20.060420989990234
534,3127234078,0.37527347,-0.5131222,-0.35891783,-0.6834132,9.913612365722656,1.1684101819992065,0.3816242814064026,26.789180755615234,-52.093814849853516, -20.913862228393555
535,3127250745,0.37261328,-0.51638633,-0.36511743,-0.6791128,10.036259651184082,0.46900880336761475,0.6947422027587891,19.589380264282227,-53.62194061279297, -16.75796890258789
536,3127267412,0.37190455,-0.519098,-0.37317118,-0.6730292,9.380438804626465,1.3143559694290161,1.4070121049880981,40.88336181640625,-57.26130294799805, -11.239795684814453
537,3127284079,0.37328264,-0.5205768,-0.38483018,-0.66450435,9.133641242980957,1.7521520853042603,1.6388932466506958,74.04090118408203,-64.17854309082031, -11.705238342285156
538,3127300746,0.374789,-0.5216724,-0.3977486,-0.6551242,9.380821228027344,2.1046295166015625,1.2747089862823486,83.15836334228516,-68.46582794189453, -14.720039367675781
539,3127317413,0.37618205,-0.5227192,-0.4101749,-0.64576215,9.833902359008789,1.5503147840499878,1.8505403995513916,80.45923614501953,-67.33181762695312, -13.757942199707031
540,3127334080,0.3765995,-0.5238496,-0.4210905,-0.6375246,9.989346504211426,1.6582410335540771,1.4101922512054443,66.75853729248047,-62.64665222167969, -15.416418075561523
541,3127350747,0.37605244,-0.5254325,-0.4306857,-0.63009167,10.359121322631836,0.6583927869796753,1.4229329824447632,53.94983673095703,-61.2418212890625, -15.693541526794434
542,3127367414,0.37392706,-0.5277056,-0.43871328,-0.62388813,10.402496337890625,0.32316190004348755,0.4476667046546936,38.85832595825195,-60.66511154174805, -16.252605438232422
543,3127384081,0.37130353,-0.53022826,-0.44681302,-0.61753565,10.414022445678711,-0.04159759730100632,0.06078846752643585,37.182193756103516,-64.0390396118164, -17.590072631835938
544,3127400748,0.368344,-0.53280866,-0.45537132,-0.6107988,10.47648811340332,0.042954035103321075,0.1605747640132904,38.948020935058594,-67.95828247070312, -19.613466262817383
545,3127417415,0.3646875,-0.53574026,-0.46410897,-0.6038117,10.78487491607666,0.2714918851852417,0.0500057116150856,37.050506591796875,-73.06382751464844, -21.54286003112793
546,3127434082,0.3601895,-0.5390697,-0.4732155,-0.5964352,11.005960464477539,0.15537482500076294,0.26412010192871094,35.73460006713867,-79.83845520019531, -24.21880340576172
547,3127450749,0.3548904,-0.5429984,-0.4826672,-0.5884202,11.034515380859375,-0.20890142023563385,0.04094785451889038,34.78049087524414,-88.21642303466797, -25.3247127532959
548,3127467416,0.3485285,-0.5477377,-0.49285108,-0.57931805,10.708050727844238,0.2779577970504761,1.0989973545074463,35.40711212158203,-100.96136474609375, -27.092792510986328
549,3127484083,0.3395514,-0.553798,-0.50277555,-0.5702893,10.8509521484375,1.2712500095367432,2.109490394592285,21.119810104370117,-114.31901550292969, -32.29139709472656
550,3127500750,0.3280779,-0.5612619,-0.51227045,-0.5611858,12.005110740661621,1.0182664394378662,2.3783793449401855,6.930286407470703,-127.90196990966797, -35.44321823120117
551,3127517417,0.31629136,-0.56895185,-0.52314854,-0.5500634,13.00668716430664,-0.09595240652561188,2.6951911449432373,17.681034088134766,-140.97714233398438, -36.68039321899414
552,3127534084,0.305551,-0.575639,-0.53636295,-0.53627753,13.746405601501465,-0.30186018347740173,3.535414695739746,42.38740921020508,-149.13427734375, -39.760353088378906
553,3127550751,0.29581183,-0.5809937,-0.55179006,-0.5200673,14.140175819396973,-1.3091177940368652,4.121766090393066,66.2686996459961,-155.0269317626953, -44.74421310424805
554,3127567418,0.2868145,-0.58487856,-0.5692451,-0.50161237,14.402708053588867,-1.9784566164016724,5.721688270568848,88.00177764892578,-160.33682250976562, -51.328426361083984
555,3127584085,0.2777924,-0.58781797,-0.5875981,-0.48169538,14.7081880569458,-1.207586646080017,6.464684963226318,98.60118103027344,-165.17469787597656, -55.97573471069336
556,3127600752,0.26516837,-0.5919252,-0.60491294,-0.46194288,17.692481994628906,3.1198482513427734,5.1628851890563965,77.73294830322266,-181.3300018310547, -59.4088020324707
557,3127617419,0.2489527,-0.5974813,-0.6193082,-0.44440556,20.385005950927734,1.3016701936721802,8.17415714263916,42.055877685546875,-186.90928649902344, -56.96079635620117
558,3127634086,0.23721522,-0.60337484,-0.632197,-0.42425862,18.81302261352539,-2.9100146293640137,9.861083984375,66.45934295654297,-177.5214080810547, -31.264217376708984
559,3127650753,0.23060866,-0.6081668,-0.6392708,-0.41022685,17.33414077758789,2.441258430480957,12.947361946105957,46.010528564453125,-117.6790771484375, -7.090007781982422
560,3127667420,0.22933616,-0.6080444,-0.65273994,-0.38938147,11.45416259765625,7.738329887390137,-4.254575729370117,124.23291778564453,-119.60397338867188, -29.58319664001465
561,3127684087,0.22825041,-0.60580754,-0.66607064,-0.37047157,14.629508018493652,11.216705322265625,-6.7909255027771,119.3929672241211,-104.82769775390625, -40.8533821105957
562,3127700754,0.22479178,-0.60600024,-0.670801,-0.3636743,11.86944580078125,1.5092183351516724,3.7858753204345703,28.47322654724121,-57.96345901489258, -18.751802444458008
563,3127717421,0.22902139,-0.60682184,-0.6679324,-0.3649425,7.113489151000977,-4.895679950714111,15.036590576171875,13.102168083190918,22.968345642089844, 20.217863082885742
564,3127734088,0.2433897,-0.6039718,-0.66588587,-0.3641098,4.104778289794922,-1.5044203996658325,4.205089569091797,71.62957763671875,67.9068603515625, 28.912324905395508
565,3127750755,0.25810295,-0.5983791,-0.66189706,-0.3704295,6.564557075500488,5.661417484283447,2.9745609760284424,38.17935562133789,108.78535461425781, 13.872811317443848
566,3127767422,0.26853907,-0.59372044,-0.64993536,-0.39111015,6.5169782638549805,2.1787309646606445,4.755483627319336,-70.47734069824219,159.40414428710938, 15.575502395629883
567,3127784089,0.28150907,-0.58837235,-0.63279855,-0.41729724,6.399325847625732,-0.8871315121650696,4.499662399291992,-100.18340301513672,204.03761291503906, 30.753231048583984
568,3127800756,0.29589164,-0.5820084,-0.61076206,-0.44797814,7.969045639038086,-0.2411138117313385,3.903632164001465,-126.61927795410156,240.61563110351562, 41.41532516479492
569,3127817423,0.31187302,-0.57384235,-0.5847392,-0.4811661,8.340998649597168,-0.08749739080667496,2.0754077434539795,-138.769287109375,271.0531005859375, 49.4551887512207
570,3127834090,0.32969248,-0.5635192,-0.554493,-0.51602995,9.284700393676758,0.28265249729156494,0.0651993453502655,-147.6129913330078,301.2705993652344, 59.806243896484375
571,3127850757,0.35055286,-0.55110747,-0.5202532,-0.55020934,11.218966484069824,-1.294924259185791,-1.3146946430206299,-142.6686248779297,326.77264404296875, 79.55320739746094
572,3127867424,0.37745854,-0.53491575,-0.48558784,-0.5793058,13.155254364013672,-1.8270169496536255,-1.6976313591003418,-100.55231475830078,344.2142333984375, 100.76091766357422
573,3127884091,0.40759745,-0.5152456,-0.4500599,-0.6048411,14.921086311340332,0.1254088282585144,-1.6286280155181885,-70.41189575195312,358.43853759765625, 113.91405487060547
574,3127900758,0.43872935,-0.49324405,-0.41298398,-0.62743235,16.918237686157227,0.837988555431366,-2.2183146476745605,-56.54572296142578,365.5333557128906, 124.4288330078125
575,3127917425,0.47125047,-0.46798128,-0.37725985,-0.64543945,19.240463256835938,1.279541015625,-1.9552258253097534,-18.649845123291016,364.05145263671875, 132.91421508789062
576,3127934092,0.5028519,-0.43994847,-0.3429038,-0.6603052,20.962093353271484,4.091372489929199,-1.2342809438705444,1.5792124271392822,359.7054138183594, 127.503662109375
577,3127950759,0.53014964,-0.41181615,-0.3076105,-0.67433304,22.0167179107666,4.730996131896973,-2.2986321449279785,-13.422521591186523,351.0467224121094, 113.62703704833984
578,3127967426,0.55135024,-0.38646427,-0.270577,-0.6880747,21.83283042907715,4.979938507080078,-4.467525482177734,-48.356563568115234,331.2159118652344, 97.37958526611328
579,3127984093,0.5683231,-0.36814803,-0.23191723,-0.6983486,20.35607147216797,1.0543720722198486,-8.999743461608887,-87.58667755126953,287.5325622558594, 108.11216735839844
580,3128000760,0.5815619,-0.35408852,-0.19864364,-0.70494556,16.394529342651367,5.778210163116455,-16.005014419555664,-81.93572235107422,231.4027099609375, 97.79791259765625
581,3128017427,0.5919877,-0.33875188,-0.1916833,-0.70573044,7.738008499145508,10.050642967224121,-23.011371612548828,51.76413345336914,115.08235168457031, 41.79874038696289
582,3128034094,0.59095514,-0.33624747,-0.1978944,-0.7060791,7.999744892120361,15.248552322387695,-17.444910049438477,37.2138671875,-16.222049713134766, -25.544979095458984
583,3128050761,0.57663816,-0.35278532,-0.19954684,-0.7093746,12.314149856567383,8.537811279296875,-14.577888488769531,-97.26043701171875,-100.87413787841797, -65.20104217529297
584,3128067428,0.5599409,-0.37138695,-0.20762496,-0.71093625,13.401459693908691,3.661203145980835,-10.4133882522583,-77.62661743164062,-143.36764526367188, -82.4155044555664
585,3128084095,0.54159313,-0.38918224,-0.21945384,-0.71207756,13.844616889953613,6.633814811706543,-6.904625415802002,-59.854801177978516,-156.87368774414062, -99.42012023925781
586,3128100762,0.5188976,-0.41134894,-0.22346403,-0.7152632,15.786648750305176,-1.1881016492843628,6.822334289550781,-129.2568359375,-149.94422912597656, -100.53622436523438
587,3128117429,0.5017204,-0.4269488,-0.22932293,-0.7165213,14.911155700683594,-9.864055633544922,10.963725090026855,-78.16622924804688,-121.24072265625, -81.74835968017578
588,3128134096,0.4826278,-0.4445183,-0.23469993,-0.71721005,16.79997444152832,0.046712666749954224,-6.42439603805542,-91.9579849243164,-134.1539764404297, -84.86534118652344
589,3128150763,0.46603468,-0.4579934,-0.24675852,-0.71565664,18.394149780273438,-0.8693404793739319,-1.715456485748291,-34.17150115966797,-138.63267517089844, -92.03530883789062
590,3128167430,0.4526316,-0.46780264,-0.2622761,-0.7123884,11.910157203674316,3.3760530948638916,-0.7078244090080261,7.5362548828125,-131.4591827392578, -87.93766021728516
591,3128184097,0.43831396,-0.47748426,-0.2737999,-0.7105798,12.204858779907227,6.131163120269775,-0.6244605779647827,-17.265830993652344,-115.28785705566406, -84.25239562988281
592,3128200764,0.42590952,-0.48633832,-0.28299788,-0.70851165,10.62588882446289,3.7349231243133545,-0.3583933711051941,-19.443941116333008,-101.43016052246094, -67.87506866455078
593,3128217431,0.418669,-0.49243167,-0.29248044,-0.70475745,9.936795234680176,3.4578144550323486,0.584347128868103,10.542186737060547,-84.38275909423828, -44.0271110534668
594,3128234098,0.41389576,-0.49766874,-0.2998215,-0.7008021,11.33462142944336,0.8717376589775085,1.0293347835540771,11.375601768493652,-69.79937744140625, -25.915996551513672
595,3128250765,0.4118819,-0.50112003,-0.30830932,-0.69582903,11.402782440185547,1.3709205389022827,0.9791061878204346,33.541439056396484,-62.26523971557617, -17.3690128326416
596,3128267432,0.4093496,-0.5050954,-0.31483182,-0.6915149,11.420381546020508,-0.24795256555080414,0.5287090539932251,19.48881721496582,-58.04811096191406, -13.865397453308105
597,3128284099,0.40776375,-0.5082636,-0.32165623,-0.68697494,10.00383472442627,0.4821828007698059,0.7857542037963867,26.999372482299805,-53.8017578125, -11.59910774230957
598,3128300766,0.4051533,-0.5118875,-0.32640997,-0.6835781,10.012252807617188,1.1231541633605957,0.7134674787521362,9.853890419006348,-48.454158782958984, -11.449837684631348
599,3128317433,0.40281054,-0.51532197,-0.3304525,-0.6804326,9.565352439880371,0.5840042233467102,0.8584182262420654,7.434158802032471,-44.138370513916016, -8.839250564575195
600,3128334100,0.40143615,-0.5180993,-0.33553946,-0.6766356,9.734371185302734,0.5323005318641663,1.3004275560379028,19.071434020996094,-44.117183685302734, -7.74345064163208
601,3128350767,0.40168303,-0.5196021,-0.34305957,-0.67154676,9.00031852722168,0.7377848625183105,1.8643429279327393,42.68645095825195,-45.826805114746094, -8.308171272277832
602,3128367434,0.40344948,-0.5205132,-0.35345408,-0.66435313,9.306635856628418,0.38070443272590637,1.2542160749435425,65.97628021240234,-54.34432601928711, -9.303568840026855
603,3128384101,0.40577433,-0.52085227,-0.3668263,-0.65536183,9.269327163696289,0.3999482989311218,1.4367215633392334,86.95066833496094,-64.99822998046875, -14.464500427246094
604,3128400768,0.40684363,-0.5212173,-0.38109896,-0.6462005,9.935243606567383,0.7269043922424316,1.2238885164260864,89.51124572753906,-72.30641174316406, -20.27300453186035
605,3128417435,0.40650326,-0.522357,-0.39438915,-0.63746053,10.073894500732422,0.4625338613986969,1.4443577527999878,76.83665466308594,-75.24786376953125, -22.254613876342773
606,3128434102,0.40480214,-0.52413434,-0.405983,-0.629759,10.173489570617676,0.7546218633651733,0.9202250242233276,59.92878341674805,-73.34358215332031, -23.383037567138672
607,3128450769,0.40260643,-0.5261579,-0.41687468,-0.6223199,10.730552673339844,0.4016686975955963,0.9824362397193909,53.699066162109375,-72.96324157714844, -23.103790283203125
608,3128467436,0.3996911,-0.52877724,-0.42690754,-0.6151358,11.383193969726562,-0.5945969820022583,0.19618365168571472,45.05131912231445,-74.35582733154297, -22.14494514465332
609,3128484103,0.3962278,-0.53156835,-0.43736145,-0.6075804,11.384882926940918,-0.5634295344352722,0.2747669219970703,45.463722229003906,-79.25902557373047, -24.564403533935547
610,3128500770,0.3916141,-0.53514475,-0.44763386,-0.5999025,11.681318283081055,-0.853889524936676,0.09645228087902069,38.73481750488281,-86.02501678466797, -26.103496551513672
611,3128517437,0.3859796,-0.5394986,-0.45828298,-0.5915558,11.759369850158691,-0.968523383140564,0.37201130390167236,36.49855422973633,-95.92352294921875, -27.600919723510742
612,3128534104,0.3781145,-0.5454717,-0.46896023,-0.5827237,11.365111351013184,0.5002856254577637,1.4261047840118408,25.572067260742188,-111.50688171386719, -30.477710723876953
613,3128550771,0.36745125,-0.5531933,-0.4790176,-0.5740202,11.747802734375,0.3120533525943756,2.698855400085449,7.638670444488525,-125.5735092163086, -34.10044860839844
614,3128567438,0.35535637,-0.5618374,-0.48952356,-0.5642941,13.106843948364258,0.40284478664398193,2.3712518215179443,5.0140700340271,-139.13648986816406, -35.87702560424805
615,3128584105,0.34332904,-0.57025445,-0.5015291,-0.5526338,13.67257308959961,-0.0673726499080658,3.361614227294922,18.17003059387207,-149.34861755371094, -37.496070861816406
616,3128600772,0.3328995,-0.5774057,-0.5154762,-0.53857726,14.306928634643555,-1.0919528007507324,3.5427322387695312,43.0789909362793,-153.23622131347656, -37.820701599121094
617,3128617439,0.3252843,-0.58218044,-0.5325229,-0.52122533,14.45260238647461,-2.273336410522461,4.741879463195801,82.85905456542969,-154.891357421875, -40.700592041015625
618,3128634106,0.31906334,-0.5850232,-0.55162966,-0.5016489,14.15807819366455,-2.1250219345092773,6.695162773132324,108.2926025390625,-156.68206787109375, -46.19992446899414
619,3128650773,0.31086746,-0.588121,-0.570599,-0.48155192,15.266386032104492,1.352435827255249,5.889841079711914,101.2984390258789,-167.22213745117188, -50.48324203491211
620,3128667440,0.29829884,-0.59262943,-0.5877567,-0.46298027,17.646440505981445,2.8535635471343994,6.812094211578369,68.65392303466797,-179.3728485107422, -55.39360809326172
621,3128684107,0.28508005,-0.5981282,-0.602239,-0.44528717,18.971073150634766,-1.024813175201416,8.453414916992188,51.974918365478516,-176.50877380371094, -44.366085052490234
622,3128700774,0.27787277,-0.60312545,-0.6155456,-0.424418,17.916851043701172,-0.9938356876373291,11.970810890197754,87.26455688476562,-161.3406524658203, -17.079795837402344
623,3128717441,0.27539656,-0.60553086,-0.6236471,-0.41055322,12.495859146118164,3.251429796218872,6.867669582366943,67.04608154296875,-95.35071563720703, -6.123586177825928
624,3128734108,0.27604157,-0.6022093,-0.6408994,-0.3878059,12.700688362121582,10.459735870361328,-9.426685333251953,154.9120635986328,-120.48394012451172, -43.07421875
625,3128750775,0.27287334,-0.60054433,-0.6509914,-0.375629,13.44409465789795,8.298144340515137,-5.588475704193115,70.42367553710938,-84.24111938476562, -36.104942321777344
626,3128767442,0.2703613,-0.6015923,-0.65226215,-0.37355888,12.743753433227539,-3.490837335586548,15.587416648864746,0.14250312745571136,-30.067472457885742, -4.660220623016357
627,3128784109,0.27933627,-0.59924245,-0.6501151,-0.3744736,2.1288931369781494,-4.577043056488037,10.68034839630127,31.818248748779297,48.27053451538086, 18.063547134399414
628,3128800776,0.29145595,-0.593025,-0.64758116,-0.3794917,6.2407026290893555,3.998507022857666,3.9391496181488037,32.82936096191406,89.68408203125, 2.5059821605682373
629,3128817443,0.29789123,-0.58783644,-0.6376626,-0.3988686,6.699355125427246,4.98077917098999,4.030178070068359,-71.18643951416016,135.29933166503906, -6.284351348876953
630,3128834110,0.3059169,-0.58227974,-0.62221724,-0.42451304,6.556209564208984,-0.6030312180519104,5.66093635559082,-109.948974609375,179.51272583007812, 5.992893218994141
631,3128850777,0.31740597,-0.5753074,-0.60259223,-0.4529435,6.915103912353516,-0.870155930519104,5.001260757446289,-118.63982391357422,218.14804077148438, 20.698406219482422
632,3128867444,0.3326463,-0.5666227,-0.5795348,-0.48210475,8.119094848632812,-1.6708768606185913,2.745018482208252,-115.63533782958984,249.1833038330078, 36.78662109375
633,3128884111,0.35169286,-0.5555155,-0.5534109,-0.51132345,8.737645149230957,-1.4060369729995728,0.7140101194381714,-106.06053161621094,279.6136779785156, 51.15709686279297
634,3128900778,0.3732563,-0.54286736,-0.52298653,-0.54079604,10.378040313720703,-1.9151464700698853,-1.2023522853851318,-110.07955169677734,306.07977294921875, 69.16685485839844
635,3128917445,0.39838442,-0.5276722,-0.49005124,-0.5680688,12.757862091064453,-1.3828606605529785,-1.9509544372558594,-93.00299072265625,326.88232421875, 87.16075897216797
636,3128934112,0.42701322,-0.5093507,-0.45593408,-0.59190047,14.392486572265625,-0.4439343512058258,-1.9099693298339844,-64.6424789428711,342.0137634277344, 103.37285614013672
637,3128950779,0.4569356,-0.48809415,-0.42128953,-0.612772,15.960271835327148,2.6437058448791504,-1.7427641153335571,-43.974769592285156,349.5828857421875, 109.49504089355469
638,3128967446,0.48503274,-0.4650621,-0.3853705,-0.63241655,17.26932144165039,3.3167998790740967,-1.5593501329421997,-41.70143127441406,351.39447021484375, 108.2673568725586
639,3128984113,0.5116146,-0.4402056,-0.3499245,-0.6496329,18.416065216064453,4.0745110511779785,-1.7398549318313599,-31.997541427612305,346.2322692871094, 103.53345489501953
640,3129000780,0.5349255,-0.41522008,-0.31425792,-0.66534907,19.47010612487793,4.462491989135742,-2.668550729751587,-38.870765686035156,335.49725341796875, 94.68997192382812
641,3129017447,0.5546484,-0.39109138,-0.27852738,-0.67958486,20.11611557006836,4.448544502258301,-4.418346881866455,-49.42341232299805,320.240478515625, 85.90359497070312
642,3129034114,0.57019615,-0.36984196,-0.24182387,-0.6925424,19.842041015625,3.4313888549804688,-6.13264274597168,-73.80328369140625,299.568603515625, 79.55162048339844
643,3129050781,0.5852266,-0.35240528,-0.20863286,-0.6998523,17.929311752319336,0.15455713868141174,-10.025120735168457,-63.99520492553711,252.97039794921875, 96.78035736083984
644,3129067448,0.59743017,-0.33596092,-0.18565296,-0.70408875,14.085981369018555,8.392608642578125,-13.996377944946289,-21.255409240722656,196.21897888183594, 72.2989273071289
645,3129084115,0.6042707,-0.32249328,-0.18072248,-0.70582914,8.335236549377441,10.885441780090332,-19.562990188598633,44.57926940917969,95.68597412109375, 18.93680763244629
646,3129100782,0.6004366,-0.32308078,-0.18411422,-0.7079528,9.20206069946289,12.400216102600098,-17.6033992767334,2.268984317779541,-18.89293098449707, -35.19258499145508
647,3129117449,0.5875619,-0.33756313,-0.189002,-0.7107044,12.285333633422852,6.577495098114014,-15.282095909118652,-68.8967056274414,-102.19776153564453, -67.21296691894531
648,3129134116,0.57133436,-0.35445404,-0.20073605,-0.712492,14.005294799804688,5.963208198547363,-10.291831970214844,-51.80001449584961,-147.6804962158203, -92.2294692993164
649,3129150783,0.5484347,-0.37703845,-0.2085402,-0.7166402,15.57443904876709,5.088317394256592,-0.6883313655853271,-113.05794525146484,-163.17123413085938, -116.50162506103516
650,3129167450,0.52540517,-0.4003676,-0.2083958,-0.72126746,16.02723503112793,-14.889039993286133,16.005949020385742,-156.17431640625,-135.63485717773438, -96.97517395019531
651,3129184117,0.5022021,-0.4231701,-0.20868899,-0.72468585,15.458159446716309,-3.0732295513153076,-3.9843664169311523,-150.65150451660156,-138.47412109375, -95.63247680664062
652,3129200784,0.4824365,-0.44124305,-0.21837756,-0.7244801,20.09205436706543,-2.3114748001098633,-4.774288654327393,-72.2548828125,-152.71707153320312, -100.03828430175781
653,3129217451,0.46696016,-0.4536863,-0.23542021,-0.72159183,13.340953826904297,1.9670438766479492,-1.2495388984680176,0.10961578786373138,-150.4105224609375, -100.50020599365234
654,3129234118,0.4523058,-0.4646926,-0.24930173,-0.71925616,11.482902526855469,5.755093574523926,-1.826087236404419,-9.347365379333496,-129.94923400878906, -90.58161163330078
655,3129250785,0.4395801,-0.47408208,-0.26097986,-0.71687204,11.048513412475586,5.699766635894775,-0.9264732599258423,-9.062426567077637,-111.8492202758789, -76.45410919189453
656,3129267452,0.4309635,-0.48110342,-0.27141044,-0.71354526,10.12298583984375,3.9200456142425537,0.31484413146972656,6.961982727050781,-92.04424285888672, -53.385581970214844
657,3129284119,0.42568302,-0.4864225,-0.28054464,-0.7095648,10.950990676879883,2.108793258666992,0.16085116565227509,17.873807907104492,-75.78250122070312, -33.90309524536133
658,3129300786,0.42292893,-0.49039683,-0.28968906,-0.7047855,11.478859901428223,0.6994640827178955,1.155864953994751,31.854806900024414,-67.0299301147461, -21.872514724731445
659,3129317453,0.4195524,-0.4945276,-0.29721716,-0.7007714,11.52754020690918,1.2110283374786377,1.215238094329834,19.968978881835938,-61.76540756225586, -21.40959358215332
660,3129334120,0.41654387,-0.4991495,-0.3033708,-0.6966402,10.518747329711914,-0.7476882934570312,0.9112569689750671,10.812231063842773,-58.12285614013672, -17.595661163330078
661,3129350787,0.4135551,-0.5032676,-0.30866584,-0.69312316,10.384608268737793,1.3846768140792847,0.43322938680648804,6.756451606750488,-51.08201599121094, -17.62935447692871
662,3129367454,0.41075322,-0.50717425,-0.31291953,-0.6900275,9.91014575958252,0.21335247159004211,0.6322629451751709,1.8509995937347412,-45.16191864013672, -15.127594947814941
663,3129384121,0.4095564,-0.5099279,-0.31857547,-0.6861103,9.782958030700684,1.2380746603012085,0.5055176019668579,18.81501007080078,-42.977996826171875, -12.979484558105469
664,3129400788,0.40963197,-0.5119392,-0.32588795,-0.68111473,9.176605224609375,0.7651114463806152,1.472412347793579,35.149208068847656,-45.026947021484375, -11.8760986328125
665,3129417455,0.41143563,-0.5128932,-0.33602703,-0.6743497,9.212794303894043,0.8187397718429565,1.0350396633148193,61.24162292480469,-50.489845275878906, -11.349973678588867
666,3129434122,0.41398525,-0.5131548,-0.3492413,-0.6658223,9.368995666503906,0.8935534954071045,1.2745263576507568,84.27351379394531,-60.7472038269043, -15.208656311035156
667,3129450789,0.41577402,-0.5134015,-0.3636577,-0.65673774,9.899580001831055,0.8558452129364014,1.6843328475952148,88.39319610595703,-68.11024475097656, -21.4730281829834
668,3129467456,0.41610214,-0.5138693,-0.3777641,-0.648145,10.244182586669922,0.8851638436317444,1.6015584468841553,84.01454162597656,-72.0704574584961, -22.804676055908203
669,3129484123,0.41518062,-0.51488364,-0.39021602,-0.6405089,10.107813835144043,0.5758528709411621,1.1190682649612427,68.19340515136719,-69.72418975830078, -23.94370460510254
670,3129500790,0.41377658,-0.5161424,-0.40189213,-0.6331423,10.656225204467773,0.2889012396335602,0.2582637667655945,61.661861419677734,-69.00796508789062, -23.532602310180664
671,3129517457,0.41173774,-0.5179922,-0.41283724,-0.62587696,10.932425498962402,-0.4842616617679596,-0.027186207473278046,54.27732849121094,-70.9527359008789, -22.452842712402344
672,3129534124,0.408835,-0.5202155,-0.4236802,-0.618648,11.04820442199707,-0.04506092518568039,0.1319389045238495,49.61119842529297,-74.6507568359375, -24.961044311523438
673,3129550791,0.40504196,-0.52310807,-0.43461955,-0.61106914,11.363377571105957,-0.21074563264846802,0.5082244277000427,45.982994079589844,-81.68209838867188, -26.253381729125977
674,3129567458,0.4001258,-0.52689445,-0.4462272,-0.6026302,11.399092674255371,0.026466187089681625,0.78171706199646,44.84086990356445,-93.83706665039062, -28.40418815612793
675,3129584125,0.39315054,-0.53229064,-0.4583891,-0.5932784,10.793057441711426,0.6500982046127319,2.1555283069610596,38.05775451660156,-111.76283264160156, -31.57648468017578
676,3129600792,0.38292438,-0.5397272,-0.47000653,-0.5840871,11.140778541564941,1.637015461921692,2.199521780014038,17.93163299560547,-128.4363555908203, -36.89838409423828
677,3129617459,0.37068388,-0.54841506,-0.4816102,-0.5743574,12.84406852722168,0.7521067261695862,2.4255309104919434,8.864065170288086,-142.1052703857422, -39.48848342895508
678,3129634126,0.35805133,-0.55708164,-0.49452528,-0.56294274,14.129571914672852,0.28961795568466187,3.1221282482147217,18.215925216674805,-153.20867919921875, -41.805789947509766
679,3129650793,0.34639215,-0.5645574,-0.5095538,-0.54922014,14.706217765808105,-0.7987222075462341,3.2707276344299316,40.92505645751953,-159.5634765625, -44.580535888671875
680,3129667460,0.33697295,-0.56983954,-0.52754724,-0.5323782,15.05720329284668,-2.88138747215271,4.359829425811768,76.98490142822266,-162.85406494140625, -48.01674270629883
681,3129684127,0.32999152,-0.5726536,-0.548427,-0.5122517,15.265619277954102,-3.699059247970581,6.529424667358398,114.73951721191406,-164.84532165527344, -51.9469108581543
682,3129700794,0.3232446,-0.5745758,-0.5704805,-0.4898247,15.67462158203125,-0.3508215546607971,6.5040283203125,130.49630737304688,-172.9458770751953, -54.10546875
683,3129717461,0.31141865,-0.5783683,-0.5903944,-0.46898142,18.367048263549805,3.948622941970825,6.792620658874512,92.87584686279297,-188.56927490234375, -59.04546356201172
684,3129734128,0.2974524,-0.58403546,-0.6064086,-0.45021522,19.780668258666992,-0.44053876399993896,9.344039916992188,59.42311096191406,-187.1485137939453, -47.26403045654297
685,3129750795,0.28708586,-0.5909802,-0.6182857,-0.43133205,19.211570739746094,-0.15255272388458252,12.670289039611816,58.993778228759766,-168.66830444335938, -14.053498268127441
686,3129767462,0.28129184,-0.5945742,-0.62837255,-0.41533694,13.360464096069336,5.6238908767700195,3.5959219932556152,66.67145538330078,-124.68928527832031, -13.2559232711792
687,3129784129,0.2753628,-0.59424776,-0.6432811,-0.3965284,13.758760452270508,10.892751693725586,-8.496197700500488,99.74439239501953,-135.20826721191406, -44.744319915771484
688,3129800796,0.27005935,-0.5962046,-0.6514797,-0.3836442,13.077478408813477,3.772221088409424,-4.01391077041626,53.610008239746094,-101.6994857788086, -16.507722854614258
