PacketCounter,SampleTimeFine,Quat_W,Quat_X,Quat_Y,Quat_Z,Acc_X,Acc_Y,Acc_Z,Gyr_X,Gyr_Y,Gyr_Z 
1,1177602199,0.3849717,-0.08606282,-0.0054115574,0.9188911,-0.023637738078832626,0.12834478914737701,-0.06833191961050034,0.1359940469264984,-0.021507589146494865, 0.023173585534095764
2,1177618866,0.38463843,-0.08671738,-0.00556361,0.91896814,-1.617873191833496,-0.7503158450126648,9.84282112121582,0.652208149433136,0.475762277841568, 0.4975203275680542
3,1177635533,0.38449103,-0.08725762,-0.0053664315,0.9189798,-1.5754122734069824,-0.6771727204322815,9.943107604980469,0.32545414566993713,-0.6689652800559998, -0.09486942738294601
4,1177652200,0.38422295,-0.08718371,-0.0049989577,0.91910106,-1.542721152305603,-0.7153598070144653,9.913776397705078,-0.4418575167655945,-1.3438984155654907, -0.474295973777771
5,1177668867,0.38400254,-0.08679696,-0.0048677237,0.9192305,-1.5346126556396484,-0.6508210897445679,9.802620887756348,-0.6904928088188171,-2.195725679397583, -0.41765347123146057
6,1177685534,0.3838566,-0.086252294,-0.0047138464,0.91934353,-1.5213210582733154,-0.7230494022369385,9.763452529907227,-0.6048823595046997,-2.769975423812866, -0.3278169631958008
7,1177702201,0.383639,-0.0857186,-0.0046928935,0.91948444,-1.5076904296875,-0.7809247970581055,9.721307754516602,-0.2870158851146698,-2.8883183002471924, -0.4388735890388489
8,1177718868,0.38364524,-0.085273474,-0.0048289974,0.91952246,-1.4630111455917358,-0.7665231823921204,9.771846771240234,-0.34896019101142883,-2.7641992568969727, -0.6949877738952637
9,1177735535,0.38375846,-0.08491032,-0.0051309257,0.9195071,-1.442226767539978,-0.7383847832679749,9.742790222167969,-1.1019480228424072,-2.360184669494629, -1.1761736869812012
10,1177752202,0.38389936,-0.08457066,-0.0054678144,0.91947776,-1.4851356744766235,-0.6781840324401855,9.748435974121094,-1.256559133529663,-2.114802360534668, -1.4664039611816406
11,1177768869,0.38405377,-0.08427918,-0.0059144,0.9194372,-1.490678310394287,-0.5896270275115967,9.730073928833008,-2.311610221862793,-2.2749712467193604, -1.8307191133499146
12,1177785536,0.38417163,-0.08399577,-0.0063181473,0.9194113,-1.4756046533584595,-0.6480921506881714,9.718067169189453,-2.5975892543792725,-2.3182315826416016, -1.6851751804351807
13,1177802203,0.38432023,-0.083788656,-0.006688567,0.9193654,-1.4612388610839844,-0.6675731539726257,9.768064498901367,-2.714139699935913,-1.8724164962768555, -1.668705940246582
14,1177818870,0.38448292,-0.08363095,-0.0070803813,0.91930884,-1.407713770866394,-0.6759072542190552,9.720280647277832,-3.0578360557556152,-1.6858278512954712, -1.3063757419586182
15,1177835537,0.3844843,-0.083388306,-0.0073582414,0.91932815,-1.334020733833313,-0.7256275415420532,9.623970031738281,-2.0698134899139404,-1.8453054428100586, -0.7035681009292603
16,1177852204,0.38449156,-0.08314776,-0.0076107965,0.91934484,-1.408292531967163,-0.8190944790840149,9.628061294555664,-1.8018277883529663,-1.624024510383606, -0.4055899381637573
17,1177868871,0.3845345,-0.082933515,-0.007799637,0.9193447,-1.4493459463119507,-0.7633927464485168,9.606648445129395,-1.156567096710205,-1.3350363969802856, -0.5671932101249695
18,1177885538,0.38461322,-0.08278812,-0.00811086,0.9193221,-1.4182125329971313,-0.6912835836410522,9.605966567993164,-1.9720242023468018,-1.3386220932006836, -0.9355294108390808
19,1177902205,0.3847161,-0.082640715,-0.008381537,0.9192898,-1.4807616472244263,-0.7973809242248535,9.6466703414917,-1.7595670223236084,-1.3146998882293701, -0.8732394576072693
20,1177918872,0.38480964,-0.08246645,-0.008583338,0.9192645,-1.469936728477478,-0.7344054579734802,9.730791091918945,-1.1070064306259155,-1.4224268198013306, -0.9510250687599182
21,1177935539,0.38479838,-0.08238681,-0.008922791,0.91927314,-1.3625174760818481,-0.6260269284248352,9.772870063781738,-2.1985554695129395,-1.2444697618484497, -0.8486767411231995
22,1177952206,0.38475713,-0.08232069,-0.009235114,0.9192932,-1.2928621768951416,-0.7442597150802612,9.700675010681152,-2.2786080837249756,-1.0698680877685547, -0.12979236245155334
23,1177968873,0.384619,-0.082282,-0.009485452,0.91935205,-1.3434253931045532,-0.7834565043449402,9.63452434539795,-1.957220196723938,-0.6404072046279907, 0.4570522606372833
24,1177985540,0.3845573,-0.08224877,-0.009596154,0.9193797,-1.36504328250885,-0.8049908876419067,9.61272144317627,-1.0795496702194214,-0.24657346308231354, 0.6323071718215942
25,1178002207,0.38453895,-0.08223949,-0.009681604,0.91938716,-1.4008491039276123,-0.7639918923377991,9.653886795043945,-0.9099552631378174,-0.03384718298912048, 0.46473604440689087
26,1178018874,0.38450453,-0.08225896,-0.009783838,0.9193987,-1.494042158126831,-0.6816367506980896,9.658783912658691,-0.9960523843765259,0.11498182266950607, -0.012166032567620277
27,1178035541,0.38444266,-0.08231547,-0.010000035,0.91941726,-1.4478445053100586,-0.7760210633277893,9.663786888122559,-1.8068605661392212,-0.01521394308656454, -0.35376256704330444
28,1178052208,0.3844873,-0.08238531,-0.010165059,0.91939056,-1.351887822151184,-0.7929118275642395,9.683449745178223,-1.5296930074691772,0.13629157841205597, -0.4574940800666809
29,1178068875,0.3844475,-0.082512155,-0.010259643,0.9193948,-1.3575595617294312,-0.8139413595199585,9.73798942565918,-1.1976243257522583,0.7126542329788208, -0.1511533558368683
30,1178085542,0.38436797,-0.08264476,-0.010295679,0.9194157,-1.3714582920074463,-0.7188666462898254,9.669280052185059,-0.7965933084487915,0.9309383630752563, -0.03843185305595398
31,1178102209,0.3842867,-0.082805835,-0.0102899335,0.91943526,-1.392762541770935,-0.775208592414856,9.741798400878906,-0.6930028200149536,1.189741849899292, 0.43000519275665283
32,1178118876,0.38420275,-0.08293788,-0.010245094,0.9194589,-1.4544727802276611,-0.7185198664665222,9.748604774475098,-0.36314964294433594,1.1050535440444946, 0.48963162302970886
33,1178135543,0.3841118,-0.08300877,-0.010224188,0.9194907,-1.4577765464782715,-0.631104052066803,9.79489517211914,-0.3584241569042206,0.6313722729682922, 0.41360029578208923
34,1178152210,0.3840802,-0.08306661,-0.010314355,0.9194976,-1.3965004682540894,-0.694625973701477,9.851719856262207,-1.0828791856765747,0.2326081246137619, 0.12243510782718658
35,1178168877,0.38405922,-0.0830897,-0.010454244,0.9195028,-1.4083329439163208,-0.7856229543685913,9.782760620117188,-1.3100512027740479,-0.09849364310503006, -0.06901341676712036
36,1178185544,0.38401377,-0.08309611,-0.01065299,0.91951895,-1.4091686010360718,-0.8027662038803101,9.77535343170166,-1.5654611587524414,-0.3284188508987427, -0.3746497929096222
37,1178202211,0.38398892,-0.08311701,-0.010864809,0.91952497,-1.4065372943878174,-0.8803041577339172,9.689909934997559,-1.645961880683899,-0.2608269453048706, -0.5812418460845947
38,1178218878,0.38399673,-0.08314989,-0.011077585,0.9195162,-1.3741776943206787,-0.8516555428504944,9.627248764038086,-1.6482030153274536,-0.1996253877878189, -0.6100177764892578
39,1178235545,0.384025,-0.08318675,-0.01123462,0.9194992,-1.3561859130859375,-0.7850083112716675,9.621078491210938,-1.2958234548568726,-0.03809889405965805, -0.4908161163330078
40,1178252212,0.3839801,-0.0832554,-0.011375598,0.91950995,-1.373839020729065,-0.7789649367332458,9.625235557556152,-1.2415883541107178,0.232095867395401, -0.415745347738266
41,1178268879,0.38397622,-0.08339294,-0.011451161,0.91949826,-1.356473684310913,-0.681408166885376,9.679279327392578,-1.0199872255325317,0.8367220759391785, -0.4476715624332428
42,1178285546,0.38399398,-0.08362903,-0.01154853,0.91946805,-1.3808386325836182,-0.6406450867652893,9.658624649047852,-1.471718430519104,1.4004958868026733, -0.3832939863204956
43,1178302213,0.3839702,-0.083869435,-0.011580389,0.91945577,-1.445517897605896,-0.6837208867073059,9.660852432250977,-1.1237059831619263,1.5891207456588745, -0.05913972109556198
44,1178318880,0.38391992,-0.08413849,-0.011537987,0.9194527,-1.4800996780395508,-0.7465263605117798,9.64801025390625,-0.7748610377311707,1.9371846914291382, 0.24518397450447083
45,1178335547,0.38382223,-0.0844441,-0.011461976,0.9194664,-1.4269241094589233,-0.7098638415336609,9.724119186401367,-0.651702344417572,2.242321491241455, 0.3697001039981842
46,1178352214,0.3836557,-0.08480645,-0.011423577,0.9195031,-1.3955004215240479,-0.7575993537902832,9.645416259765625,-1.0578556060791016,2.4986660480499268, 0.6367893218994141
47,1178368881,0.38346028,-0.08515643,-0.0113379145,0.9195532,-1.4194319248199463,-0.7876006364822388,9.688158988952637,-0.7472376823425293,2.535125970840454, 0.9289534687995911
48,1178385548,0.38330576,-0.08551685,-0.011231648,0.9195856,-1.4369134902954102,-0.7703593969345093,9.677505493164062,-0.6568249464035034,2.6450045108795166, 0.9195663928985596
49,1178402215,0.38313478,-0.08589052,-0.011145066,0.91962314,-1.4545410871505737,-0.7018465399742126,9.70767879486084,-0.8069921731948853,2.6797735691070557, 0.9290302991867065
50,1178418882,0.38291824,-0.08628332,-0.011077146,0.9196773,-1.4475996494293213,-0.7569866180419922,9.715559005737305,-0.9573643803596497,2.767740488052368, 0.8831451535224915
51,1178435549,0.38275903,-0.08668706,-0.010966663,0.91970694,-1.4287022352218628,-0.747752845287323,9.684109687805176,-0.7394387125968933,2.9369635581970215, 0.8413836359977722
52,1178452216,0.382511,-0.08704005,-0.0107876295,0.919779,-1.452411413192749,-0.8014059662818909,9.713138580322266,-0.1310858130455017,2.822333812713623, 0.9517358541488647
53,1178468883,0.38233227,-0.08739749,-0.010543474,0.9198221,-1.5090473890304565,-0.7795348763465881,9.728021621704102,0.2617041766643524,3.014967203140259, 0.8372728228569031
54,1178485550,0.38216382,-0.08770792,-0.010321873,0.91986513,-1.5489813089370728,-0.7771227955818176,9.706789016723633,0.25396913290023804,2.65348219871521, 0.7493956089019775
55,1178502217,0.38197133,-0.08799994,-0.010176143,0.9199187,-1.5195392370224,-0.7639120817184448,9.690177917480469,-0.14539049565792084,2.3414041996002197, 0.6149033308029175
56,1178518884,0.3818531,-0.08823793,-0.010013414,0.91994685,-1.5127352476119995,-0.733200192451477,9.738654136657715,0.08651328831911087,2.0248055458068848, 0.48327958583831787
57,1178535551,0.38174438,-0.08849224,-0.009918021,0.9199686,-1.5090391635894775,-0.7126476764678955,9.785247802734375,-0.35447975993156433,1.9689570665359497, 0.19967018067836761
58,1178552218,0.38165873,-0.0887469,-0.009841657,0.9199804,-1.4937880039215088,-0.7057573795318604,9.751781463623047,-0.48614180088043213,1.9210867881774902, 0.1195920929312706
59,1178568885,0.38154092,-0.08894325,-0.009763005,0.92001116,-1.529765009880066,-0.7125166654586792,9.720433235168457,-0.3201715648174286,1.5618048906326294, 0.21712525188922882
60,1178585552,0.38142747,-0.08911471,-0.00967493,0.92004246,-1.5250126123428345,-0.7015102505683899,9.746500015258789,-0.19774284958839417,1.4272741079330444, 0.19041121006011963
61,1178602219,0.38132247,-0.089285284,-0.009650809,0.92006975,-1.5776042938232422,-0.7501938343048096,9.715736389160156,-0.612604558467865,1.251173973083496, 0.15291422605514526
62,1178618886,0.38126618,-0.08942945,-0.009634284,0.92007923,-1.5474457740783691,-0.7458515167236328,9.708052635192871,-0.6091212630271912,1.0447996854782104, 0.08507897704839706
63,1178635553,0.3811825,-0.08956536,-0.009638419,0.9201006,-1.520195722579956,-0.7402366995811462,9.683216094970703,-0.7196144461631775,0.934703528881073, 0.18809327483177185
64,1178652220,0.3810681,-0.089694515,-0.00964844,0.9201354,-1.5283266305923462,-0.6959653496742249,9.72593879699707,-0.7164640426635742,0.8903806209564209, 0.15537302196025848
65,1178668887,0.38096344,-0.08984753,-0.009673422,0.92016345,-1.540211796760559,-0.6720718145370483,9.722952842712402,-0.8831387162208557,1.003934621810913, 0.1134834736585617
66,1178685554,0.38085333,-0.090021655,-0.009700644,0.92019165,-1.5523980855941772,-0.698544979095459,9.678523063659668,-0.9761382937431335,1.1253643035888672, 0.21355226635932922
67,1178702221,0.3807305,-0.09014621,-0.009654131,0.9202308,-1.6047614812850952,-0.6717625856399536,9.67330265045166,-0.40588441491127014,0.9881827235221863, 0.4408009946346283
68,1178718888,0.3805571,-0.09028073,-0.009649825,0.92028946,-1.5744436979293823,-0.6858676671981812,9.693574905395508,-0.6712192296981812,0.953451931476593, 0.3728504478931427
69,1178735555,0.38040665,-0.090403385,-0.009637734,0.92033976,-1.567104458808899,-0.7341179251670837,9.73465633392334,-0.6278440356254578,0.8788036704063416, 0.4775679409503937
70,1178752222,0.3802752,-0.090526015,-0.009652684,0.92038196,-1.5583945512771606,-0.7356401085853577,9.75753402709961,-0.7972209453582764,0.8088554739952087, 0.36648574471473694
71,1178768889,0.38015187,-0.090656355,-0.009704791,0.92041945,-1.5347460508346558,-0.7509567141532898,9.704155921936035,-1.0497747659683228,0.7645070552825928, 0.27935129404067993
72,1178785556,0.38004598,-0.090778805,-0.009756022,0.9204505,-1.5282187461853027,-0.7196197509765625,9.712197303771973,-1.0062334537506104,0.728354811668396, 0.11536600440740585
73,1178802223,0.37996605,-0.090904206,-0.009792612,0.9204707,-1.5442938804626465,-0.7189587354660034,9.717059135437012,-0.9363747835159302,0.7828329801559448, 0.09315980225801468
74,1178818890,0.37991315,-0.091004364,-0.00983896,0.92048216,-1.5698552131652832,-0.6948340535163879,9.697619438171387,-0.9316363334655762,0.6005857586860657, -0.03697193041443825
75,1178835557,0.37985662,-0.09109468,-0.009877124,0.92049617,-1.5737624168395996,-0.7105680108070374,9.695836067199707,-0.8648896813392639,0.5554434061050415, 0.017077267169952393
76,1178852224,0.37982437,-0.09116915,-0.009912052,0.9205017,-1.5569571256637573,-0.6937230825424194,9.692914962768555,-0.8111798763275146,0.4597031772136688, -0.05144311115145683
77,1178868891,0.3797441,-0.09125503,-0.009959667,0.9205258,-1.5434105396270752,-0.7351593375205994,9.681400299072266,-0.8982246518135071,0.5164993405342102, -0.06241815164685249
78,1178885558,0.37959853,-0.09135659,-0.01000492,0.9205753,-1.534950613975525,-0.7536072134971619,9.664329528808594,-0.9030653238296509,0.6377241611480713, 0.03653011471033096
79,1178902225,0.3795192,-0.091453806,-0.00997514,0.9205987,-1.5627397298812866,-0.7421441078186035,9.70652961730957,-0.44639092683792114,0.7922711968421936, 0.013593940064311028
80,1178918892,0.37944657,-0.09158921,-0.009928182,0.9206157,-1.5777300596237183,-0.6752842664718628,9.69809627532959,-0.4316764175891876,1.0862537622451782, -0.057500507682561874
81,1178935559,0.37938446,-0.09176064,-0.00994067,0.92062414,-1.5804893970489502,-0.6639043092727661,9.658744812011719,-0.9126061201095581,1.1603385210037231, -0.1361699253320694
82,1178952226,0.37928003,-0.09193265,-0.009939431,0.92065006,-1.5902280807495117,-0.681714653968811,9.655451774597168,-0.8306199312210083,1.2017288208007812, -0.004482222255319357
83,1178968893,0.3791989,-0.09208236,-0.0098821875,0.920669,-1.582818627357483,-0.6709895730018616,9.684194564819336,-0.4496181309223175,1.1900876760482788, 0.09444043040275574
84,1178985560,0.37910548,-0.09227926,-0.0098248385,0.9206884,-1.5851773023605347,-0.7045115232467651,9.699972152709961,-0.5932285189628601,1.4852739572525024, 0.20218025147914886
85,1179002227,0.37897617,-0.09249894,-0.009724738,0.92072076,-1.5908292531967163,-0.7010968923568726,9.684569358825684,-0.37623777985572815,1.748150110244751, 0.293988972902298
86,1179018894,0.37885767,-0.092729524,-0.009632686,0.92074734,-1.6346405744552612,-0.7148849964141846,9.655454635620117,-0.47680607438087463,1.7883617877960205, 0.34157735109329224
87,1179035561,0.3787144,-0.09291923,-0.009501545,0.9207884,-1.6114411354064941,-0.6834604740142822,9.704113960266113,-0.11867644637823105,1.6288973093032837, 0.4197985827922821
88,1179052228,0.37860978,-0.093128495,-0.009412547,0.92081124,-1.5993738174438477,-0.6829996705055237,9.694570541381836,-0.44927239418029785,1.6410890817642212, 0.270847886800766
89,1179068895,0.37846825,-0.09333306,-0.0093527,0.9208493,-1.6061313152313232,-0.691840648651123,9.701668739318848,-0.6053561568260193,1.5482683181762695, 0.25304707884788513
90,1179085562,0.37837115,-0.09349243,-0.009281413,0.92087376,-1.608577013015747,-0.6928718686103821,9.72832202911377,-0.44445714354515076,1.2774525880813599, 0.23595058917999268
91,1179102229,0.3782844,-0.093652315,-0.0092213815,0.9208937,-1.6351407766342163,-0.6728085875511169,9.744180679321289,-0.5097823143005371,1.2599204778671265, 0.10784866660833359
92,1179118896,0.37822056,-0.09378527,-0.009176963,0.9209069,-1.6587023735046387,-0.6679245233535767,9.717658996582031,-0.5630310773849487,1.0381146669387817, 0.1044933944940567
93,1179135563,0.37812898,-0.093875274,-0.009171396,0.92093545,-1.6299431324005127,-0.6979622840881348,9.708044052124023,-0.7026076316833496,0.6609421372413635, 0.18044787645339966
94,1179152230,0.37803683,-0.09392815,-0.009162948,0.9209679,-1.6161774396896362,-0.7132423520088196,9.732708930969238,-0.604523777961731,0.42538216710090637, 0.2532007396221161
95,1179168897,0.37794945,-0.09399641,-0.009180763,0.92099667,-1.6228783130645752,-0.6801111698150635,9.741443634033203,-0.783159613609314,0.47380298376083374, 0.03156125172972679
96,1179185564,0.37789774,-0.094082035,-0.009248034,0.92100835,-1.633264183998108,-0.6870824694633484,9.708137512207031,-1.1560291051864624,0.45479828119277954, -0.10950709134340286
97,1179202231,0.37783983,-0.09413184,-0.009314378,0.92102635,-1.6482675075531006,-0.6771845817565918,9.651277542114258,-1.0715969800949097,0.22341316938400269, -0.025894436985254288
98,1179218898,0.3777974,-0.094141066,-0.009377369,0.92104226,-1.6475776433944702,-0.6531673669815063,9.679452896118164,-0.9477466940879822,-0.02686772309243679, -0.10654882341623306
99,1179235565,0.3777601,-0.094186395,-0.009442018,0.9210523,-1.595708966255188,-0.6671209335327148,9.710306167602539,-1.040579915046692,0.2093389928340912, -0.2559092938899994
100,1179252232,0.37768993,-0.09423203,-0.009497581,0.9210757,-1.6351039409637451,-0.7002472877502441,9.715975761413574,-0.9950661659240723,0.23652686178684235, -0.10799594223499298
101,1179268899,0.37760076,-0.094271444,-0.009554482,0.9211077,-1.6358110904693604,-0.7010203003883362,9.680242538452148,-0.9924920201301575,0.1938561052083969, -0.04653826728463173
102,1179285566,0.37749556,-0.09427443,-0.009595966,0.92115,-1.6324172019958496,-0.7293065786361694,9.675559997558594,-0.8108339905738831,-0.0019593711476773024, 0.05704588070511818
103,1179302233,0.3774468,-0.09426704,-0.009626039,0.9211705,-1.6466718912124634,-0.6718370914459229,9.667916297912598,-0.7135314345359802,-0.0382525697350502, -0.15204979479312897
104,1179318900,0.37739506,-0.09427931,-0.00970926,0.92118955,-1.6340636014938354,-0.6669579148292542,9.712483406066895,-1.1010771989822388,-0.04669195041060448, -0.23686623573303223
105,1179335567,0.37736672,-0.0943103,-0.009814434,0.9211969,-1.5987228155136108,-0.6696264743804932,9.693912506103516,-1.3103073835372925,0.010213064029812813, -0.27689892053604126
106,1179352234,0.3773323,-0.09432305,-0.009889609,0.92120886,-1.6025373935699463,-0.6679471135139465,9.694583892822266,-1.0811247825622559,-0.026150565594434738, -0.2322303056716919
107,1179368901,0.3772662,-0.094350986,-0.009931545,0.92123264,-1.6171371936798096,-0.6658098101615906,9.7003755569458,-0.9141940474510193,0.16158410906791687, -0.11807453632354736
108,1179385568,0.37721354,-0.094410636,-0.009990603,0.9212475,-1.6421416997909546,-0.6954680681228638,9.6927490234375,-1.1246922016143799,0.3162079453468323, -0.1314699798822403
109,1179402235,0.37710536,-0.0944447,-0.010024294,0.92128795,-1.6329116821289062,-0.7547702789306641,9.67527961730957,-0.8886966109275818,0.22529569268226624, 0.01507947500795126
110,1179418902,0.37705955,-0.09447209,-0.010042725,0.9213037,-1.6298637390136719,-0.6961696147918701,9.700827598571777,-0.78614342212677,0.21767592430114746, -0.16545802354812622
111,1179435569,0.37694505,-0.094493,-0.010080218,0.92134786,-1.6184227466583252,-0.6774700880050659,9.710424423217773,-0.8571033477783203,0.14857284724712372, -0.14763158559799194
112,1179452236,0.376891,-0.09451101,-0.010140094,0.9213675,-1.6057294607162476,-0.6520184874534607,9.740581512451172,-1.0310777425765991,0.0570714995265007, -0.21303364634513855
113,1179468903,0.3768177,-0.09452204,-0.010198863,0.9213957,-1.6062623262405396,-0.6731131076812744,9.735054016113281,-1.0298610925674438,0.010520417243242264, -0.05666809901595116
114,1179485570,0.37674788,-0.09453357,-0.010248373,0.9214226,-1.6175129413604736,-0.660517156124115,9.709012031555176,-0.9728471040725708,0.04512317106127739, -0.11845873296260834
115,1179502237,0.37666962,-0.09455385,-0.010314464,0.9214517,-1.6288625001907349,-0.6767299175262451,9.687597274780273,-1.114485502243042,0.057737432420253754, -0.08196064084768295
116,1179518904,0.3765812,-0.09458055,-0.0103639355,0.92148453,-1.6428643465042114,-0.7100625038146973,9.669845581054688,-1.0478283166885376,0.13476760685443878, 0.04202403500676155
117,1179535571,0.37648612,-0.09458943,-0.010371108,0.92152244,-1.605291485786438,-0.7352182269096375,9.672886848449707,-0.7320749163627625,0.1329619139432907, 0.058083195239305496
118,1179552238,0.37640896,-0.09461978,-0.01037399,0.92155087,-1.6070259809494019,-0.67591392993927,9.698938369750977,-0.7753860950469971,0.27775052189826965, 0.046403806656599045
119,1179568905,0.3763298,-0.094660096,-0.010389457,0.92157876,-1.6205599308013916,-0.6702617406845093,9.69314956665039,-0.8907457590103149,0.31061163544654846, 0.04783812537789345
120,1179585572,0.37626213,-0.09470952,-0.010439271,0.9216008,-1.6236543655395508,-0.657723069190979,9.666526794433594,-1.1382282972335815,0.28283461928367615, -0.03772750496864319
121,1179602239,0.37620258,-0.094768174,-0.010464019,0.9216188,-1.6160165071487427,-0.6688802242279053,9.691832542419434,-1.0093964338302612,0.40904122591018677, -0.07777296006679535
122,1179618906,0.376087,-0.09487612,-0.010465769,0.9216549,-1.6392102241516113,-0.6726573705673218,9.725040435791016,-0.9668794274330139,0.8034256100654602, -0.05158397927880287
123,1179635573,0.37599516,-0.09491502,-0.010465077,0.9216882,-1.6451576948165894,-0.666524350643158,9.648056983947754,-0.8108980655670166,0.35229626297950745, 0.04025675728917122
124,1179652240,0.3759194,-0.09493939,-0.010456134,0.92171687,-1.6161381006240845,-0.7164287567138672,9.714692115783691,-0.7546781301498413,0.26622480154037476, 0.12344679981470108
125,1179668907,0.37579152,-0.09496569,-0.010463053,0.92176616,-1.6370941400527954,-0.723605751991272,9.679222106933594,-0.8259326219558716,0.26111507415771484, 0.0859370082616806
126,1179685574,0.37570634,-0.09496924,-0.010465261,0.9218006,-1.6340620517730713,-0.6898360848426819,9.693252563476562,-0.7667800784111023,0.11464883387088776, 0.06843072921037674
127,1179702241,0.37564036,-0.095010936,-0.010474286,0.92182297,-1.6437441110610962,-0.6432128548622131,9.699193000793457,-0.8945491909980774,0.3537049889564514, -0.1419711858034134
128,1179718908,0.37558177,-0.09504795,-0.0105027715,0.92184263,-1.642736554145813,-0.6610186100006104,9.686556816101074,-1.0240980386734009,0.2692983150482178, -0.13623394072055817
129,1179735575,0.37551942,-0.09506591,-0.010514921,0.92186606,-1.618510127067566,-0.6495321989059448,9.711050987243652,-0.8737131953239441,0.1930236965417862, -0.15461106598377228
130,1179752242,0.37545624,-0.09509044,-0.010527366,0.92188925,-1.6077104806900024,-0.6726745367050171,9.671667098999023,-0.9143477082252502,0.229841947555542, -0.08634041249752045
131,1179768909,0.37538457,-0.095125824,-0.010529746,0.9219147,-1.6281795501708984,-0.6965221762657166,9.693960189819336,-0.8974305987358093,0.3221885859966278, 0.005948550533503294
132,1179785576,0.37529156,-0.095173806,-0.010544608,0.9219475,-1.6370351314544678,-0.714996337890625,9.677263259887695,-1.0366100072860718,0.36059483885765076, 0.19228094816207886
133,1179802243,0.37520424,-0.09520654,-0.010546295,0.92197955,-1.650488257408142,-0.6900016665458679,9.642720222473145,-0.904742956161499,0.30505362153053284, 0.09912754595279694
134,1179818910,0.375121,-0.095233925,-0.010521191,0.9220109,-1.6381747722625732,-0.6942383646965027,9.692870140075684,-0.7257869839668274,0.33997657895088196, 0.08837021887302399
135,1179835577,0.37505215,-0.095248595,-0.010490425,0.9220378,-1.670217514038086,-0.6191810369491577,9.745469093322754,-0.6593348979949951,0.2760600447654724, 0.012735914438962936
136,1179852244,0.37496248,-0.09525799,-0.010513411,0.922073,-1.6515617370605469,-0.6629988551139832,9.700106620788574,-0.9855254292488098,0.10991048812866211, -0.01859482005238533
137,1179868911,0.37489146,-0.09520963,-0.0104899,0.9221071,-1.659599781036377,-0.6324880123138428,9.715646743774414,-0.5508010983467102,-0.1409466713666916, -0.0464102104306221
138,1179885578,0.37482548,-0.09513035,-0.010492855,0.9221421,-1.6357178688049316,-0.6482340693473816,9.751888275146484,-0.647399365901947,-0.4065759778022766, -0.09293567389249802
139,1179902245,0.3747817,-0.09504955,-0.010551773,0.92216754,-1.6202882528305054,-0.646125853061676,9.725687980651855,-1.0228561162948608,-0.5666041374206543, -0.13153401017189026
140,1179918912,0.37469602,-0.094939955,-0.010615706,0.9222129,-1.6352741718292236,-0.7189604043960571,9.670501708984375,-0.9716178178787231,-0.7522450089454651, -0.07703019678592682
141,1179935579,0.37463695,-0.094801016,-0.010659555,0.92225075,-1.6190110445022583,-0.7346324920654297,9.691838264465332,-0.7746304273605347,-0.889132022857666, -0.15440616011619568
142,1179952246,0.37461582,-0.09467155,-0.010712419,0.9222719,-1.6374160051345825,-0.7335489392280579,9.674965858459473,-0.8408520817756653,-0.8397635221481323, -0.4197152853012085
143,1179968913,0.37467295,-0.094580166,-0.010784075,0.92225736,-1.6343048810958862,-0.7057179808616638,9.663622856140137,-1.0787813663482666,-0.6535335779190063, -0.6372312307357788
144,1179985580,0.3746828,-0.094492756,-0.01085461,0.92226154,-1.6233521699905396,-0.6857503652572632,9.641465187072754,-1.0502103567123413,-0.6054586172103882, -0.6722308993339539
145,1180002247,0.37466162,-0.094434515,-0.010890648,0.92227554,-1.6139076948165894,-0.6484207510948181,9.651336669921875,-0.9176645278930664,-0.33228635787963867, -0.5137651562690735
146,1180018914,0.37463632,-0.09441385,-0.010884333,0.922288,-1.6064891815185547,-0.5890504717826843,9.658308982849121,-0.7729656100273132,0.008010371588170528, -0.3739966154098511
147,1180035581,0.37456933,-0.09444699,-0.0108781615,0.9223119,-1.596943736076355,-0.6614820957183838,9.646856307983398,-0.9446603059768677,0.34293481707572937, -0.11795927584171295
148,1180052248,0.37450197,-0.09448033,-0.01083908,0.92233634,-1.5971827507019043,-0.6866728663444519,9.672511100769043,-0.7644366025924683,0.4192606508731842, 0.020996009930968285
149,1180068915,0.37442532,-0.09454014,-0.010797963,0.92236185,-1.6086921691894531,-0.684433102607727,9.72426986694336,-0.8183257579803467,0.6003425121307373, 0.004731946159154177
150,1180085582,0.37434623,-0.094602786,-0.010799536,0.9223875,-1.6445324420928955,-0.6521099209785461,9.675029754638672,-1.1004880666732788,0.5120427012443542, -0.030850498005747795
151,1180102249,0.37428614,-0.09465431,-0.010793541,0.9224067,-1.6535165309906006,-0.6750245690345764,9.699281692504883,-1.0452797412872314,0.45204493403434753, -0.021988501772284508
152,1180118916,0.37421,-0.0946803,-0.010775573,0.9224351,-1.6551393270492554,-0.6559295058250427,9.723908424377441,-0.9047557711601257,0.3210615813732147, 0.018306676298379898
153,1180135583,0.374141,-0.09469691,-0.010741664,0.92246175,-1.6249358654022217,-0.6459237933158875,9.751957893371582,-0.7865915298461914,0.3013654053211212, -0.00455906055867672
154,1180152250,0.37407106,-0.094705924,-0.010742887,0.9224893,-1.613948941230774,-0.6431984305381775,9.747026443481445,-0.9851413369178772,0.17118890583515167, -0.10341127961874008
155,1180168917,0.37399128,-0.094702534,-0.010769099,0.9225216,-1.6000561714172363,-0.6952195763587952,9.687362670898438,-1.1259597539901733,0.026720447465777397, -0.05100769177079201
156,1180185584,0.37393722,-0.09466637,-0.010774202,0.92254716,-1.6022348403930664,-0.6952359676361084,9.688265800476074,-0.932532787322998,-0.13783475756645203, -0.01493220403790474
157,1180202251,0.37387595,-0.09463972,-0.010773539,0.92257476,-1.631071925163269,-0.6940662860870361,9.692300796508789,-0.9155772924423218,-0.05474714934825897, -0.04420752078294754
158,1180218918,0.3738147,-0.09464221,-0.010769959,0.9225994,-1.654371738433838,-0.6572718620300293,9.713430404663086,-0.968224048614502,0.14464130997657776, -0.10241237282752991
159,1180235585,0.37376285,-0.09465098,-0.010771331,0.9226195,-1.6331751346588135,-0.6555087566375732,9.645794868469238,-1.02681303024292,0.1693575531244278, -0.12432403862476349
160,1180252252,0.37370676,-0.09462197,-0.010758601,0.92264533,-1.6157820224761963,-0.6679444909095764,9.677098274230957,-0.853402316570282,-0.04050648584961891, -0.05611742287874222
161,1180268919,0.37364754,-0.094616614,-0.010724669,0.92267025,-1.6154979467391968,-0.6453230381011963,9.705890655517578,-0.7813153862953186,0.16908861696720123, -0.0648769661784172
162,1180285586,0.37360406,-0.09465471,-0.010710949,0.922684,-1.6187077760696411,-0.6582804918289185,9.689927101135254,-1.0217931270599365,0.4010500907897949, -0.19119881093502045
163,1180302253,0.37352493,-0.09467497,-0.010685428,0.9227143,-1.6344218254089355,-0.6842325329780579,9.663500785827637,-0.9146807193756104,0.31386443972587585, -0.005289022345095873
164,1180318920,0.3734602,-0.09469865,-0.010655971,0.92273843,-1.6456488370895386,-0.6917356848716736,9.702632904052734,-0.8837149143218994,0.3564455211162567, -0.17302657663822174
165,1180335587,0.37341765,-0.094680734,-0.010637487,0.92275774,-1.6315436363220215,-0.6657264828681946,9.714673042297363,-0.8708445429801941,0.050322551280260086, -0.14428913593292236
166,1180352254,0.37338543,-0.094664365,-0.010641396,0.9227724,-1.6052684783935547,-0.6912606954574585,9.715087890625,-1.0207300186157227,0.004693526774644852, -0.21478809416294098
167,1180368921,0.37334368,-0.094637476,-0.010640457,0.92279196,-1.5759001970291138,-0.6685224175453186,9.715459823608398,-0.9673019647598267,-0.04808783903717995, -0.17569029331207275
168,1180385588,0.37328792,-0.09461942,-0.010662275,0.92281616,-1.6224579811096191,-0.6618151664733887,9.680126190185547,-1.131108045578003,-0.04126206040382385, -0.19091707468032837
169,1180402255,0.37326425,-0.094606906,-0.010660945,0.92282695,-1.5863558053970337,-0.6330522298812866,9.683006286621094,-1.0223437547683716,0.04449566826224327, -0.19680799543857574
170,1180418922,0.37320918,-0.0945763,-0.010628723,0.9228528,-1.660919427871704,-0.6578469276428223,9.68596076965332,-0.8010499477386475,0.002593285869807005, 0.024005500599741936
171,1180435589,0.3731781,-0.09456271,-0.010611413,0.92286706,-1.6512610912322998,-0.6508031487464905,9.707911491394043,-0.9497188329696655,0.06968574970960617, -0.056642480194568634
172,1180452256,0.37310994,-0.094515875,-0.010581784,0.9228996,-1.650891661643982,-0.7053139805793762,9.668180465698242,-0.8042899966239929,-0.11938077956438065, 0.16486254334449768
173,1180468923,0.37307644,-0.094451606,-0.0105626425,0.9229201,-1.6453720331192017,-0.6719526648521423,9.726959228515625,-0.8058011531829834,-0.24706009030342102, -0.10366740077733994
174,1180485590,0.37305477,-0.09442058,-0.010604265,0.92293143,-1.6186883449554443,-0.6907580494880676,9.698453903198242,-1.2847970724105835,-0.1910451352596283, -0.18179896473884583
175,1180502257,0.37301528,-0.094375454,-0.010656609,0.92295146,-1.618945598602295,-0.6715647578239441,9.680841445922852,-1.3027899265289307,-0.29892581701278687, -0.22065339982509613
176,1180518924,0.37297326,-0.09431685,-0.010660466,0.9229744,-1.617078185081482,-0.6477117538452148,9.679977416992188,-0.9584784507751465,-0.2573435604572296, -0.21445512771606445
177,1180535591,0.37292263,-0.09430423,-0.010688221,0.92299587,-1.633280634880066,-0.6247119903564453,9.702073097229004,-1.2269635200500488,-0.019081460312008858, -0.25222107768058777
178,1180552258,0.37288594,-0.09430181,-0.010710677,0.92301065,-1.6025367975234985,-0.6734265089035034,9.688576698303223,-1.2414219379425049,0.05194895714521408, -0.22033323347568512
179,1180568925,0.37290815,-0.094306424,-0.010696603,0.9230014,-1.5941988229751587,-0.688267707824707,9.665091514587402,-1.0792934894561768,0.16625842452049255, -0.14444281160831451
180,1180585592,0.37284592,-0.09430315,-0.010650263,0.9230274,-1.6092071533203125,-0.7072443962097168,9.687106132507324,-0.8276231288909912,0.21592143177986145, 0.02141861990094185
181,1180602259,0.37277344,-0.09431218,-0.010630104,0.9230559,-1.6286448240280151,-0.662899374961853,9.691068649291992,-1.0028653144836426,0.24234098196029663, -0.1079062968492508
182,1180618926,0.37270805,-0.09430895,-0.010616805,0.92308277,-1.6121536493301392,-0.659946620464325,9.699639320373535,-1.0441914796829224,0.1327570080757141, 0.006857800763100386
183,1180635593,0.37265107,-0.09431709,-0.01058919,0.92310524,-1.6053693294525146,-0.6644220948219299,9.7116060256958,-0.9849491715431213,0.24458205699920654, -0.03393682464957237
184,1180652260,0.37262782,-0.09431673,-0.010539131,0.92311525,-1.6199300289154053,-0.6356692910194397,9.702414512634277,-0.823179304599762,0.24990950524806976, -0.15637832880020142
185,1180668927,0.37262234,-0.094312824,-0.01052599,0.9231181,-1.6351020336151123,-0.6301832795143127,9.700801849365234,-1.0504920482635498,0.13558723032474518, -0.2721477448940277
186,1180685594,0.3725727,-0.094293736,-0.010516476,0.92314017,-1.649598479270935,-0.6847295761108398,9.690759658813477,-1.0295664072036743,0.03440425544977188, -0.17077267169952393
187,1180702261,0.37252632,-0.09426233,-0.010478778,0.92316246,-1.6391104459762573,-0.6989844441413879,9.688596725463867,-0.8400325179100037,0.016641851514577866, -0.059856876730918884
188,1180718928,0.37249595,-0.09422261,-0.01043143,0.9231794,-1.638289213180542,-0.6580328941345215,9.700204849243164,-0.7487232685089111,-0.0069410414434969425, -0.17556224763393402
189,1180735595,0.3724651,-0.09419834,-0.010417725,0.9231944,-1.6222901344299316,-0.6591104865074158,9.684609413146973,-1.0281962156295776,-0.006044596899300814, -0.07197169214487076
190,1180752262,0.37244704,-0.094180234,-0.010385882,0.9232039,-1.6024665832519531,-0.6470887660980225,9.69931697845459,-0.9269365072250366,0.08314522355794907, -0.1441226452589035
191,1180768929,0.37241653,-0.09418326,-0.01036079,0.9232162,-1.5843061208724976,-0.6621600389480591,9.710372924804688,-1.028388261795044,0.20298704504966736, -0.1095455065369606
192,1180785596,0.37241104,-0.094188526,-0.010320204,0.92321837,-1.5893628597259521,-0.6365746855735779,9.722904205322266,-0.9474777579307556,0.2551921308040619, -0.14741387963294983
193,1180802263,0.37235692,-0.0942141,-0.010307027,0.9232378,-1.6298158168792725,-0.6718456149101257,9.70136833190918,-1.174483060836792,0.31978097558021545, -0.013408247381448746
194,1180818930,0.372289,-0.09423084,-0.010273157,0.9232638,-1.6280019283294678,-0.6889573335647583,9.68481159210205,-1.0256606340408325,0.3148249387741089, 0.0657413974404335
195,1180835597,0.37224498,-0.0942257,-0.010220403,0.9232826,-1.6365143060684204,-0.710629940032959,9.694268226623535,-0.8826776146888733,0.20602214336395264, 0.1735580414533615
196,1180852264,0.3722071,-0.09422652,-0.010178472,0.9232983,-1.6294260025024414,-0.6770581007003784,9.715614318847656,-0.9455183744430542,0.22788256406784058, 0.013760422356426716
197,1180868931,0.37216926,-0.09423834,-0.010146471,0.9233127,-1.6104800701141357,-0.6594399809837341,9.66934585571289,-1.0213831663131714,0.2828602194786072, -0.10145189613103867
198,1180885598,0.37214142,-0.09422938,-0.010144519,0.9233249,-1.608101487159729,-0.6549356579780579,9.663239479064941,-1.1543898582458496,0.07762568444013596, -0.20038093626499176
199,1180902265,0.37211278,-0.09420712,-0.010106214,0.92333907,-1.6162937879562378,-0.6606133580207825,9.694205284118652,-0.8933837413787842,0.08591139316558838, -0.17001710832118988
200,1180918932,0.3720947,-0.09419718,-0.010055245,0.92334795,-1.6419214010238647,-0.6281484365463257,9.716329574584961,-0.8325023651123047,0.20543305575847626, -0.29125475883483887
201,1180935599,0.37208492,-0.094203174,-0.010030095,0.9233515,-1.6386966705322266,-0.6472451090812683,9.668869018554688,-1.0805869102478027,0.2211848646402359, -0.1196369156241417
202,1180952266,0.37201682,-0.0942054,-0.01000024,0.92337906,-1.6196682453155518,-0.6887017488479614,9.676576614379883,-1.035367727279663,0.21289274096488953, 0.04747314006090164
203,1180968933,0.37197116,-0.094207,-0.0099522695,0.9233978,-1.5959607362747192,-0.6713573932647705,9.709508895874023,-0.9260783791542053,0.2522914409637451, 0.012787139974534512
204,1180985600,0.3719566,-0.094247684,-0.009912537,0.9234,-1.607286810874939,-0.6802569627761841,9.67762279510498,-1.1184682846069336,0.46399328112602234, 0.10376344621181488
205,1181002267,0.3719181,-0.09424077,-0.0098404605,0.923417,-1.6865358352661133,-0.6157227754592896,9.734954833984375,-0.7540121674537659,0.2624853551387787, -0.0028045903891324997
206,1181018934,0.3718901,-0.0942405,-0.009829263,0.9234285,-1.692337155342102,-0.6493725180625916,9.69491958618164,-1.1772109270095825,0.13964684307575226, -0.00038419049815274775
207,1181035601,0.37186018,-0.09419005,-0.009787595,0.92344594,-1.666972279548645,-0.6244726777076721,9.699119567871094,-0.8256510496139526,-0.09087386727333069, -0.1526901125907898
208,1181052268,0.3719021,-0.09413492,-0.00978356,0.9234348,-1.6306569576263428,-0.6595655679702759,9.757761001586914,-1.0821493864059448,-0.23179493844509125, -0.2993612289428711
209,1181068935,0.37193602,-0.09410476,-0.009801865,0.92342395,-1.5784724950790405,-0.6993404626846313,9.71510124206543,-1.2802635431289673,-0.12254397571086884, -0.35237953066825867
210,1181085602,0.37190014,-0.09406891,-0.00979673,0.9234422,-1.572119116783142,-0.696723461151123,9.671403884887695,-1.1096572875976562,-0.09310215711593628, -0.11629445850849152
211,1181102269,0.3718669,-0.094052024,-0.009767921,0.92345756,-1.610051155090332,-0.6814085245132446,9.698707580566406,-1.017759084701538,0.08694872260093689, -0.05951111763715744
212,1181118936,0.3718611,-0.09404824,-0.009747622,0.92346054,-1.6398372650146484,-0.6829228401184082,9.684364318847656,-1.1225661039352417,0.14179830253124237, -0.07495556771755219
213,1181135603,0.37185186,-0.09404869,-0.009732395,0.92346436,-1.6599609851837158,-0.6457305550575256,9.68878173828125,-1.1416475772857666,0.1680513173341751, -0.21332816779613495
214,1181152270,0.37185788,-0.09404838,-0.009706263,0.9234622,-1.650546669960022,-0.6472238302230835,9.672635078430176,-1.086657166481018,0.1824072152376175, -0.18429617583751678
215,1181168937,0.37188846,-0.09404689,-0.009660793,0.9234506,-1.6449719667434692,-0.629391074180603,9.715331077575684,-0.9666360020637512,0.22124889492988586, -0.2439737468957901
216,1181185604,0.37188694,-0.094054066,-0.009642079,0.92345065,-1.6422618627548218,-0.6524495482444763,9.68435001373291,-1.1595380306243896,0.20908285677433014, -0.15986165404319763
217,1181202271,0.3719193,-0.0940443,-0.009606789,0.92343897,-1.6182100772857666,-0.6848564147949219,9.699212074279785,-1.036392092704773,0.12993963062763214, -0.1343258023262024
218,1181218938,0.37189752,-0.09403652,-0.009551002,0.92344916,-1.610317349433899,-0.7194367051124573,9.684732437133789,-0.9016053676605225,0.20065629482269287, 0.01887015625834465
219,1181235605,0.37188378,-0.09404802,-0.009522183,0.9234538,-1.627996563911438,-0.6632842421531677,9.714834213256836,-1.1059434413909912,0.2641245424747467, -0.120149165391922
220,1181252272,0.37186888,-0.09403902,-0.009502147,0.92346084,-1.637263298034668,-0.6676371693611145,9.680985450744629,-1.1208117008209229,0.10524899512529373, -0.06010020151734352
221,1181268939,0.371911,-0.094041444,-0.009477743,0.92344385,-1.6358437538146973,-0.661630392074585,9.704385757446289,-1.1340792179107666,0.183649480342865, -0.20755250751972198
222,1181285606,0.37190998,-0.09402094,-0.00942559,0.9234469,-1.649682641029358,-0.6397131681442261,9.692079544067383,-0.8902461528778076,0.1125614121556282, -0.08795400708913803
223,1181302273,0.37190497,-0.094016775,-0.009387826,0.92344964,-1.6502493619918823,-0.6297717094421387,9.68684196472168,-1.026646614074707,0.17934651672840118, -0.08192222565412521
224,1181318940,0.3718728,-0.09400697,-0.009348,0.9234641,-1.6331608295440674,-0.6418320536613464,9.6826171875,-0.9818115234375,0.1573452204465866, -0.09562501311302185
225,1181335607,0.37178403,-0.0940126,-0.009312529,0.9234996,-1.6234830617904663,-0.680242657661438,9.666401863098145,-1.0425008535385132,0.24946126341819763, 0.05736603960394859
226,1181352274,0.37176862,-0.09399056,-0.009241856,0.92350876,-1.61566960811615,-0.6976107358932495,9.694350242614746,-0.782788097858429,0.14452606439590454, 0.014375126920640469
227,1181368941,0.37180308,-0.09398885,-0.009183402,0.92349577,-1.619791865348816,-0.6802937388420105,9.700828552246094,-0.947208821773529,0.22620496153831482, 0.0300372913479805
228,1181385608,0.37179732,-0.09399569,-0.00912355,0.92349803,-1.6313382387161255,-0.6613397002220154,9.689013481140137,-0.9157564640045166,0.30854976177215576, -0.08920902758836746
229,1181402275,0.37179193,-0.093992755,-0.009098768,0.92350054,-1.6214817762374878,-0.6653321981430054,9.7024564743042,-1.1187498569488525,0.1539643406867981, -0.08454751968383789
230,1181418942,0.37178338,-0.093991354,-0.009048653,0.92350465,-1.6338443756103516,-0.6359911561012268,9.70549201965332,-0.9583631753921509,0.230661541223526, -0.08029580861330032
231,1181435609,0.37180144,-0.09396648,-0.0090054795,0.9235003,-1.635776400566101,-0.6479306221008301,9.703902244567871,-0.9582095742225647,0.05580367520451546, -0.09858328849077225
232,1181452276,0.37179664,-0.09395728,-0.008977697,0.92350346,-1.6351038217544556,-0.6358947157859802,9.696429252624512,-1.0792934894561768,0.12617453932762146, -0.13622112572193146
233,1181468943,0.3718415,-0.09393267,-0.008930796,0.9234883,-1.6080535650253296,-0.7264110445976257,9.675092697143555,-0.9697864651679993,0.051014091819524765, -0.014496786519885063
234,1181485610,0.37181997,-0.09392238,-0.0088794315,0.92349863,-1.637410044670105,-0.6956043839454651,9.686281204223633,-0.9252203106880188,0.18023015558719635, -0.06421103328466415
235,1181502277,0.37182328,-0.09390902,-0.008825292,0.92349917,-1.6239839792251587,-0.6975780129432678,9.64610767364502,-0.9214808940887451,0.15623106062412262, -0.019824229180812836
236,1181518944,0.37182793,-0.093907386,-0.008780587,0.9234979,-1.64460289478302,-0.6379826664924622,9.69178295135498,-1.0078468322753906,0.20858341455459595, -0.04780610278248787
237,1181535611,0.37179172,-0.09393453,-0.008752301,0.92350996,-1.6293795108795166,-0.6421971917152405,9.682164192199707,-1.1580654382705688,0.36506420373916626, -0.0837407186627388
238,1181552278,0.3717963,-0.093965076,-0.008711392,0.9235054,-1.6088443994522095,-0.66079181432724,9.682173728942871,-1.1203891038894653,0.40289419889450073, -0.038316600024700165
239,1181568945,0.37185398,-0.09407803,-0.008614639,0.9234716,-1.6154799461364746,-0.6363323926925659,9.792842864990234,-1.0194237232208252,1.0540456771850586, 0.03239366039633751
240,1181585612,0.37186345,-0.0941437,-0.008565009,0.9234616,-1.6587826013565063,-0.6429761648178101,9.590227127075195,-1.1641356945037842,0.6499031186103821, -0.018172211945056915
241,1181602279,0.3718455,-0.09412961,-0.008454574,0.9234713,-1.672041416168213,-0.7331403493881226,9.715575218200684,-0.5856856107711792,0.285639226436615, 0.20584285259246826
242,1181618946,0.37182784,-0.094123006,-0.00839291,0.9234796,-1.6811147928237915,-0.6811465620994568,9.734724998474121,-0.8750194311141968,0.22642266750335693, -0.04387454688549042
243,1181635613,0.3719073,-0.09411174,-0.008377462,0.9234489,-1.6370512247085571,-0.656166136264801,9.712910652160645,-1.1930140256881714,0.059491902589797974, -0.22049975395202637
244,1181652280,0.37197575,-0.094097815,-0.008384123,0.9234227,-1.6252479553222656,-0.6769662499427795,9.714468002319336,-1.3007153272628784,-0.0006915428675711155, -0.34766677021980286
245,1181668947,0.37199092,-0.09405625,-0.008368123,0.9234209,-1.630976676940918,-0.6677345037460327,9.666280746459961,-1.0767707824707031,-0.1154620423913002, -0.17966029047966003
246,1181685614,0.3720014,-0.09400103,-0.0083353175,0.9234226,-1.6428523063659668,-0.6591051816940308,9.684562683105469,-0.925335705280304,-0.15563558042049408, -0.20290382206439972
247,1181702281,0.37207434,-0.09397847,-0.008311575,0.9233957,-1.6596893072128296,-0.6365945339202881,9.689745903015137,-1.0953270196914673,0.01641133800148964, -0.2814067006111145
248,1181718948,0.3720541,-0.09396415,-0.008313219,0.9234054,-1.6235864162445068,-0.703682005405426,9.673358917236328,-1.2520896196365356,0.015835050493478775, -0.11035231500864029
249,1181735615,0.37211454,-0.093951315,-0.008259815,0.92338276,-1.642865538597107,-0.6684743762016296,9.68905258178711,-0.9502438902854919,0.14497427642345428, -0.10692021250724792
250,1181752282,0.37212998,-0.093932256,-0.008205675,0.92337906,-1.629813551902771,-0.6540458798408508,9.651083946228027,-0.9226334095001221,0.1092829778790474, 0.02362130954861641
251,1181768949,0.37218454,-0.09392352,-0.008143923,0.9233584,-1.6050732135772705,-0.6636042594909668,9.713861465454102,-0.8970208168029785,0.19767242670059204, -0.1435079574584961
252,1181785616,0.3722373,-0.09393226,-0.008109213,0.92333657,-1.6343557834625244,-0.6767394542694092,9.696306228637695,-1.1331186294555664,0.23232637345790863, -0.04190237447619438
253,1181802283,0.37232763,-0.09393051,-0.00805861,0.92330074,-1.6447474956512451,-0.6706344485282898,9.687878608703613,-1.0026475191116333,0.20698262751102448, -0.18050551414489746
254,1181818950,0.37234882,-0.09393429,-0.008003554,0.9232923,-1.6518481969833374,-0.6580157279968262,9.680809020996094,-0.948591947555542,0.2718852162361145, -0.15277975797653198
255,1181835617,0.3723869,-0.093939535,-0.007957947,0.9232768,-1.6616183519363403,-0.6299523115158081,9.717894554138184,-1.016183853149414,0.2551472783088684, -0.20100843906402588
256,1181852284,0.372393,-0.09392123,-0.007895658,0.92327684,-1.6735426187515259,-0.6638506650924683,9.68124008178711,-0.8480620980262756,0.146920844912529, -0.08370229601860046
257,1181868951,0.37244114,-0.09390048,-0.007834626,0.92326003,-1.6281214952468872,-0.6719252467155457,9.711977005004883,-0.8717283010482788,0.11606393754482269, -0.10949429869651794
258,1181885618,0.37246406,-0.09389424,-0.0077744937,0.9232518,-1.6225183010101318,-0.6524269580841064,9.676336288452148,-0.8924744725227356,0.21772713959217072, -0.14704249799251556
259,1181902285,0.3724883,-0.09389371,-0.0077455705,0.92324245,-1.631697416305542,-0.6755605936050415,9.674349784851074,-1.1180839538574219,0.1689605712890625, -0.0982246994972229
260,1181918952,0.37250644,-0.093871884,-0.0076927175,0.92323774,-1.6193783283233643,-0.7080690264701843,9.661507606506348,-0.9037313461303711,0.09773166477680206, -0.09720019996166229
261,1181935619,0.3725612,-0.09385002,-0.007629946,0.9232183,-1.6373181343078613,-0.6711747050285339,9.710214614868164,-0.8671691417694092,0.1091805249452591, -0.05510571971535683
262,1181952286,0.3726025,-0.09383693,-0.007583216,0.9232034,-1.6439975500106812,-0.6206551790237427,9.723420143127441,-0.982746422290802,0.1286589801311493, -0.0681297779083252
263,1181968953,0.37264326,-0.09383603,-0.007546943,0.9231874,-1.6514352560043335,-0.6565932035446167,9.7130708694458,-1.0934828519821167,0.17408309876918793, -0.001229409477673471
264,1181985620,0.37269914,-0.09382147,-0.007492439,0.9231668,-1.645116925239563,-0.6550585627555847,9.684525489807129,-0.9474393725395203,0.12993963062763214, -0.01550848875194788
265,1182002287,0.37276635,-0.0937924,-0.007434304,0.923143,-1.6443623304367065,-0.6978294849395752,9.676553726196289,-0.9085337519645691,0.03527509421110153, 0.07753605395555496
266,1182018954,0.37286347,-0.09376505,-0.007368796,0.92310715,-1.649426817893982,-0.6656593084335327,9.69251823425293,-0.8698200583457947,0.0631929337978363, 0.004270917735993862
267,1182035621,0.372878,-0.09375823,-0.0073362547,0.92310226,-1.632824420928955,-0.6786507368087769,9.694448471069336,-1.0732232332229614,0.13663733005523682, -0.053492121398448944
268,1182052288,0.37288898,-0.09376163,-0.0072940327,0.92309767,-1.6194168329238892,-0.668367862701416,9.691200256347656,-1.0360593795776367,0.2279082089662552, -0.043426334857940674
269,1182068955,0.3729202,-0.093743846,-0.007245318,0.92308724,-1.614503264427185,-0.6835458874702454,9.697881698608398,-0.9488096833229065,0.10574842244386673, -0.055861297994852066
270,1182085622,0.3729839,-0.09373872,-0.007190083,0.9230625,-1.6291543245315552,-0.6609713435173035,9.672317504882812,-0.9368100762367249,0.2045622020959854, -0.1835021674633026
271,1182102289,0.37296972,-0.093753256,-0.0071540233,0.9230671,-1.6538281440734863,-0.660968542098999,9.686957359313965,-1.084403157234192,0.2932718098163605, -0.053940340876579285
272,1182118956,0.37300858,-0.093744785,-0.0070955004,0.9230527,-1.65492844581604,-0.659454345703125,9.705883979797363,-0.9147831201553345,0.18750415742397308, -0.03729208931326866
273,1182135623,0.3730281,-0.09374551,-0.0070374073,0.9230451,-1.645981788635254,-0.6618189215660095,9.675872802734375,-0.9325839877128601,0.24833431839942932, -0.017250152304768562
274,1182152290,0.37304014,-0.09371649,-0.0069635073,0.9230438,-1.6702353954315186,-0.6424012780189514,9.703558921813965,-0.7472248673439026,0.1018424928188324, -0.01899181678891182
275,1182168957,0.37308252,-0.0937058,-0.0069380812,0.92302793,-1.6402539014816284,-0.707857072353363,9.695724487304688,-1.1274327039718628,0.08262017369270325, -0.015495682135224342
276,1182185624,0.37313804,-0.09365313,-0.006888621,0.9230112,-1.6518244743347168,-0.6778332591056824,9.70655345916748,-0.8596773743629456,-0.12235186249017715, -0.06869325786828995
277,1182202291,0.37317866,-0.09358776,-0.0068789544,0.92300147,-1.654618263244629,-0.6646026372909546,9.716577529907227,-1.0487760305404663,-0.29267629981040955, -0.2096143215894699
278,1182218958,0.37324795,-0.09355489,-0.0068940674,0.92297673,-1.6322232484817505,-0.639022171497345,9.676424980163574,-1.2859495878219604,-0.1460692286491394, -0.35655438899993896
279,1182235625,0.37333003,-0.093511194,-0.006894662,0.922948,-1.6238815784454346,-0.6599954962730408,9.6710844039917,-1.191669225692749,-0.1905328631401062, -0.24118198454380035
280,1182252292,0.37342498,-0.093486704,-0.0068756985,0.9229122,-1.639770746231079,-0.6730440855026245,9.686079025268555,-1.14285147190094,-0.029044799506664276, -0.12162189930677414
281,1182268959,0.3734495,-0.093471944,-0.0068209353,0.92290413,-1.6605507135391235,-0.665976345539093,9.702149391174316,-0.895880937576294,0.14401379227638245, -0.09439560025930405
282,1182285626,0.37351373,-0.09348355,-0.006784118,0.9228772,-1.6524248123168945,-0.6700749397277832,9.678545951843262,-1.0894168615341187,0.26077571511268616, -0.18490448594093323
283,1182302293,0.3736268,-0.09349148,-0.0067338566,0.922831,-1.6377570629119873,-0.684278666973114,9.665582656860352,-1.042718529701233,0.24839834868907928, -0.06312249600887299
284,1182318960,0.37368417,-0.09348292,-0.0066789766,0.92280906,-1.6483144760131836,-0.68465256690979,9.681839942932129,-0.9427778720855713,0.16643771529197693, -0.009604762308299541
285,1182335627,0.37377757,-0.093460955,-0.006599233,0.922774,-1.6394765377044678,-0.6212158799171448,9.71334457397461,-0.7484927177429199,0.14347593486309052, -0.12405510246753693
286,1182352294,0.37381765,-0.09345748,-0.006576156,0.9227583,-1.664132833480835,-0.6598087549209595,9.71434211730957,-1.1297121047973633,0.12970909476280212, -0.12522047758102417
287,1182368961,0.37384215,-0.09341625,-0.00654635,0.92275274,-1.6449637413024902,-0.6639232635498047,9.708735466003418,-0.9597718119621277,-0.08235763013362885, -0.22583997249603271
288,1182385628,0.3738712,-0.093377486,-0.0065250318,0.92274517,-1.6396156549453735,-0.6869420409202576,9.700400352478027,-1.0448572635650635,-0.10129822045564651, -0.0960860326886177
289,1182402295,0.37388518,-0.093322575,-0.0064640925,0.92274535,-1.6493325233459473,-0.6569600105285645,9.667943954467773,-0.7340855598449707,-0.09525362402200699, -0.10670250654220581
290,1182418962,0.37390822,-0.0932746,-0.0063653467,0.92274153,-1.6285547018051147,-0.6505800485610962,9.664968490600586,-0.5182217359542847,0.04256189987063408, -0.07613374292850494
291,1182435629,0.3739719,-0.09317049,-0.0062932223,0.9227268,-1.65418541431427,-0.678932249546051,9.771167755126953,-0.5652210712432861,-0.3951142728328705, -0.0928204208612442
292,1182452296,0.37413788,-0.0930244,-0.0062296987,0.9226747,-1.6401281356811523,-0.7237897515296936,9.784993171691895,-0.5509931445121765,-0.7052968740463257, -0.2272486686706543
293,1182468963,0.37424266,-0.092860416,-0.006259191,0.9226486,-1.6427332162857056,-0.6389789581298828,9.739496231079102,-0.9979732632637024,-1.0147111415863037, -0.6125276684761047
294,1182485630,0.37438634,-0.09265624,-0.006301272,0.9226105,-1.625373125076294,-0.6490381956100464,9.71224594116211,-0.987267017364502,-1.309859037399292, -0.6783651113510132
295,1182502297,0.37456623,-0.092428684,-0.0063663335,0.9225598,-1.63735830783844,-0.6867148876190186,9.702959060668945,-1.116880178451538,-1.5405142307281494, -0.5510572195053101
296,1182518964,0.37465593,-0.09215481,-0.006367434,0.9225508,-1.637455940246582,-0.6624199748039246,9.677816390991211,-0.5489314794540405,-1.6546317338943481, -0.409124493598938
297,1182535631,0.37475264,-0.09190161,-0.006377347,0.92253673,-1.62571120262146,-0.6288592219352722,9.669785499572754,-0.6841023564338684,-1.5586094856262207, -0.2802669405937195
298,1182552298,0.3748169,-0.091700934,-0.00640593,0.9225305,-1.5988997220993042,-0.6566483378410339,9.64891242980957,-0.9367460608482361,-1.2698135375976562, -0.1925562620162964
299,1182568965,0.37482688,-0.091540515,-0.006418608,0.9225422,-1.6014000177383423,-0.6986966729164124,9.641242980957031,-0.9168192744255066,-0.9619618058204651, -0.12002111226320267
300,1182585632,0.37491727,-0.09141714,-0.006377626,0.92251784,-1.599761724472046,-0.6215035915374756,9.674652099609375,-0.7010836005210876,-0.6002463698387146, -0.19843436777591705
301,1182602299,0.37503925,-0.09137157,-0.0063913437,0.92247283,-1.6003904342651367,-0.6277962923049927,9.662711143493652,-1.2530244588851929,-0.2441786527633667, -0.3422112464904785
302,1182618966,0.37517136,-0.091330566,-0.006379531,0.92242324,-1.630636215209961,-0.6281008124351501,9.667067527770996,-1.1185961961746216,-0.1577102094888687, -0.26798564195632935
303,1182635633,0.37522167,-0.09129382,-0.0063548046,0.9224066,-1.6280241012573242,-0.6474539041519165,9.672921180725098,-1.0076547861099243,-0.07932253181934357, -0.1979733556509018
304,1182652300,0.37526712,-0.091265455,-0.0062956214,0.9223914,-1.633865475654602,-0.6696305274963379,9.689151763916016,-0.8244215846061707,0.05484319105744362, -0.07244551181793213
305,1182668967,0.37536395,-0.09123573,-0.006221904,0.92235523,-1.6235623359680176,-0.6498075723648071,9.672167778015137,-0.7566248178482056,0.06925034523010254, -0.07421280443668365
306,1182685634,0.37542632,-0.09118273,-0.006150436,0.9223356,-1.5912835597991943,-0.6508089900016785,9.668824195861816,-0.7011988759040833,-0.08283146470785141, 0.005000879522413015
307,1182702301,0.37551984,-0.09109257,-0.006045624,0.92230713,-1.6407209634780884,-0.7258771061897278,9.71324348449707,-0.41335055232048035,-0.24435794353485107, 0.04909313842654228
308,1182718968,0.37563717,-0.09079884,-0.0058629983,0.92228955,-1.793153166770935,-0.6593517065048218,9.778841972351074,0.6641693115234375,-1.3222684860229492, -0.27730870246887207
309,1182735635,0.37580633,-0.090198375,-0.0057039033,0.9222806,-1.6634889841079712,-0.48845386505126953,9.952786445617676,1.3346201181411743,-3.339268922805786, -0.5698826313018799
310,1182752302,0.3759943,-0.089163266,-0.005957057,0.9223031,-1.703783631324768,-0.6876961588859558,10.228815078735352,-0.18598663806915283,-7.198744773864746, -0.6404839754104614
311,1182768969,0.37621927,-0.08762677,-0.006402691,0.9223556,-1.7608386278152466,-1.0398457050323486,10.20610237121582,-0.006057406309992075,-10.857625961303711, -1.4206346273422241
312,1182785636,0.37670147,-0.08570171,-0.0072065545,0.9223337,-1.6301755905151367,-0.7953068614006042,10.138354301452637,-1.1314418315887451,-14.207489967346191, -3.318179130554199
313,1182802303,0.37738445,-0.0836482,-0.008547466,0.92223144,-1.380176067352295,-0.6804813742637634,9.951566696166992,-4.129706382751465,-16.381683349609375, -4.8069071769714355
314,1182818970,0.37819293,-0.08099292,-0.010113943,0.9221216,-1.4381130933761597,-0.7367905974388123,9.916804313659668,-3.9426844120025635,-20.77910614013672, -5.637274265289307
315,1182835637,0.37916476,-0.07723049,-0.011562779,0.9220282,-1.522270917892456,-0.86319500207901,10.334259986877441,-0.2659246325492859,-27.520145416259766, -6.2738237380981445
316,1182852304,0.38043794,-0.072349146,-0.0130152395,0.92188036,-1.352846622467041,-0.7351747155189514,10.80317497253418,2.7981040477752686,-34.574588775634766, -8.382293701171875
317,1182868971,0.3820149,-0.06671819,-0.015045064,0.92162204,-0.8781366348266602,-0.8040297627449036,10.94717788696289,1.2736443281173706,-40.741825103759766, -11.101893424987793
318,1182885638,0.38376153,-0.060610734,-0.017762328,0.9212698,-0.6351756453514099,-1.0027695894241333,10.549202919006348,-1.6486002206802368,-45.42145538330078, -13.74881649017334
319,1182902305,0.38577113,-0.053830925,-0.020740578,0.92078936,-0.49448466300964355,-1.0101646184921265,10.154536247253418,-1.4219669103622437,-50.27056121826172, -15.948235511779785
320,1182918972,0.3879114,-0.04652022,-0.024011385,0.9202088,-0.17663177847862244,-1.0191618204116821,10.174158096313477,-1.818522572517395,-54.339839935302734, -17.230731964111328
321,1182935639,0.39002144,-0.038873836,-0.02781472,0.9195645,-0.16371598839759827,-1.0221655368804932,10.04153823852539,-4.291489601135254,-57.840057373046875, -17.58298683166504
322,1182952306,0.39202294,-0.031025523,-0.032299593,0.9188647,-0.00715222954750061,-0.5042746663093567,9.995025634765625,-8.088644981384277,-60.93974685668945, -17.257980346679688
323,1182968973,0.39403626,-0.023105597,-0.037297655,0.91804713,0.29198354482650757,-0.12763690948486328,10.080938339233398,-11.1676025390625,-62.737876892089844, -17.7701473236084
324,1182985640,0.39599428,-0.014948402,-0.04242948,0.91715044,0.674908459186554,-0.43261557817459106,10.091259956359863,-11.416687965393066,-64.58673858642578, -17.70897102355957
325,1183002307,0.39779,-0.0062133595,-0.046990193,0.9162514,0.9085496068000793,-0.8752462863922119,9.952713966369629,-6.269210338592529,-66.70427703857422, -16.793235778808594
326,1183018974,0.39947626,0.0031644881,-0.05077488,0.915331,1.0594663619995117,-0.8863469362258911,9.88906192779541,0.36932235956192017,-68.64631652832031, -16.328125
327,1183035641,0.4013666,0.013048614,-0.05440644,0.9142072,1.213427186012268,-0.6687312722206116,10.08150577545166,2.652008533477783,-71.32757568359375, -18.342281341552734
328,1183052308,0.40339231,0.023277236,-0.058378752,0.91286623,1.492149829864502,-1.0170753002166748,10.160386085510254,1.3646283149719238,-74.38695526123047, -19.882938385009766
329,1183068975,0.4055934,0.033876285,-0.06263321,0.9112758,2.1164369583129883,-1.0186635255813599,10.214957237243652,0.5006308555603027,-77.4477310180664, -21.770702362060547
330,1183085642,0.4079078,0.044652116,-0.06712815,0.90945655,2.5144102573394775,-1.1060235500335693,10.20136833190918,-0.6304076910018921,-79.20333099365234, -23.12965202331543
331,1183102309,0.41030246,0.055517342,-0.07165046,0.9074337,2.7663984298706055,-1.0989277362823486,9.941266059875488,-0.6589540243148804,-79.83329010009766, -24.227195739746094
332,1183118976,0.41270372,0.06667583,-0.07586778,0.90524817,3.0630223751068115,-0.8333683013916016,9.887039184570312,1.99930739402771,-80.82962799072266, -24.980083465576172
333,1183135643,0.41513672,0.07775428,-0.08008807,0.90288544,3.1945178508758545,-0.7904586791992188,9.771134376525879,1.65005624294281,-80.37179565429688, -25.627965927124023
334,1183152310,0.4175585,0.08886193,-0.084003836,0.9003843,3.4179089069366455,-0.7554860711097717,9.407785415649414,3.5566742420196533,-79.734130859375, -26.124116897583008
335,1183168977,0.41996795,0.09992598,-0.087612085,0.89775604,3.681351900100708,-0.40230244398117065,9.176401138305664,5.272688388824463,-78.6355209350586, -26.567882537841797
336,1183185644,0.4223794,0.110967904,-0.09097912,0.8949886,3.8442294597625732,-0.28381699323654175,9.038307189941406,6.607025623321533,-77.86445617675781, -27.125669479370117
337,1183202311,0.424618,0.12216466,-0.09385227,0.8921701,4.174861907958984,-0.14994211494922638,9.248355865478516,10.188522338867188,-77.499267578125, -26.67449951171875
338,1183218978,0.42701453,0.13272135,-0.096235275,0.88925964,4.636774063110352,-0.1208198145031929,9.354180335998535,11.12426471710205,-72.08589935302734, -27.900463104248047
339,1183235645,0.42971358,0.14270183,-0.0976855,0.8862506,4.937995433807373,-0.051821380853652954,9.438331604003906,14.784504890441895,-65.67811584472656, -30.50030517578125
340,1183252312,0.43243727,0.15264651,-0.09811766,0.88321567,4.557440280914307,-0.20672258734703064,9.18275260925293,20.829912185668945,-62.424400329589844, -31.694046020507812
341,1183268979,0.43496862,0.16261667,-0.09822651,0.8801761,4.448001384735107,0.08599359542131424,8.92164421081543,23.063724517822266,-61.72979736328125, -30.89214324951172
342,1183285646,0.43731147,0.1729409,-0.099122815,0.8769407,4.484801769256592,0.17885105311870575,8.707864761352539,19.42708969116211,-66.55680847167969, -29.690874099731445
343,1183302313,0.43925786,0.18370064,-0.10090419,0.8735704,4.495954513549805,-0.0589001327753067,8.070602416992188,15.771637916564941,-72.259765625, -26.943981170654297
344,1183318980,0.44067928,0.19434458,-0.10282819,0.8703209,4.993137836456299,0.27737319469451904,8.306628227233887,15.3135986328125,-72.18994140625, -23.161834716796875
345,1183335647,0.44190648,0.20407102,-0.10599175,0.86708677,4.758700370788574,0.39529478549957275,8.39470100402832,5.3814005851745605,-70.55134582519531, -19.640918731689453
346,1183352314,0.4430435,0.21315858,-0.10877959,0.86396927,4.554160118103027,-0.044168367981910706,8.586174964904785,5.885773658752441,-65.49481201171875, -18.802310943603516
347,1183368981,0.4439369,0.22217496,-0.11162587,0.8608706,4.1619462966918945,0.2453291267156601,8.144794464111328,5.698886394500732,-65.40937805175781, -17.15675163269043
348,1183385648,0.44465783,0.23101845,-0.115229115,0.8576901,4.352255821228027,0.3667997717857361,7.855208396911621,0.8915992379188538,-66.96675109863281, -15.091265678405762
349,1183402315,0.44495863,0.23981512,-0.11882016,0.85462415,4.271045684814453,0.7104580998420715,7.782830238342285,1.577236533164978,-66.8133773803711, -12.238779067993164
350,1183418982,0.4449518,0.2481836,-0.122463,0.8517194,3.769716501235962,1.2050418853759766,7.4842448234558105,0.5937176942825317,-64.45588684082031, -9.492209434509277
351,1183435649,0.44442946,0.25626162,-0.12612514,0.8490612,3.9344162940979004,1.1817965507507324,7.645387172698975,0.6612779498100281,-62.85258483886719, -5.423744201660156
352,1183452316,0.44346523,0.26412833,-0.12953699,0.8466376,4.107640266418457,1.3322479724884033,7.934609413146973,2.4425551891326904,-60.851318359375, -2.3679380416870117
353,1183468983,0.44229847,0.27165502,-0.13248703,0.84440684,4.317517280578613,1.107410192489624,8.178450584411621,4.615609645843506,-57.325157165527344, -1.1185067892074585
354,1183485650,0.44057184,0.27908155,-0.13382232,0.8426753,4.35762357711792,0.8799031376838684,8.918721199035645,15.174095153808594,-51.44330596923828, 0.7398366332054138
355,1183502317,0.4382625,0.2860111,-0.1334798,0.8416098,2.9369683265686035,0.2587261199951172,8.909531593322754,25.114269256591797,-42.785667419433594, 3.3796956539154053
356,1183518984,0.43552825,0.29239866,-0.1319813,0.84107023,2.6299588680267334,-0.06344814598560333,9.562905311584473,31.495771408081055,-35.598915100097656, 5.646255970001221
357,1183535651,0.4324667,0.29708385,-0.13005455,0.8413083,2.204346179962158,-1.3093547821044922,11.34662914276123,30.253063201904297,-23.301218032836914, 10.544121742248535
358,1183552318,0.4295709,0.30007854,-0.12796937,0.8420486,1.209090232849121,-1.1810425519943237,10.724702835083008,26.295591354370117,-12.010514259338379, 12.241074562072754
359,1183568985,0.4268594,0.3017016,-0.12710483,0.8429779,0.9216776490211487,-0.7961387634277344,9.695649147033691,15.002056121826172,-7.265772819519043, 15.43592357635498
360,1183585652,0.42432755,0.30188397,-0.12709896,0.84419096,-0.08829178661108017,-1.0392272472381592,8.930475234985352,5.700516700744629,-0.8220150470733643, 18.25060272216797
361,1183602319,0.4219714,0.30190954,-0.12690458,0.84539115,-0.5234572887420654,-0.24199777841567993,8.656637191772461,5.991757392883301,0.6265448927879333, 16.920528411865234
362,1183618986,0.42016646,0.30068624,-0.1252312,0.8469742,0.9949089884757996,-0.295523464679718,9.372404098510742,10.166715621948242,13.310667037963867, 12.839841842651367
363,1183635653,0.41885826,0.2976771,-0.123138964,0.84898937,3.2085506916046143,0.4142414927482605,10.2098388671875,6.804898738861084,26.12211799621582, 11.858452796936035
364,1183652320,0.4178781,0.29234087,-0.121726856,0.8515265,4.6190338134765625,-0.3190205693244934,10.60293960571289,-4.097736835479736,39.00765609741211, 14.80530071258545
365,1183668987,0.4165426,0.2851681,-0.120479524,0.85478425,1.9884587526321411,-0.2940501272678375,10.968628883361816,-9.009478569030762,50.37799835205078, 20.808345794677734
366,1183685654,0.4152693,0.27608207,-0.120207295,0.8584174,-1.3403642177581787,-0.09752482175827026,10.70888900756836,-20.023277282714844,59.50421142578125, 24.998374938964844
367,1183702321,0.414548,0.2638017,-0.12157798,0.8624254,-0.40183091163635254,0.6885114908218384,10.868587493896484,-39.580657958984375,74.6636962890625, 28.551755905151367
368,1183718988,0.41450322,0.24680425,-0.123307064,0.86721975,2.5781779289245605,0.08018073439598083,10.15108585357666,-55.74573516845703,103.45983123779297, 31.35799217224121
369,1183735655,0.4147294,0.22520249,-0.12364486,0.8729235,2.890925884246826,-1.7784422636032104,9.808991432189941,-60.27834701538086,136.58836364746094, 33.846065521240234
370,1183752322,0.4150628,0.19795504,-0.121593565,0.8796316,5.974434852600098,-3.3829312324523926,9.519869804382324,-61.33372116088867,178.89515686035156, 37.115840911865234
371,1183768989,0.4145931,0.1639858,-0.11072731,0.8882347,9.139978408813477,-6.134697437286377,7.004639625549316,-24.471181869506836,246.67572021484375, 40.9527702331543
372,1183785656,0.41161373,0.12229179,-0.08741065,0.8988762,14.553057670593262,-7.305848121643066,7.347799777984619,34.06467819213867,329.9469909667969, 53.90605926513672
373,1183802323,0.40444142,0.07074214,-0.053944454,0.9102268,21.65496253967285,-7.018742561340332,9.59511661529541,73.03654479980469,418.0749206542969, 79.24726104736328
374,1183818990,0.38813746,0.011342851,-0.009840887,0.9214792,19.881731033325195,-3.3805997371673584,12.658480644226074,122.40512084960938,494.0003662109375, 133.98660278320312
375,1183835657,0.365728,-0.045944605,0.035768304,0.9288988,17.00446319580078,2.2442359924316406,0.6441547870635986,137.88621520996094,484.3544006347656, 162.26608276367188
376,1183852324,0.3614231,-0.059173606,0.0867407,0.92647076,29.301380157470703,24.632352828979492,-21.290281295776367,291.0222473144531,215.14193725585938, 34.25497055053711
377,1183868991,0.3565223,-0.07805063,0.095357694,0.9261247,1.1278483867645264,3.34506893157959,18.767831802368164,5.003448009490967,145.89842224121094, 22.372228622436523
378,1183885658,0.35547513,-0.07813627,0.10709148,0.9252372,0.3478306829929352,2.587825298309326,-6.434041976928711,73.3275146484375,31.73761749267578, 10.461880683898926
379,1183902325,0.36064008,-0.076504715,0.09304068,0.92489415,-1.7273852825164795,9.188942909240723,11.194195747375488,-83.6468276977539,-47.112220764160156, -40.32712173461914
380,1183918992,0.36157426,-0.07367172,0.06317289,0.9272789,-1.0899455547332764,-0.2906263768672943,9.03111457824707,-185.42001342773438,-92.7000732421875, -14.204610824584961
381,1183935659,0.36279997,-0.066972815,0.037369262,0.9287058,0.19589214026927948,-3.533478260040283,11.424901008605957,-149.3060302734375,-106.87242889404297, -14.625127792358398
382,1183952326,0.3643433,-0.05713033,0.023478411,0.92921424,0.2978668212890625,-3.8190529346466064,12.463584899902344,-64.91703033447266,-96.8432388305664, -12.577442169189453
383,1183968993,0.36523548,-0.046237998,0.020517511,0.9295398,0.13104356825351715,-2.55377459526062,12.945597648620605,7.405058860778809,-75.95891571044922, -4.372779846191406
384,1183985660,0.36559737,-0.036299944,0.025082393,0.92972684,-1.0699023008346558,-0.8685168027877808,14.918252944946289,53.0166130065918,-50.820838928222656, 0.933081865310669
385,1184002327,0.3656738,-0.030257506,0.030896902,0.9297379,-2.7819223403930664,0.15085992217063904,14.328802108764648,51.196876525878906,-22.691499710083008, 1.9449154138565063
386,1184018994,0.36562175,-0.027336879,0.036581002,0.9296427,-3.349515676498413,0.535376250743866,11.739887237548828,42.518131256103516,-3.065039873123169, 1.796351671218872
387,1184035661,0.3658223,-0.024647703,0.042810068,0.9293729,-3.7339751720428467,1.7388205528259277,10.085616111755371,45.51197052001953,-0.3154098391532898, -0.22358764708042145
388,1184052328,0.3666048,-0.020243589,0.04869605,0.928881,-3.9597954750061035,3.4232473373413086,11.218971252441406,47.772483825683594,-12.350269317626953, -4.066985607147217
389,1184068995,0.36785334,-0.014503251,0.052003,0.92831534,-5.1286163330078125,3.2181639671325684,13.149527549743652,34.70185852050781,-27.612951278686523, -7.152704238891602
390,1184085662,0.36916208,-0.009025478,0.052658968,0.9278281,-5.944636344909668,0.8535943627357483,14.393370628356934,17.04913330078125,-32.77716827392578, -7.697537899017334
391,1184102329,0.36980358,-0.0043656626,0.053667717,0.92754835,-7.080265522003174,-1.0861852169036865,14.868688583374023,17.117252349853516,-26.558374404907227, -3.177586555480957
392,1184118996,0.36999866,-0.0013424905,0.0542065,0.92744845,-7.698310375213623,-0.6321050524711609,14.180603981018066,9.93423843383789,-17.304912567138672, -0.4722091853618622
393,1184135663,0.37030312,-0.00037268252,0.052453868,0.9274287,-6.709953784942627,0.7214480638504028,13.411931991577148,-9.884382247924805,-10.244241714477539, -1.7322776317596436
394,1184152330,0.3706233,-0.0016235356,0.04820921,0.9275298,-5.634344577789307,1.7743059396743774,13.490419387817383,-31.457563400268555,-2.5745718479156494, -2.316279888153076
395,1184168997,0.37111974,-0.005041674,0.042178232,0.927613,-5.937378883361816,1.599442481994629,13.205205917358398,-48.373294830322266,6.522117614746094, -4.214938163757324
396,1184185664,0.37163,-0.009045016,0.037632123,0.9275739,-6.317333221435547,-0.045511920005083084,12.326617240905762,-40.3693733215332,13.923837661743164, -4.727353572845459
397,1184202331,0.37201098,-0.011423871,0.038219,0.9273709,-6.218523025512695,-0.5340966582298279,12.155717849731445,-3.4277124404907227,16.59633445739746, -3.574998378753662
398,1184218998,0.37213665,-0.01379309,0.040705547,0.9271824,-5.749774932861328,0.0992063507437706,12.069814682006836,8.71455192565918,21.33828353881836, -1.75018310546875
399,1184235665,0.37190804,-0.017327603,0.042227313,0.92714685,-4.750096797943115,0.5875750780105591,11.133795738220215,-0.4777035415172577,26.27511215209961, 0.487583726644516
400,1184252332,0.3716655,-0.021276128,0.042524345,0.92714834,-3.8295493125915527,1.2761229276657104,10.193403244018555,-9.351143836975098,25.698347091674805, 0.4077744781970978
401,1184268999,0.37180153,-0.025313465,0.04112454,0.9270555,-4.028649806976318,1.3120124340057373,9.487032890319824,-20.322359085083008,21.769229888916016, -2.5226540565490723
402,1184285666,0.3724443,-0.02872663,0.039431468,0.9267716,-4.366390228271484,0.19073472917079926,8.794221878051758,-20.46641731262207,16.86566734313965, -6.119043350219727
403,1184302333,0.37341863,-0.03057374,0.03995843,0.9262975,-4.272730827331543,-0.336342990398407,8.433722496032715,-2.1840860843658447,12.447504997253418, -7.855164051055908
404,1184319000,0.37431654,-0.030778348,0.042953808,0.9257941,-3.9082822799682617,0.004959596320986748,8.666827201843262,17.764463424682617,8.28293514251709, -6.467753887176514
405,1184335667,0.37487984,-0.029985102,0.047022086,0.9253948,-3.703368663787842,0.746059000492096,8.807308197021484,27.072378158569336,4.710578441619873, -3.540503740310669
406,1184352334,0.37541232,-0.028275723,0.050326236,0.92505866,-3.881166696548462,1.6024075746536255,8.54024887084961,24.54339027404785,-3.143453598022461, -3.034829616546631
407,1184369001,0.37622333,-0.025781065,0.05148922,0.924738,-4.3878984451293945,1.92425537109375,8.036870002746582,12.983318328857422,-13.819809913635254, -4.906233787536621
408,1184385668,0.3777202,-0.022715094,0.051680744,0.9241973,-4.016088008880615,1.8283394575119019,7.970587730407715,8.461459159851074,-20.236055374145508, -9.8027925491333
409,1184402335,0.38014093,-0.017861826,0.050729007,0.92336375,-3.6773478984832764,1.7977676391601562,7.220534801483154,6.068750858306885,-34.90425109863281, -15.973445892333984
410,1184419002,0.38343716,-0.011426275,0.049482547,0.92216974,-2.9794061183929443,1.9297624826431274,7.801656723022461,8.550360679626465,-46.03587341308594, -21.952835083007812
411,1184435669,0.3875858,-0.0036209323,0.04612995,0.92067176,-2.9721150398254395,2.0514070987701416,7.134069919586182,-1.0364598035812378,-60.58089065551758, -27.85422134399414
412,1184452336,0.39250863,0.0057201283,0.039323695,0.91888964,-2.4243016242980957,2.7962822914123535,6.464232444763184,-18.712295532226562,-79.78895568847656, -33.10944366455078
413,1184469003,0.39795595,0.01711232,0.027827451,0.91682273,-1.1008259057998657,2.6551527976989746,7.095254898071289,-42.78208923339844,-105.59654235839844, -36.45768737792969
414,1184485670,0.40260255,0.029126503,0.013585077,0.91481054,0.8551760911941528,-0.18260447680950165,9.993518829345703,-58.33540344238281,-116.88602447509766, -30.82687759399414
415,1184502337,0.4071537,0.043130796,-0.00080038485,0.91234046,0.709729015827179,-0.2196526676416397,10.695063591003418,-53.63600158691406,-129.86276245117188, -31.287519454956055
416,1184519004,0.41172752,0.059478603,-0.01645065,0.9092153,1.4489792585372925,2.2332212924957275,8.492606163024902,-54.99414825439453,-148.29144287109375, -32.90957260131836
417,1184535671,0.41616938,0.07336383,-0.033765007,0.90569365,1.2884612083435059,0.7954756021499634,10.349865913391113,-72.38573455810547,-137.76260375976562, -32.253231048583984
418,1184552338,0.42065206,0.08683812,-0.047835425,0.90178865,0.6466268301010132,-0.42128095030784607,12.371603012084961,-53.46866989135742,-126.09717559814453, -35.15230178833008
419,1184569005,0.424378,0.10049267,-0.060846362,0.89783204,2.5371718406677246,-0.2900926172733307,10.490635871887207,-45.92357635498047,-124.4521713256836, -31.308849334716797
420,1184585672,0.4240663,0.11453882,-0.07233606,0.89544183,2.594511032104492,-4.502302646636963,15.946327209472656,-31.93511962890625,-123.02156066894531, -3.029527425765991
421,1184602339,0.42028734,0.12627164,-0.07857173,0.8951205,-6.964842319488525,-1.8376266956329346,9.579922676086426,-2.4983694553375244,-93.5699462890625, 21.345746994018555
422,1184619006,0.42106178,0.16544883,-0.099341564,0.8862647,22.376737594604492,31.518367767333984,-75.36166381835938,-21.18449592590332,-309.6924133300781, -33.57039260864258
423,1184635673,0.42282817,0.1901169,-0.11023596,0.87915874,26.121004104614258,-1.7460870742797852,48.91633987426758,-3.4393510818481445,-189.166748046875, -35.61443328857422
424,1184652340,0.42095926,0.21667536,-0.10748267,0.8742384,69.402587890625,-7.34382438659668,13.203527450561523,91.01897430419922,-160.61944580078125, -26.52336883544922
425,1184669007,0.41032046,0.24547775,-0.111344405,0.87119484,17.96637725830078,-18.71148681640625,31.466773986816406,72.38428497314453,-195.80511474609375, 39.81771469116211
426,1184685674,0.40468675,0.2624373,-0.11888601,0.86788344,-8.08816146850586,7.85361909866333,13.531975746154785,8.609928131103516,-131.75599670410156, 24.187307357788086
427,1184702341,0.40692934,0.2663948,-0.12842001,0.8642631,-9.662287712097168,-3.338369846343994,11.411555290222168,-54.03390121459961,-54.0913200378418, -9.380450248718262
428,1184719008,0.40910155,0.26641986,-0.12889236,0.86315894,-7.875147819519043,-4.365137577056885,3.167184591293335,-8.787969589233398,-1.1039211750030518, -15.08269214630127
429,1184735675,0.40938818,0.2617524,-0.13209927,0.86396575,-10.322713851928711,-3.616103410720825,1.881065011024475,-33.007171630859375,20.687477111816406, 10.606093406677246
430,1184752342,0.40814957,0.248914,-0.13930573,0.867208,-11.665779113769531,-0.049154847860336304,7.31666374206543,-74.76356506347656,60.746253967285156, 41.10388946533203
431,1184769009,0.40969163,0.22640194,-0.14320295,0.87200224,-4.974533557891846,2.445526599884033,12.809844970703125,-85.46826171875,132.78097534179688, 32.46365737915039
432,1184785676,0.4155807,0.19613524,-0.13536417,0.8777815,4.541820526123047,-3.4683640003204346,13.253949165344238,-42.795921325683594,218.00064086914062, -1.4633417129516602
433,1184802343,0.42249325,0.1577473,-0.1211548,0.8842719,11.112992286682129,-12.735260009765625,8.712491989135742,-28.230268478393555,287.1645812988281, -6.671774387359619
434,1184819010,0.42597905,0.11357051,-0.09452217,0.89258575,20.90239715576172,-13.511748313903809,11.108622550964355,35.93193435668945,357.7677917480469, 10.769258499145508
435,1184835677,0.41684124,0.06291299,-0.055257965,0.90511435,31.02655792236328,-5.395735263824463,19.29705047607422,107.3262939453125,430.040283203125, 95.01038360595703
436,1184852344,0.39502543,0.0074703246,-0.0163109,0.9184952,18.450347900390625,0.4903223216533661,19.08441162109375,97.53437805175781,454.9797668457031, 178.45953369140625
437,1184869011,0.3714766,-0.037911236,0.012235814,0.9275873,8.314164161682129,8.799300193786621,-9.523736000061035,58.74378204345703,362.8558654785156, 177.1591339111328
438,1184885678,0.36825565,-0.049323536,0.041491095,0.92748785,18.43486785888672,21.23903465270996,-7.922731399536133,155.94273376464844,148.54969787597656, 26.97075080871582
439,1184902345,0.3625948,-0.05826275,0.052702665,0.9286297,-5.146990776062012,-4.3984599113464355,10.0519437789917,45.60565948486328,87.52249908447266, 40.17198944091797
440,1184919012,0.36432984,-0.06099244,0.048415244,0.92800856,1.4904817342758179,17.965152740478516,5.626262664794922,-34.19442367553711,7.188567638397217, -15.387740135192871
441,1184935679,0.3670692,-0.06913495,0.021480056,0.9273722,-1.7451187372207642,-1.6245954036712646,10.617554664611816,-192.1150665283203,-15.327371597290039, -33.16717529296875
442,1184952346,0.368302,-0.07153675,0.0038343628,0.92694205,-0.6731548309326172,-2.598252296447754,8.377765655517578,-119.09812927246094,-28.3783016204834, -17.731977462768555
443,1184969013,0.36993214,-0.068865605,-0.0019609989,0.92650104,-0.4582533836364746,-3.1885826587677,12.515436172485352,-30.494216918945312,-30.720746994018555, -14.304821014404297
444,1184985680,0.36981487,-0.062396828,0.0044155736,0.92699736,-1.3452160358428955,-4.792346000671387,12.180564880371094,55.92751693725586,-24.411312103271484, 4.929670810699463
445,1185002347,0.368593,-0.05471515,0.020406151,0.9277549,-2.1588387489318848,-4.920656204223633,12.178427696228027,119.87565612792969,-7.780210494995117, 16.789234161376953
446,1185019014,0.36698398,-0.049961716,0.0369431,0.92814964,-3.3211309909820557,-1.1815847158432007,12.374324798583984,115.91629028320312,12.458083152770996, 18.12177848815918
447,1185035681,0.36596888,-0.050372366,0.045377076,0.92815423,-2.9896976947784424,3.61704158782959,11.59121036529541,51.50054168701172,24.920289993286133, 9.238730430603027
448,1185052348,0.3653234,-0.05507859,0.042036723,0.92829853,-3.6168019771575928,3.9543778896331787,9.372900009155273,-34.40074920654297,22.516651153564453, 1.8054310083389282
449,1185069015,0.36472395,-0.060657784,0.03177397,0.92859447,-4.998285293579102,2.7141404151916504,8.01185417175293,-80.84934997558594,10.588494300842285, -0.9794397354125977
450,1185085682,0.36490467,-0.06433113,0.021029303,0.9285816,-5.96391487121582,1.2054550647735596,8.250791549682617,-78.78699493408203,-2.8947978019714355, -6.512786865234375
451,1185102349,0.3658312,-0.065564275,0.01245833,0.92828524,-7.1040940284729,-0.163749098777771,8.570062637329102,-58.43040466308594,-13.078012466430664, -10.665239334106445
452,1185119016,0.36645883,-0.06422005,0.006435787,0.92819303,-6.488163471221924,-0.9853438138961792,8.676538467407227,-35.83268737792969,-23.27069854736328, -6.871535778045654
453,1185135683,0.36689728,-0.060525022,0.0033429458,0.9282844,-6.267847061157227,-0.764866828918457,8.862404823303223,-11.293450355529785,-31.040700912475586, -3.8029375076293945
454,1185152350,0.36709246,-0.05597523,0.0014535612,0.9284977,-6.8182597160339355,-0.7344174981117249,8.830492973327637,-1.5527889728546143,-33.57797622680664, -1.4234827756881714
455,1185169017,0.36716983,-0.051538162,-0.000048276885,0.9287251,-7.01041841506958,-0.7021899223327637,8.851335525512695,0.5984235405921936,-31.963300704956055, -0.49047210812568665
456,1185185684,0.36735144,-0.048052747,-0.0012896043,0.9288392,-6.583568096160889,-0.6310469508171082,8.484701156616211,-0.09711076319217682,-25.269466400146484, -1.352186918258667
457,1185202351,0.36784273,-0.045072936,-0.0014916459,0.9287938,-5.900116920471191,-0.6742227673530579,7.920945644378662,5.369063377380371,-19.436710357666016, -3.3878092765808105
458,1185219018,0.36823136,-0.041238114,0.00015064633,0.9288192,-5.85330867767334,-0.597562849521637,8.637152671813965,19.28357696533203,-20.324832916259766, -1.9930063486099243
459,1185235685,0.3684578,-0.036523823,0.0024460095,0.92892355,-5.732006549835205,0.03976874053478241,9.152825355529785,25.63962173461914,-24.37540626525879, -0.5723439455032349
460,1185252352,0.36867455,-0.030932836,0.0046960674,0.929032,-5.219870567321777,0.252841591835022,9.238568305969238,27.566579818725586,-30.151647567749023, -0.4974271059036255
461,1185269019,0.36877343,-0.024653602,0.0070955963,0.92916536,-5.035383224487305,-0.22081556916236877,9.266142845153809,30.23581314086914,-34.22529602050781, 0.37387773394584656
462,1185285686,0.3689237,-0.01828258,0.009287557,0.92923343,-4.281826019287109,0.07705077528953552,9.287480354309082,29.157258987426758,-35.382286071777344, -0.1480553150177002
463,1185302353,0.36916536,-0.012325819,0.010621348,0.9292213,-3.157684564590454,0.6585344672203064,9.4081392288208,22.6403751373291,-34.951873779296875, -1.067569375038147
464,1185319020,0.3696527,-0.006346301,0.01173518,0.9290742,-2.780836582183838,0.8923771977424622,9.820903778076172,21.317291259765625,-35.69231414794922, -2.9934253692626953
465,1185335687,0.37036905,0.00043517645,0.013410202,0.9287878,-3.2683422565460205,0.9736286997795105,10.627274513244629,26.953954696655273,-39.426422119140625, -4.718294143676758
466,1185352354,0.37134627,0.0076888427,0.015197326,0.9283382,-3.123696804046631,1.330197811126709,11.231575965881348,28.880041122436523,-42.210636138916016, -6.751211643218994
467,1185369021,0.37260464,0.014684626,0.016121102,0.92773396,-3.0478110313415527,1.3054956197738647,11.075008392333984,22.70376968383789,-42.83380126953125, -8.917662620544434
468,1185385688,0.3742245,0.020899672,0.016653888,0.9269531,-2.56189227104187,1.3937777280807495,11.15335750579834,18.18580436706543,-38.941856384277344, -11.718404769897461
469,1185402355,0.37649313,0.027259123,0.015924323,0.9258813,-1.5994372367858887,2.078383684158325,10.37716293334961,10.445880889892578,-43.250064849853516, -16.398860931396484
470,1185419022,0.37957212,0.034503713,0.013471511,0.9244205,-1.3692573308944702,2.347228765487671,10.254560470581055,1.6441818475723267,-53.52273178100586, -22.141977310180664
471,1185435689,0.38320103,0.04331329,0.009941473,0.9225954,-1.1843783855438232,2.068647861480713,11.079318046569824,-1.2310324907302856,-66.4333267211914, -26.18411636352539
472,1185452356,0.38760155,0.052604623,0.00573903,0.9203071,-1.0790406465530396,1.7064300775527954,12.728901863098145,-4.4353837966918945,-71.46516418457031, -32.06245422363281
473,1185469023,0.39245507,0.061612375,0.00068014546,0.9177052,-0.5697357654571533,1.6989134550094604,13.226305961608887,-10.76481819152832,-72.0970687866211, -35.463279724121094
474,1185485690,0.39715302,0.07032877,-0.004599836,0.9150423,0.19401492178440094,1.6652531623840332,13.69556713104248,-12.881966590881348,-70.8892822265625, -34.55183410644531
475,1185502357,0.40237698,0.07820257,-0.010754386,0.9120644,1.322881817817688,2.2934348583221436,14.089431762695312,-20.950876235961914,-68.11459350585938, -38.270057678222656
476,1185519024,0.40824884,0.084107675,-0.021494482,0.90873355,1.8030426502227783,2.3244030475616455,13.277628898620605,-55.53651809692383,-68.5902328491211, -40.69975662231445
477,1185535691,0.41433936,0.0890744,-0.03509634,0.9050729,2.730821132659912,0.9260348081588745,12.763927459716797,-76.23808288574219,-70.91026306152344, -41.203346252441406
478,1185552358,0.42058104,0.09516528,-0.048693463,0.90093535,2.9740149974823,-0.028672203421592712,12.798871040344238,-73.21149444580078,-78.13201904296875, -43.78413772583008
479,1185569025,0.42594147,0.10179479,-0.059806775,0.8970146,2.414144277572632,-1.6617467403411865,13.82503604888916,-55.60783767700195,-74.4225845336914, -39.509544372558594
480,1185585692,0.4283166,0.109391145,-0.06534731,0.8945996,0.7459025979042053,-3.614307403564453,16.36768341064453,-15.673009872436523,-64.23188018798828, -20.99186134338379
481,1185602359,0.42737624,0.11288154,-0.06667611,0.8945176,-3.682274341583252,-4.647010326385498,19.339988708496094,1.7239891290664673,-26.326122283935547, 4.939108371734619
482,1185619026,0.42260754,0.10688957,-0.06716611,0.8974778,-9.703232765197754,-6.354832172393799,19.575565338134766,-16.568004608154297,34.98915100097656, 41.10388946533203
483,1185635693,0.42347383,0.13287486,-0.08645221,0.89193064,19.796464920043945,42.77214050292969,-87.83871459960938,-47.65021896362305,-220.77322387695312, -19.373382568359375
484,1185652360,0.42128882,0.14682716,-0.11383527,0.88769317,60.31751251220703,-0.03151345252990723,57.08427810668945,-129.24468994140625,-170.86917114257812, 17.857440948486328
485,1185669027,0.41878372,0.175211,-0.1180739,0.8831648,46.71638870239258,-28.703996658325195,3.203359842300415,53.9412956237793,-191.8538818359375, -15.617825508117676
486,1185685694,0.40871224,0.20486306,-0.12457066,0.8806065,-3.2432150840759277,-7.094684600830078,24.824281692504883,54.9219970703125,-209.34344482421875, 37.617618560791016
487,1185702361,0.40797704,0.21349207,-0.13968466,0.8766211,-9.34437084197998,-2.2373335361480713,15.959662437438965,-70.64385223388672,-100.39472198486328, 7.181665897369385
488,1185719028,0.41477284,0.203984,-0.15413988,0.87326694,-15.922926902770996,-4.980914115905762,5.948259353637695,-127.9880599975586,18.747892379760742, -20.001422882080078
489,1185735695,0.41993245,0.1957565,-0.14816368,0.8737183,-7.03774881362915,-6.209519386291504,0.5776351094245911,4.706532001495361,72.70976257324219, -29.380800247192383
490,1185752362,0.42266425,0.18142448,-0.14153464,0.876589,-11.119767189025879,-1.7657169103622437,0.9448530673980713,-3.2099249362945557,111.95011138916016, -2.5098865032196045
491,1185769029,0.42227596,0.1565773,-0.13271795,0.882923,-9.044486045837402,1.2674590349197388,6.486575603485107,-13.310603141784668,182.8394775390625, 33.847171783447266
492,1185785696,0.42307702,0.11678219,-0.11448891,0.89121276,3.7979331016540527,-1.2069743871688843,10.219674110412598,0.9115625023841858,304.0473327636719, 35.81723403930664
493,1185802363,0.41955835,0.06303456,-0.07907657,0.9020778,18.531679153442383,-9.952520370483398,13.177600860595703,71.16253662109375,438.4103088378906, 67.00889587402344
494,1185819030,0.40751156,0.00068758574,-0.03480665,0.9125362,28.040117263793945,-16.563230514526367,14.19963264465332,104.9135971069336,512.8611450195312, 119.66200256347656
495,1185835697,0.38183874,-0.053431973,0.021836044,0.9224248,13.08296012878418,4.4894866943359375,8.419350624084473,205.81336975097656,492.96136474609375, 201.68698120117188
496,1185852364,0.368605,-0.07429082,0.0494125,0.92529434,27.33321762084961,23.2965030670166,-34.01066970825195,114.15858459472656,206.02508544921875, 98.49310302734375
497,1185869031,0.35867795,-0.07959757,0.05188577,0.92861307,-4.492886543273926,-2.721163272857666,9.924493789672852,-4.974837303161621,42.19559860229492, 71.41824340820312
498,1185885698,0.36246338,-0.05725547,0.0520126,0.92878234,-2.419302463531494,17.85491180419922,-2.460188150405884,56.99268341064453,-143.34640502929688, -15.752285957336426
499,1185902365,0.36857343,-0.04040822,0.013833762,0.928617,2.7487316131591797,7.283257484436035,13.711810111999512,-200.52609252929688,-204.5233612060547, -48.505794525146484
500,1185919032,0.37287247,-0.025397051,-0.026263613,0.9271631,4.026834964752197,-5.6104960441589355,14.551522254943848,-217.88462829589844,-197.08880615234375, -40.89019012451172
501,1185935699,0.37711692,-0.009588683,-0.04399627,0.9250705,3.0883142948150635,-5.5206098556518555,18.242267608642578,-73.28748321533203,-144.6399383544922, -38.37744903564453
502,1185952366,0.3774081,0.004478321,-0.041731868,0.9250955,0.28491872549057007,-7.42750358581543,19.409040451049805,49.81706619262695,-82.99905395507812, -5.884187698364258
503,1185969033,0.3744185,0.015230985,-0.024404874,0.9268136,-1.279327630996704,-6.009483337402344,20.581254959106445,137.68081665039062,-23.710416793823242, 19.8535099029541
504,1185985700,0.37125307,0.017896606,-0.004937811,0.9283461,-1.700142502784729,-0.7610411047935486,18.18439292907715,130.5419158935547,33.28032302856445, 21.610410690307617
505,1186002367,0.37047204,0.01328695,0.0075440905,0.9287181,-1.223276972770691,3.0793607234954834,16.152427673339844,67.058349609375,61.810726165771484, 4.521664619445801
506,1186019034,0.3712873,0.0050658076,0.009330022,0.92845756,-1.7579021453857422,4.238349437713623,13.435730934143066,-10.576573371887207,57.47575378417969, -6.4959716796875
507,1186035701,0.3725635,-0.0034707852,0.0011843821,0.92799956,-1.4123183488845825,4.137813568115234,11.817939758300781,-74.82091522216797,34.08366012573242, -9.612754821777344
508,1186052368,0.37475067,-0.009405025,-0.012569232,0.9269928,-2.6577420234680176,2.2470192909240723,10.995911598205566,-103.94952392578125,3.1047327518463135, -16.934446334838867
509,1186069035,0.37654504,-0.01033146,-0.024853474,0.9260073,-3.3503379821777344,-2.3614821434020996,10.858189582824707,-81.72583770751953,-25.090482711791992, -14.705062866210938
510,1186085702,0.37715355,-0.0058867973,-0.029924298,0.9256486,-4.033717632293701,-4.273370742797852,11.900519371032715,-21.851333618164062,-40.893035888671875, -5.933470726013184
511,1186102369,0.3766029,0.0007178948,-0.029844169,0.9258937,-3.7943856716156006,-3.3770272731781006,11.693344116210938,16.645038604736328,-41.58495330810547, 2.7714998722076416
512,1186119036,0.37541014,0.007256388,-0.026983025,0.9264376,-3.454815149307251,-1.3778105974197388,12.36986255645752,34.269187927246094,-34.13041305541992, 7.628582954406738
513,1186135703,0.37401146,0.011305528,-0.02442996,0.92703336,-3.9717214107513428,-0.3844260573387146,13.379899978637695,25.910568237304688,-19.138614654541016, 9.547574996948242
514,1186152370,0.37287444,0.0121998,-0.022194477,0.9275362,-4.900683403015137,-0.12167859077453613,13.019026756286621,15.738540649414062,0.15223564207553864, 8.192314147949219
515,1186169037,0.37223002,0.011160058,-0.019259244,0.92787355,-5.083128452301025,0.48363205790519714,11.872771263122559,15.175030708312988,14.294425964355469, 4.86086893081665
516,1186185704,0.372296,0.009200657,-0.015650986,0.92793655,-4.784354209899902,1.1566953659057617,10.683276176452637,17.01767921447754,21.907833099365234, -0.3052273392677307
517,1186202371,0.37299088,0.007318497,-0.012067797,0.9277279,-4.8021063804626465,1.3514424562454224,10.451866149902344,16.97397232055664,21.354703903198242, -5.021396160125732
518,1186219038,0.37408224,0.006004027,-0.0092987865,0.92732954,-5.150604248046875,0.5010563731193542,10.7357177734375,13.187379837036133,15.623076438903809, -8.043694496154785
519,1186235705,0.37512723,0.0052836165,-0.0066501745,0.9269345,-4.888984680175781,-0.6627410054206848,10.93526840209961,13.945001602172852,11.475472450256348, -7.773632049560547
520,1186252372,0.375807,0.0040245745,-0.0042831264,0.9266794,-4.914679050445557,-0.7916004657745361,10.355714797973633,10.787318229675293,14.126411437988281, -5.050497055053711
521,1186269039,0.37638932,0.0017015615,-0.0034466917,0.92645365,-4.354532241821289,-0.24818889796733856,9.205501556396484,-1.7025164365768433,16.904253005981445, -4.281077861785889
522,1186285706,0.3770914,-0.00095451204,-0.0037800209,0.92616796,-3.77276611328125,0.06514173746109009,8.058032989501953,-10.015962600708008,15.960721015930176, -5.178164958953857
523,1186302373,0.37785137,-0.0027900396,-0.0040274425,0.9258533,-3.5891637802124023,0.42845308780670166,7.891774654388428,-7.342615604400635,10.92457389831543, -5.643660068511963
524,1186319040,0.37892616,-0.0032791994,-0.0038691862,0.9254131,-3.974153995513916,0.144125834107399,7.875708103179932,-1.2642813920974731,3.38558292388916, -8.004212379455566
525,1186335707,0.38023645,-0.001993188,-0.0026508889,0.9248834,-3.6179537773132324,0.10673694312572479,8.184517860412598,10.106439590454102,-5.175754070281982, -9.75900936126709
526,1186352374,0.38166013,0.00090515416,-0.0002768781,0.92430216,-3.090744733810425,0.30674996972084045,8.594574928283691,21.67047882080078,-12.436880111694336, -10.627439498901367
527,1186369041,0.38323525,0.0049661594,0.0031823227,0.92363197,-2.806063175201416,0.6822088360786438,8.958657264709473,31.614852905273438,-17.00517463684082, -11.829142570495605
528,1186385708,0.3850983,0.009365214,0.0074051246,0.92279845,-2.4849398136138916,0.8477593660354614,9.348321914672852,37.344234466552734,-17.175785064697266, -14.102113723754883
529,1186402375,0.38734055,0.013919786,0.011940543,0.92175436,-2.1617088317871094,1.0042691230773926,9.53007698059082,39.72177505493164,-17.38821029663086, -17.072952270507812
530,1186419042,0.39085308,0.018949779,0.013873365,0.92015344,-2.463676691055298,1.8865876197814941,7.881969928741455,24.41461753845215,-27.50749397277832, -26.31279182434082
531,1186435709,0.39448056,0.024238361,0.011112637,0.9185175,-1.68359375,1.6091639995574951,8.369309425354004,-4.606509685516357,-41.79542541503906, -26.494762420654297
532,1186452376,0.39811507,0.0290516,0.0070814285,0.91684794,-1.4585005044937134,0.9388588070869446,10.2709379196167,-13.925182342529297,-42.26188659667969, -26.45390510559082
533,1186469043,0.40222913,0.033999603,0.0022899893,0.91490465,-1.4757319688796997,0.6406588554382324,10.378576278686523,-18.43115234375,-45.283538818359375, -30.067930221557617
534,1186485710,0.4068639,0.039058678,-0.0023407259,0.9126504,-0.7399482727050781,0.7386177778244019,11.301079750061035,-17.22673797607422,-45.63299560546875, -34.24001693725586
535,1186502377,0.41223088,0.045060582,-0.009834542,0.9099113,-0.3809617757797241,1.242223858833313,9.946354866027832,-32.756858825683594,-59.68533706665039, -39.43948745727539
536,1186519044,0.41745874,0.05316826,-0.021139115,0.90689284,0.922364354133606,1.443966269493103,6.152146339416504,-50.6082878112793,-83.76518249511719, -38.32718276977539
537,1186535711,0.4218022,0.06279972,-0.03309636,0.9039048,3.191636562347412,0.6306541562080383,8.69191837310791,-49.983985900878906,-95.25785064697266, -32.71078109741211
538,1186552378,0.42586702,0.07553983,-0.044520177,0.9005272,3.8690192699432373,-0.46671125292778015,10.483906745910645,-37.622554779052734,-113.24333953857422, -33.0499153137207
539,1186569045,0.42688003,0.089468256,-0.05504678,0.89818645,2.744304656982422,-3.5421557426452637,15.61241626739502,-26.677892684936523,-118.34503936767578, -11.949039459228516
540,1186585712,0.42379743,0.100538455,-0.061032016,0.8980887,-4.13294792175293,-4.200762748718262,24.057403564453125,-3.6233901977539062,-87.52236938476562, 18.20842170715332
541,1186602379,0.42617545,0.11014716,-0.07312361,0.8949274,-15.560138702392578,15.251323699951172,-63.01581954956055,-50.61483383178711,-96.17985534667969, -19.615415573120117
542,1186619046,0.4234989,0.14788611,-0.11086601,0.8868411,53.74913787841797,21.17332649230957,23.25382423400879,-124.84991455078125,-350.9717712402344, 2.362806558609009
543,1186635713,0.42471793,0.15723422,-0.12245698,0.8831175,37.71169662475586,-6.170488357543945,28.850570678710938,-48.81044387817383,-93.70234680175781, -13.533331871032715
544,1186652380,0.4142896,0.18522589,-0.1232986,0.88252664,43.55925750732422,-27.22087860107422,13.867063522338867,86.19063568115234,-181.67982482910156, 39.038631439208984
545,1186669047,0.40492657,0.20781955,-0.12479496,0.88163024,-6.63287878036499,1.679800033569336,15.188370704650879,65.44316101074219,-149.92982482910156, 37.029197692871094
546,1186685714,0.4055882,0.20960689,-0.13972422,0.87865835,-12.241119384765625,0.7425810694694519,15.131661415100098,-90.03600311279297,-55.67642593383789, 7.53420352935791
547,1186702381,0.41200113,0.19965898,-0.1491059,0.87644684,-16.80740737915039,-9.136534690856934,2.8420300483703613,-96.81855010986328,37.14640808105469, -21.8124942779541
548,1186719048,0.41705889,0.1915987,-0.14141968,0.8771273,-5.391558647155762,-8.39663314819336,1.227887749671936,16.269817352294922,76.5339126586914, -30.87183380126953
549,1186735715,0.42016765,0.17374718,-0.13747285,0.87998426,-4.162282466888428,-4.061382293701172,3.3431124687194824,-29.61494255065918,125.77188110351562, 1.5319665670394897
550,1186752382,0.4218072,0.14387123,-0.12931737,0.8858086,-1.9013233184814453,-0.41266581416130066,8.913606643676758,-34.30473327636719,212.80699157714844, 25.31954574584961
551,1186769049,0.4215221,0.10127305,-0.10347536,0.8951848,6.78497314453125,-3.8062071800231934,10.894804000854492,41.596656799316406,343.4482116699219, 41.17607879638672
552,1186785716,0.416007,0.044247434,-0.0621312,0.9061567,21.852914810180664,-9.00105094909668,12.650664329528809,100.0625991821289,474.84967041015625, 77.52116394042969
553,1186802383,0.39703837,-0.021194924,-0.009803871,0.91750485,23.172849655151367,-14.214221000671387,8.685271263122559,148.83853149414062,553.5210571289062, 162.8319091796875
554,1186819050,0.37545574,-0.06610688,0.040064886,0.92361146,15.178190231323242,14.655640602111816,-19.078624725341797,188.72830200195312,417.7167663574219, 163.2357940673828
555,1186835717,0.36679915,-0.08332903,0.059401263,0.92465466,16.97117805480957,21.82926368713379,-5.611416816711426,73.31454467773438,161.52935791015625, 61.699790954589844
556,1186852384,0.35807306,-0.07848524,0.06073857,0.92840433,-4.866828918457031,-0.9435227513313293,-8.297054290771484,13.468911170959473,-25.63835334777832, 66.55966186523438
557,1186869051,0.36551017,-0.05542027,0.04145432,0.9282308,0.7855710983276367,15.709309577941895,10.08182430267334,-63.22263717651367,-197.41329956054688, -48.73049545288086
558,1186885718,0.37087902,-0.033715546,-0.00030913152,0.92806906,4.708832263946533,3.5265250205993652,13.075455665588379,-211.088623046875,-244.68106079101562, -44.460933685302734
559,1186902385,0.3768072,-0.012021448,-0.03229885,0.92565036,5.633742332458496,-6.7643022537231445,16.67976188659668,-148.61489868164062,-219.08456420898438, -51.4883918762207
560,1186919052,0.37944812,0.009852673,-0.039885037,0.9243005,0.48964834213256836,-7.803400039672852,21.557907104492188,7.214667320251465,-157.73085021972656, -25.794084548950195
561,1186935719,0.37716195,0.021529026,-0.034248736,0.92526346,-2.4384374618530273,-8.383172035217285,21.983522415161133,65.6641845703125,-59.59755325317383, 13.450064659118652
562,1186952386,0.37370574,0.019609792,-0.023742102,0.9270361,-2.1880621910095215,-3.127272605895996,20.01483726501465,61.819515228271484,39.35234451293945, 25.460439682006836
563,1186969053,0.37155005,0.0103774285,-0.0128613915,0.92826587,-0.801510751247406,-0.5522764921188354,15.389822959899902,45.17426300048828,87.05029296875, 16.911815643310547
564,1186985720,0.37003,0.0013974962,-0.0015165482,0.9290175,-2.1874349117279053,0.6677296757698059,13.938859939575195,48.698394775390625,86.6395492553711, 11.573322296142578
565,1187002387,0.36899528,-0.005751117,0.0036041273,0.9294064,-2.300593376159668,3.4309988021850586,11.451852798461914,13.58740234375,59.08953094482422, 7.588700771331787
566,1187019054,0.36925888,-0.010914111,-0.0011304594,0.92926186,-2.487461566925049,5.2803521156311035,9.164981842041016,-44.3132209777832,21.367942810058594, -2.4000842571258545
567,1187035721,0.37003976,-0.011920842,-0.010741522,0.9288773,-3.347942590713501,0.5187095403671265,8.60611629486084,-64.92383575439453,-17.568363189697266, -6.707035541534424
568,1187052388,0.370072,-0.0068303198,-0.015557291,0.9288478,-3.6029465198516846,-3.59664249420166,9.702662467956543,-18.82689666748047,-44.42289733886719, -1.0773429870605469
569,1187069055,0.3695085,0.0025272043,-0.012322943,0.92914236,-3.4388816356658936,-3.919884204864502,11.701910972595215,43.473670959472656,-51.300621032714844, 3.4718117713928223
570,1187085722,0.36824363,0.012482041,-0.0048365016,0.9296331,-3.953514575958252,-1.7027719020843506,14.0247220993042,72.21436309814453,-44.397613525390625, 8.320646286010742
571,1187102389,0.36640778,0.018064033,0.0003051657,0.9302789,-3.649609088897705,0.8530704975128174,13.832100868225098,46.22325134277344,-22.4194393157959, 12.705541610717773
572,1187119056,0.36481813,0.019369813,0.0035433038,0.93087053,-3.6736316680908203,1.1272603273391724,13.32706356048584,23.240318298339844,0.10043402761220932, 11.220623016357422
573,1187135723,0.3637765,0.018968005,0.008254554,0.93125665,-4.38059139251709,1.7626805305480957,13.493918418884277,28.31145668029785,14.654213905334473, 6.960641860961914
574,1187152390,0.3633282,0.01790209,0.014030562,0.9313836,-5.000767707824707,3.1122171878814697,12.808900833129883,33.395286560058594,21.46786117553711, 2.3380491733551025
575,1187169057,0.3635348,0.01681158,0.019908221,0.93121624,-4.915996074676514,3.25386118888855,12.032796859741211,33.91242980957031,21.741039276123047, -2.603776454925537
576,1187185724,0.3644973,0.016561719,0.024973655,0.93072224,-5.692470550537109,2.512742280960083,12.410699844360352,30.749900817871094,14.149353981018066, -8.048017501831055
577,1187202391,0.36604777,0.016789801,0.027455702,0.93003947,-5.401865482330322,1.8657937049865723,12.941680908203125,15.368566513061523,4.451358318328857, -11.903491973876953
578,1187219058,0.36759484,0.015643217,0.026842246,0.9294671,-4.4657182693481445,1.0997313261032104,12.512930870056152,-7.911884784698486,5.424870014190674, -11.503453254699707
579,1187235725,0.36911082,0.011822516,0.023242312,0.9290195,-4.178323745727539,0.4073284864425659,10.804633140563965,-33.775672912597656,14.952638626098633, -11.160305976867676
580,1187252392,0.37090567,0.005907599,0.01755805,0.9284858,-3.447561502456665,-0.09223379194736481,8.958841323852539,-52.41023635864258,22.95631980895996, -13.325923919677734
581,1187269059,0.37237838,-0.0005277734,0.01153232,0.9280092,-3.09930419921875,-0.3127876818180084,8.530393600463867,-55.90647506713867,25.421302795410156, -11.175114631652832
582,1187285726,0.37358642,-0.0056392923,0.0071203574,0.927551,-3.56577730178833,0.15895786881446838,8.604970932006836,-42.217681884765625,21.10198211669922, -9.331308364868164
583,1187302393,0.37497973,-0.008481941,0.0052284193,0.92697954,-3.5767080783843994,0.22453473508358002,8.941136360168457,-20.305734634399414,13.073105812072754, -10.596089363098145
584,1187319060,0.3764141,-0.008739412,0.007075988,0.92638344,-3.7548635005950928,-0.5353465676307678,9.293944358825684,10.195099830627441,6.211040496826172, -10.610428810119629
585,1187335727,0.3776203,-0.006885543,0.012078541,0.9258562,-3.937713861465454,-0.3241460621356964,9.348034858703613,35.74290466308594,0.9081858396530151, -8.685308456420898
586,1187352394,0.3787682,-0.0042439043,0.018140307,0.9253041,-3.4076037406921387,0.6613876223564148,9.017621040344238,44.53424072265625,-1.3787543773651123, -8.258207321166992
587,1187369061,0.38054168,-0.0012991583,0.025193552,0.92441976,-2.147489309310913,1.9267770051956177,9.567900657653809,51.68871307373047,-0.817732036113739, -13.031243324279785
588,1187385728,0.38350585,0.0026972939,0.028504167,0.9230946,-2.4472036361694336,2.7822444438934326,8.047971725463867,30.729461669921875,-17.509920120239258, -21.598487854003906
589,1187402395,0.38720578,0.007564274,0.0280358,0.9215361,-2.117988109588623,2.37833833694458,9.302995681762695,9.056831359863281,-33.16591262817383, -26.63763999938965
590,1187419062,0.39132488,0.01208528,0.025250334,0.91982675,-2.3355395793914795,0.5559068918228149,10.827618598937988,-6.548847675323486,-37.24568176269531, -29.638383865356445
591,1187435729,0.39566204,0.01687656,0.021571431,0.9179877,-2.015287160873413,0.30774733424186707,10.517386436462402,-11.462669372558594,-41.42289733886719, -31.245195388793945
592,1187452396,0.4006595,0.02182893,0.016822692,0.91581255,-0.8891409635543823,1.375343680381775,9.011911392211914,-17.796485900878906,-45.5012092590332, -36.17890167236328
593,1187469063,0.40599307,0.027016273,0.008730456,0.9134351,-0.06324172019958496,0.8351266384124756,8.164575576782227,-38.231441497802734,-56.26889419555664, -38.32505416870117
594,1187485730,0.41129518,0.033997595,-0.0022322019,0.91086537,0.8602668642997742,0.2573038637638092,8.145562171936035,-51.232948303222656,-75.58631134033203, -38.02729415893555
595,1187502397,0.416238,0.04362205,-0.015225563,0.9080813,2.1255695819854736,0.8713169097900391,9.342299461364746,-56.39125442504883,-97.93628692626953, -35.95497512817383
596,1187519064,0.42058903,0.05399534,-0.030243069,0.90513813,2.1196370124816895,0.6074888110160828,9.615403175354004,-66.72712707519531,-108.50322723388672, -32.19070816040039
597,1187535731,0.42394915,0.064674184,-0.045162506,0.90224427,1.4574848413467407,-1.518471121788025,9.153573036193848,-64.85578155517578,-110.29854583740234, -25.985679626464844
598,1187552398,0.42500353,0.07675366,-0.057098877,0.9001226,0.46410179138183594,-2.2849647998809814,12.90274715423584,-40.9886360168457,-110.66090393066406, -11.198771476745605
599,1187569065,0.42418492,0.08534161,-0.071306154,0.89872104,-2.817535877227783,-0.320964515209198,18.78074073791504,-63.959293365478516,-96.05126190185547, 5.057868480682373
600,1187585732,0.42681882,0.09282659,-0.0927241,0.89476895,-13.809479713439941,10.98123550415039,-53.40544128417969,-115.01724243164062,-110.11550903320312, -18.953845977783203
601,1187602399,0.42247942,0.13768026,-0.12150825,0.8875759,52.3807487487793,24.66150665283203,28.122108459472656,-48.366153717041016,-368.3916015625, -4.679707050323486
602,1187619066,0.42042893,0.14399265,-0.13588552,0.8854608,42.59538650512695,-1.8520758152008057,19.90428352355957,-70.49583435058594,-84.07442474365234, 14.79076099395752
603,1187635733,0.4085849,0.1751223,-0.13731055,0.885176,36.48404312133789,-34.31031799316406,20.702577590942383,91.53410339355469,-204.788818359375, 43.74137878417969
604,1187652400,0.40125212,0.19504488,-0.14052422,0.8838594,-11.323748588562012,1.6319421529769897,10.921671867370605,42.99131774902344,-138.3214111328125, 26.013031005859375
605,1187669067,0.40465572,0.19434558,-0.15584601,0.87988406,-9.613753318786621,-3.8446543216705322,14.634483337402344,-104.46900939941406,-39.724796295166016, -10.404533386230469
606,1187685734,0.41208056,0.18475576,-0.16161028,0.87746066,-15.434576034545898,-11.563745498657227,-0.009146302938461304,-75.07897186279297,46.907588958740234, -33.67835998535156
607,1187702401,0.41592678,0.17527251,-0.15321848,0.8790954,-5.5001935958862305,-6.307555198669434,1.6968258619308472,19.755971908569336,87.41885375976562, -18.752573013305664
608,1187719068,0.41737816,0.15569352,-0.14596938,0.8833166,-5.71047306060791,0.07204961031675339,4.618365287780762,-10.372601509094238,145.71353149414062, 15.106501579284668
609,1187735735,0.41771126,0.12282681,-0.13079588,0.890687,-2.9350173473358154,1.557053804397583,8.818788528442383,3.9750919342041016,251.378662109375, 35.794185638427734
610,1187752402,0.41617614,0.07573821,-0.09603792,0.9010205,7.914731025695801,-7.452638626098633,9.522619247436523,87.33573913574219,395.6630859375, 52.02883529663086
611,1187769069,0.40690058,0.013349811,-0.04997769,0.9120067,26.098108291625977,-12.998503684997559,13.263051986694336,118.15428161621094,518.3571166992188, 106.14998626708984
612,1187785736,0.3844536,-0.052840944,0.00745498,0.9216008,20.187339782714844,-2.71185040473938,6.418858528137207,179.77938842773438,569.8018798828125, 185.27902221679688
613,1187802403,0.37079662,-0.081682645,0.052668378,0.9236147,26.10425567626953,22.293174743652344,-36.18233108520508,204.5359344482422,302.6632385253906, 106.84114074707031
614,1187819070,0.35991234,-0.09736465,0.05774106,0.9260936,1.4727474451065063,9.313427925109863,9.945298194885254,-15.831367492675781,115.44841766357422, 72.9456558227539
615,1187835737,0.36033213,-0.08180577,0.052429304,0.9277499,-7.164455890655518,11.000907897949219,-8.298646926879883,3.2894527912139893,-113.10242462158203, 3.979464530944824
616,1187852404,0.36862704,-0.058837183,0.017665206,0.92754537,3.670300245285034,9.888545036315918,10.925202369689941,-161.27005004882812,-235.28466796875, -64.76127624511719
617,1187869071,0.37441415,-0.036881313,-0.027904341,0.92610765,6.210861682891846,-4.0276875495910645,14.342100143432617,-233.7416229248047,-255.4114227294922, -56.369667053222656
618,1187885738,0.3798318,-0.013003462,-0.0504988,0.92358476,4.650345802307129,-8.892930030822754,17.279741287231445,-82.69313049316406,-208.17335510253906, -51.308204650878906
619,1187902405,0.3812857,0.009362293,-0.04766552,0.9231803,-0.36266714334487915,-8.84010124206543,21.369998931884766,75.28800201416016,-133.66055297851562, -17.792831420898438
620,1187919072,0.3793964,0.021733804,-0.031891588,0.924429,-2.935934066772461,-6.466749668121338,22.93790626525879,132.04595947265625,-37.276248931884766, 10.19046688079834
621,1187935739,0.3777071,0.018980075,-0.018146627,0.92555285,-0.8506792783737183,-1.04048752784729,18.984106063842773,79.68045043945312,53.57508087158203, 12.194743156433105
622,1187952406,0.37753493,0.008704,-0.008912214,0.9259116,-0.03890417516231537,1.0512791872024536,15.664819717407227,31.156970977783203,89.81465148925781, 2.0733823776245117
623,1187969073,0.37763578,-0.00049669744,-0.0029131023,0.92594963,-1.0713199377059937,1.669167399406433,12.879246711730957,13.308812141418457,74.56687927246094, -0.3707769215106964
624,1187985740,0.3779257,-0.0064285994,-0.0017374041,0.9258122,-1.8510262966156006,1.9618350267410278,10.53192138671875,-8.926566123962402,41.22771072387695, -2.111767053604126
625,1188002407,0.37960127,-0.0077490294,-0.0036668365,0.9251106,-4.052380561828613,1.376767873764038,10.901056289672852,-16.670795440673828,3.830634832382202, -12.588290214538574
626,1188019074,0.38069233,-0.004857181,-0.0068330094,0.9246637,-4.363929748535156,-0.9922793507575989,12.333521842956543,-13.579732894897461,-26.250442504882812, -8.375945091247559
627,1188035741,0.38065615,0.0019132838,-0.007777718,0.92468196,-2.6574316024780273,-3.3001511096954346,12.274344444274902,10.687126159667969,-45.195777893066406, -0.10035131126642227
628,1188052408,0.3801608,0.012004552,-0.004858011,0.9248298,-2.243859052658081,-3.309985399246216,12.747946739196777,43.9864616394043,-56.23817443847656, 2.9260151386260986
629,1188069075,0.37894955,0.022122882,-0.00030765872,0.92515284,-3.6482291221618652,-1.2723642587661743,15.117551803588867,54.51847839355469,-52.17546463012695, 7.7953267097473145
630,1188085742,0.37727627,0.026355274,0.0014414974,0.9257246,-4.576045513153076,-0.2995053231716156,15.588356971740723,21.449419021606445,-22.025136947631836, 11.817802429199219
631,1188102409,0.37567762,0.024070771,0.0011134085,0.92643714,-3.874070167541504,0.05002748966217041,13.03278923034668,-8.68310260772705,14.053024291992188, 12.019218444824219
632,1188119076,0.37465352,0.019546311,0.0027499888,0.92695487,-2.9901068210601807,1.504132628440857,11.803215980529785,-2.0446577072143555,33.32550811767578, 7.515521049499512
633,1188135743,0.37434286,0.015925542,0.007032384,0.927127,-3.3535614013671875,2.2438039779663086,12.162363052368164,17.046754837036133,34.29523468017578, 1.7419863939285278
634,1188152410,0.37481588,0.015189417,0.012186702,0.92689496,-4.4527907371521,2.311023235321045,12.696137428283691,29.947965621948242,18.041749954223633, -4.247897624969482
635,1188169077,0.3754739,0.016197352,0.015717084,0.92655826,-5.37885046005249,1.3239375352859497,13.898191452026367,24.068437576293945,2.6807267665863037, -5.378139972686768
636,1188185744,0.37597778,0.016048914,0.017389433,0.92632663,-5.004467010498047,-0.3195362687110901,14.006000518798828,9.248308181762695,5.238420486450195, -4.040482044219971
637,1188202411,0.37619984,0.013940475,0.017796624,0.9262628,-4.724886894226074,-0.6562647223472595,12.23117733001709,-3.8554959297180176,14.465481758117676, -1.9053431749343872
638,1188219078,0.3764174,0.009988722,0.016646717,0.92624694,-4.381182670593262,-0.3656167984008789,10.573049545288086,-18.53410530090332,22.145475387573242, -1.828060269355774
639,1188235745,0.37681326,0.0053706793,0.014773011,0.9261558,-4.2187042236328125,0.21959811449050903,9.577689170837402,-24.864543914794922,24.45465850830078, -3.1841461658477783
640,1188252412,0.37745348,0.0010755699,0.0126875555,0.9259411,-3.6689929962158203,0.7975986003875732,9.346498489379883,-25.37200355529785,21.785795211791992, -5.0193281173706055
641,1188269079,0.3782319,-0.0024858844,0.01081159,0.92564446,-3.8170835971832275,0.07695084065198898,9.333436965942383,-22.13262367248535,17.616727828979492, -6.049826622009277
642,1188285746,0.3786971,-0.0048862644,0.010593434,0.9254474,-4.048633098602295,-0.535997748374939,9.346508026123047,-8.574256896972656,14.529975891113281, -3.68198299407959
643,1188302413,0.37884244,-0.006693581,0.011822122,0.9253616,-3.746887445449829,-0.3891561031341553,8.872200965881348,2.1626546382904053,14.511481285095215, -1.2651914358139038
644,1188319080,0.3787193,-0.0079146605,0.01427133,0.92536783,-3.4597480297088623,-0.08723156154155731,8.095864295959473,11.438599586486816,13.948789596557617, 0.7880076766014099
645,1188335747,0.3788451,-0.008005235,0.018516134,0.9252402,-3.054565191268921,0.7998775839805603,7.788483619689941,25.834125518798828,11.386972427368164, -0.9333934783935547
646,1188352414,0.38003743,-0.007006108,0.02333896,0.9246501,-2.8870139122009277,2.224949598312378,7.5284833908081055,32.46135711669922,5.825856685638428, -8.747900009155273
647,1188369081,0.38250613,-0.0038942709,0.0255984,0.92359006,-2.900665760040283,3.109327793121338,6.68996000289917,21.806121826171875,-14.508251190185547, -17.869047164916992
648,1188385748,0.38564423,0.0011954431,0.025381787,0.92229766,-2.3372042179107666,2.4915614128112793,8.104442596435547,11.32081413269043,-33.71559143066406, -22.44439697265625
649,1188402415,0.38883784,0.0068845563,0.023731202,0.9209748,-2.007676601409912,0.9541415572166443,10.000385284423828,3.806236982345581,-41.34690475463867, -22.757190704345703
650,1188419082,0.39203843,0.012242785,0.021550499,0.9196149,-1.419146180152893,0.5387474298477173,11.317615509033203,-0.4296947717666626,-40.68562698364258, -22.92732048034668
651,1188435749,0.39617562,0.018481541,0.015881497,0.9178515,-1.5044742822647095,1.9510540962219238,8.343921661376953,-20.12652587890625,-55.837059020996094, -29.512929916381836
652,1188452416,0.40108106,0.024563929,0.0070172865,0.91568637,-0.35946860909461975,2.781619071960449,6.660290718078613,-40.77950668334961,-63.703182220458984, -35.067596435546875
653,1188469083,0.4062519,0.0312315,-0.005361054,0.9132117,0.6138814091682434,1.7260041236877441,7.189682960510254,-61.337974548339844,-77.15159606933594, -36.97294998168945
654,1188485750,0.4122574,0.0402379,-0.01801021,0.91000026,1.140907883644104,0.8096005916595459,8.52734661102295,-56.72050476074219,-92.72173309326172, -44.30386734008789
655,1188502417,0.41766268,0.051456254,-0.031451978,0.9065987,2.4420387744903564,0.5766950845718384,9.888648986816406,-55.26813507080078,-108.93228912353516, -41.14651870727539
656,1188519084,0.41981715,0.06528978,-0.04555304,0.90411055,2.5131747722625732,-1.6385126113891602,8.702276229858398,-50.52164840698242,-127.49481201171875, -18.59447479248047
657,1188535751,0.4194988,0.079885066,-0.057398003,0.90241045,0.006526008248329163,0.08561043441295624,11.50338363647461,-32.92657470703125,-126.12542724609375, -2.203784704208374
658,1188552418,0.41751003,0.08838512,-0.07158663,0.9015258,-3.812849283218384,-1.6908671855926514,21.751893997192383,-63.81270980834961,-95.28997802734375, 14.202096939086914
659,1188569085,0.42016032,0.10414863,-0.09005684,0.8969439,-12.509871482849121,15.519168853759766,-80.79913330078125,-74.13456726074219,-152.6338653564453, -26.153474807739258
660,1188585752,0.41814283,0.13881356,-0.13136014,0.88804966,57.26597595214844,18.0764217376709,56.110511779785156,-159.8498077392578,-341.3471984863281, -5.148810386657715
661,1188602419,0.41634765,0.15466024,-0.13886005,0.8851287,30.87411880493164,-5.375650405883789,3.2656970024108887,-2.456157922744751,-122.7968978881836, -4.473777770996094
662,1188619086,0.40438706,0.17644571,-0.13791883,0.88674486,37.5843391418457,-30.318241119384766,24.75130271911621,81.11320495605469,-139.40951538085938, 55.74828338623047
663,1188635753,0.3965027,0.19272816,-0.1411308,0.8864105,-1.1849693059921265,-4.4955573081970215,20.407054901123047,33.9196662902832,-115.63682556152344, 35.622886657714844
664,1188652420,0.39908752,0.1917154,-0.15159495,0.8837382,-6.702284336090088,1.2033966779708862,13.26948356628418,-73.54713439941406,-23.013601303100586, -8.181957244873047
665,1188669087,0.40871128,0.17782834,-0.16279823,0.8802437,-18.231700897216797,-11.208609580993652,-0.466228187084198,-123.52640533447266,59.329673767089844, -38.809059143066406
666,1188685754,0.41398636,0.16644002,-0.1533559,0.8817002,-6.717055797576904,-13.327828407287598,1.1721596717834473,19.38639259338379,103.24176025390625, -26.684206008911133
667,1188702421,0.41562766,0.14645225,-0.1419747,0.8863682,-5.381084442138672,-3.5203452110290527,4.423506736755371,14.303352355957031,160.6728973388672, 11.275794982910156
668,1188719088,0.4143138,0.11104358,-0.12525466,0.8946088,-1.8809106349945068,2.4562361240386963,8.324972152709961,9.258638381958008,270.60516357421875, 49.17612075805664
669,1188735755,0.40945235,0.059105236,-0.09447609,0.90549976,11.724867820739746,-1.4003472328186035,11.885375022888184,53.63869094848633,411.4309387207031, 82.11083221435547
670,1188752422,0.39448375,-0.0064582014,-0.049636427,0.9175387,24.652935028076172,-9.995978355407715,10.07868480682373,107.7624740600586,530.1478881835938, 151.5469970703125
671,1188769089,0.37363166,-0.06659858,0.0069435695,0.9251573,19.466249465942383,7.372746467590332,-3.4639785289764404,194.9632110595703,526.2152099609375, 175.419921875
672,1188785756,0.36606377,-0.08862185,0.05091656,0.92496,20.647001266479492,17.913312911987305,-24.163665771484375,218.93357849121094,253.91696166992188, 66.7166976928711
673,1188802423,0.35480818,-0.09935859,0.06276001,0.9275238,1.5648390054702759,1.9215463399887085,-2.4798927307128906,39.83233642578125,100.83599090576172, 80.42259979248047
674,1188819090,0.3591669,-0.08491382,0.051934894,0.92795026,-4.654856204986572,14.160624504089355,-0.09108208119869232,-32.38653564453125,-120.28250122070312, -26.676612854003906
675,1188835757,0.36584544,-0.056077108,0.02269219,0.92870754,3.486231803894043,7.037545204162598,7.182198524475098,-112.91236877441406,-258.7709655761719, -47.58129119873047
676,1188852424,0.37392318,-0.026663747,-0.016739199,0.92692524,8.686488151550293,-0.10615915060043335,16.429670333862305,-175.68743896484375,-287.3368225097656, -66.72958374023438
677,1188869091,0.38066745,-0.00030216848,-0.04308806,0.92370766,4.385430812835693,-8.660680770874023,19.26325798034668,-100.52156829833984,-233.99635314941406, -59.12515640258789
