PacketCounter,SampleTimeFine,Quat_W,Quat_X,Quat_Y,Quat_Z,Acc_X,Acc_Y,Acc_Z,Gyr_X,Gyr_Y,Gyr_Z 
2,220515722,-0.011173901,-0.3277183,0.10254413,-0.93912756,6.0529961585998535,-1.7445157766342163,7.367216110229492,0.5604506731033325,0.2940785884857178, 1.9769608974456787
3,220532389,-0.011062531,-0.3283416,0.10222173,-0.93894637,6.071422100067139,-1.7204867601394653,7.401468276977539,0.4642365872859955,0.4342825710773468, 2.0879409313201904
4,220549056,-0.011256376,-0.32881323,0.101868615,-0.9388174,6.088551998138428,-1.7479451894760132,7.395051002502441,0.5214937925338745,0.43401363492012024, 2.185896635055542
5,220565723,-0.011427492,-0.32916442,0.10165391,-0.9387155,6.085203647613525,-1.7558866739273071,7.386173248291016,0.599868655204773,0.5896875262260437, 2.239875316619873
6,220582390,-0.011529142,-0.3293941,0.101522624,-0.9386478,6.03661584854126,-1.7800934314727783,7.377268314361572,0.7485760450363159,0.8123131990432739, 2.1828105449676514
7,220599057,-0.0117140915,-0.3294748,0.10154403,-0.9386149,5.9915666580200195,-1.7824914455413818,7.402692794799805,0.8948244452476501,0.773612380027771, 2.2255449295043945
8,220615724,-0.011809526,-0.32943365,0.10159766,-0.9386225,5.959632396697998,-1.7891566753387451,7.3828654289245605,0.9347419142723083,0.6370198726654053, 2.1799802780151367
9,220632391,-0.011874097,-0.32930046,0.10170767,-0.9386564,5.935026168823242,-1.806067705154419,7.382013320922852,0.8694295883178711,0.6436023712158203, 2.2548460960388184
10,220649058,-0.011858895,-0.3291254,0.10187045,-0.93870026,5.92104959487915,-1.8026978969573975,7.399411201477051,0.6275815963745117,0.5294209122657776, 2.3260109424591064
11,220665725,-0.0117407795,-0.32893187,0.10202999,-0.93875223,5.90482759475708,-1.8185806274414062,7.393156051635742,0.5396788120269775,0.3967215120792389, 2.3697445392608643
12,220682392,-0.011710113,-0.3287122,0.10223245,-0.9388076,5.92133903503418,-1.8010445833206177,7.361367702484131,0.5977299809455872,0.3062574863433838, 2.375225782394409
13,220699059,-0.011707444,-0.32851127,0.1024476,-0.93885463,5.948522090911865,-1.7921022176742554,7.397151947021484,0.46898773312568665,0.2128223329782486, 2.236558675765991
14,220715726,-0.0114761265,-0.3283608,0.102553144,-0.9388985,5.977288722991943,-1.804658055305481,7.383627891540527,0.5523698925971985,0.09559299796819687, 2.1400885581970215
15,220732393,-0.011290791,-0.32822523,0.10262195,-0.93894064,6.013520240783691,-1.8011325597763062,7.394015789031982,0.7993916273117065,0.1212313249707222, 1.9459058046340942
16,220749060,-0.011045044,-0.32811078,0.102640286,-0.9389816,6.0522308349609375,-1.796264410018921,7.378847122192383,0.8869357109069824,0.19736507534980774, 1.833888292312622
17,220765727,-0.010901584,-0.32798392,0.10269302,-0.93902194,6.0624494552612305,-1.7958862781524658,7.377072811126709,0.7461299300193787,0.4352557957172394, 1.7457038164138794
18,220782394,-0.010736234,-0.32786328,0.10274158,-0.93906057,6.07423210144043,-1.7797421216964722,7.378076553344727,0.5572363138198853,0.6065406799316406, 1.6281031370162964
19,220799061,-0.010429739,-0.32776055,0.10273607,-0.93910044,6.047852993011475,-1.7820086479187012,7.384149074554443,0.47847726941108704,0.7414044737815857, 1.5903629064559937
20,220815728,-0.010293295,-0.32764128,0.102784984,-0.93913823,6.024712085723877,-1.7774136066436768,7.402085304260254,0.43725359439849854,0.80474454164505, 1.5634183883666992
21,220832395,-0.010184942,-0.32751662,0.102841705,-0.9391766,5.9858174324035645,-1.7781782150268555,7.402075290679932,0.4689237177371979,0.8193438053131104, 1.6516156196594238
22,220849062,-0.009903452,-0.3274103,0.10281586,-0.9392196,5.960526943206787,-1.7858928442001343,7.37031364440918,0.7001038789749146,0.773612380027771, 1.7575881481170654
23,220865729,-0.009794185,-0.3272895,0.10284297,-0.93926,5.937746524810791,-1.7705583572387695,7.368811130523682,0.7738812565803528,0.7175974249839783, 1.7849937677383423
24,220882396,-0.009607402,-0.3271734,0.10286334,-0.9393001,5.95526123046875,-1.8018547296524048,7.3886919021606445,0.7027036547660828,0.6878995299339294, 1.9378634691238403
25,220899063,-0.009392573,-0.32706797,0.10289188,-0.9393359,5.943212032318115,-1.8048834800720215,7.3947529792785645,0.6279401779174805,0.5965645909309387, 2.0160205364227295
26,220915730,-0.009131331,-0.326954,0.10292228,-0.9393747,5.977540016174316,-1.811852216720581,7.408790588378906,0.5601177215576172,0.6520545482635498, 2.1124651432037354
27,220932397,-0.008914266,-0.32681146,0.10296735,-0.93942136,5.964573383331299,-1.8129570484161377,7.3767409324646,0.6322942972183228,0.8023370504379272, 2.197985887527466
28,220949064,-0.008785228,-0.3266589,0.103047125,-0.93946695,5.983620643615723,-1.7888849973678589,7.387756824493408,0.4798474609851837,0.8478893041610718, 2.0415947437286377
29,220965731,-0.008569385,-0.3265248,0.103105955,-0.93950915,5.986756324768066,-1.7930328845977783,7.402041435241699,0.3691878914833069,0.8035920858383179, 2.015674591064453
30,220982398,-0.008307301,-0.3264197,0.103126176,-0.93954587,5.981319427490234,-1.7919572591781616,7.3871026039123535,0.49502310156822205,0.6458562016487122, 1.9438694715499878
31,220999065,-0.008075984,-0.32631284,0.103142105,-0.9395832,5.992259979248047,-1.7512991428375244,7.414010047912598,0.5754085183143616,0.650568962097168, 1.9027866125106812
32,221015732,-0.007904106,-0.32622278,0.10320364,-0.9396092,6.020759582519531,-1.823629379272461,7.402390480041504,0.3336758315563202,0.4944083094596863, 1.8987396955490112
33,221032399,-0.007704101,-0.32611555,0.10321599,-0.9396468,5.981235504150391,-1.8200985193252563,7.408405780792236,0.7106436491012573,0.6383773684501648, 1.9596598148345947
34,221049066,-0.0074507645,-0.3260028,0.103227295,-0.9396866,5.966276168823242,-1.8613231182098389,7.374716281890869,0.6637211441993713,0.6964541077613831, 2.079655170440674
35,221065733,-0.0072204745,-0.3258707,0.10327542,-0.9397289,5.95678186416626,-1.833974003791809,7.391842842102051,0.5177415013313293,0.8091500401496887, 2.1672890186309814
36,221082400,-0.0069344854,-0.3257506,0.103317305,-0.93976814,5.925801753997803,-1.7961474657058716,7.398941516876221,0.46652892231941223,0.7517775893211365, 2.2220234870910645
37,221099067,-0.0066574076,-0.32565328,0.103346616,-0.9398006,5.896564960479736,-1.795320749282837,7.395339012145996,0.5071762800216675,0.5872927904129028, 2.112170457839966
38,221115734,-0.006491865,-0.32557604,0.1033948,-0.93982327,5.905106544494629,-1.7950727939605713,7.38748836517334,0.6129952073097229,0.3463541567325592, 2.0334372520446777
39,221132401,-0.0062076487,-0.32552895,0.1033759,-0.9398436,5.92932653427124,-1.8122320175170898,7.403676986694336,0.7671452164649963,0.22227342426776886, 1.9541914463043213
40,221149068,-0.005972179,-0.32548615,0.1033334,-0.9398646,5.96511697769165,-1.8667274713516235,7.377229690551758,0.9895403385162354,0.17034365236759186, 1.809581995010376
41,221165735,-0.0057283416,-0.32545593,0.10325634,-0.9398851,5.993842124938965,-1.8567209243774414,7.387084007263184,1.113953948020935,0.1336662769317627, 1.6038864850997925
42,221182402,-0.005597815,-0.32539928,0.10326169,-0.93990487,6.014480113983154,-1.8319919109344482,7.40658712387085,0.696198046207428,0.27959465980529785, 1.5261263847351074
43,221199069,-0.005456489,-0.3253241,0.10329584,-0.93992794,6.0238037109375,-1.826356291770935,7.411239147186279,0.4373176693916321,0.441454142332077, 1.5552352666854858
44,221215736,-0.0053191325,-0.32525826,0.10332049,-0.9399488,6.053783416748047,-1.8235650062561035,7.4211249351501465,0.4330531060695648,0.4095022678375244, 1.4336645603179932
45,221232403,-0.00522311,-0.32518584,0.1033196,-0.9399745,6.058956623077393,-1.8243170976638794,7.412156581878662,0.6240085959434509,0.472714364528656, 1.264646291732788
46,221249070,-0.005218319,-0.32509148,0.10330846,-0.94000846,6.030958652496338,-1.8301421403884888,7.416190147399902,0.9000495672225952,0.5859225392341614, 1.1882308721542358
47,221265737,-0.005084112,-0.32501534,0.10325263,-0.94004166,5.972582817077637,-1.8345391750335693,7.404640197753906,0.7986743450164795,0.5984086990356445, 1.0637017488479614
48,221282404,-0.0049568214,-0.32493445,0.10320897,-0.94007516,5.907625198364258,-1.8361645936965942,7.373075485229492,0.760076105594635,0.617323637008667, 1.1146197319030762
49,221299071,-0.004724894,-0.3248772,0.103141755,-0.9401034,5.9074015617370605,-1.8096882104873657,7.39629602432251,0.6936367750167847,0.5149112939834595, 1.153090238571167
50,221315738,-0.0044647506,-0.32483843,0.10308356,-0.9401245,5.905269145965576,-1.8082705736160278,7.383783340454102,0.6507994532585144,0.36355307698249817, 1.2901309728622437
51,221332405,-0.004272272,-0.32481477,0.103037335,-0.9401386,5.915518760681152,-1.8081001043319702,7.380924224853516,0.8424338102340698,0.15893320739269257, 1.4043378829956055
52,221349072,-0.004086909,-0.3247973,0.10301576,-0.94014776,5.946125507354736,-1.8093048334121704,7.372208118438721,0.7809248566627502,0.07091517001390457, 1.5613822937011719
53,221365739,-0.003897485,-0.32477182,0.10300976,-0.94015807,5.981923580169678,-1.8211203813552856,7.389773368835449,0.619103729724884,0.14639578759670258, 1.5385868549346924
54,221382406,-0.0036928463,-0.3247489,0.10300131,-0.9401678,5.994938850402832,-1.8092604875564575,7.38172721862793,0.6486865282058716,0.1289919763803482, 1.6098417043685913
55,221399073,-0.0035829055,-0.32471958,0.10299716,-0.94017875,6.002429962158203,-1.8404213190078735,7.383758068084717,0.7975859045982361,0.12645630538463593, 1.5032927989959717
56,221415740,-0.00329939,-0.3247067,0.1029047,-0.9401944,5.980197906494141,-1.8283071517944336,7.373697757720947,1.023169755935669,0.14832954108715057, 1.4858630895614624
57,221432407,-0.0031225386,-0.3246628,0.10286213,-0.94021475,5.990031719207764,-1.8115299940109253,7.358336925506592,0.7979059815406799,0.33635231852531433, 1.3489118814468384
58,221449074,-0.0028939403,-0.3246092,0.102828406,-0.9402377,5.9937028884887695,-1.7910065650939941,7.367020606994629,0.5887143611907959,0.4600617587566376, 1.3757158517837524
59,221465741,-0.002785386,-0.32454452,0.10283887,-0.9402592,6.015775203704834,-1.8156942129135132,7.394161701202393,0.46748942136764526,0.481499582529068, 1.264262080192566
60,221482408,-0.002656079,-0.3244604,0.102835506,-0.940289,6.028022289276123,-1.8080296516418457,7.378058910369873,0.45300543308258057,0.6682929396629333, 1.1861305236816406
61,221499075,-0.0026264943,-0.32436496,0.10288107,-0.94031703,6.024024486541748,-1.8220006227493286,7.401300430297852,0.33689022064208984,0.6816756129264832, 1.2011778354644775
62,221515742,-0.0025063127,-0.32428247,0.10286638,-0.9403474,6.0062360763549805,-1.811867594718933,7.404202938079834,0.5405623912811279,0.6691765785217285, 1.152449607849121
63,221532409,-0.0023951114,-0.3241923,0.10284152,-0.9403815,5.976981163024902,-1.8002206087112427,7.406644344329834,0.6439608335494995,0.7213369011878967, 1.1520271301269531
64,221549076,-0.0023061526,-0.32410428,0.102837674,-0.9404126,5.964487552642822,-1.8070615530014038,7.406349182128906,0.6112918257713318,0.666384756565094, 1.2572184801101685
65,221565743,-0.0022349511,-0.32402295,0.10283882,-0.94044054,5.926486492156982,-1.8114007711410522,7.397949695587158,0.6375705003738403,0.5957833528518677, 1.283420443534851
66,221582410,-0.0020594834,-0.32395467,0.10282256,-0.94046617,5.901230812072754,-1.8194918632507324,7.401345729827881,0.7102978229522705,0.5160895586013794, 1.5701802968978882
67,221599077,-0.0018692594,-0.32389185,0.10282907,-0.9404876,5.896340847015381,-1.8038336038589478,7.390018463134766,0.5790198445320129,0.46012574434280396, 1.6929545402526855
68,221615744,-0.0018322861,-0.32382637,0.102906086,-0.94050175,5.9022345542907715,-1.7968813180923462,7.406352519989014,0.5600793361663818,0.31600308418273926, 1.8503831624984741
69,221632411,-0.0016284651,-0.32378906,0.10292929,-0.9405124,5.933009624481201,-1.8053709268569946,7.420192718505859,0.566046953201294,0.22838202118873596, 1.8993415832519531
70,221649078,-0.001375428,-0.3237681,0.1029142,-0.9405217,5.980507850646973,-1.8229109048843384,7.401512145996094,0.7462964653968811,0.13729047775268555, 1.9050533771514893
71,221665745,-0.0010871949,-0.32375243,0.102886654,-0.94053054,5.9953484535217285,-1.8154993057250977,7.3891096115112305,0.8652674555778503,0.09538809210062027, 2.0491504669189453
72,221682412,-0.0009796144,-0.32371625,0.102923654,-0.940539,6.032901763916016,-1.8182567358016968,7.368906497955322,0.8695192337036133,0.09855126589536667, 2.0818066596984863
73,221699079,-0.00079168554,-0.32368916,0.10294827,-0.9405459,6.032083034515381,-1.8055776357650757,7.404675483703613,0.6814067363739014,0.13046470284461975, 2.0092458724975586
74,221715746,-0.00071373954,-0.32363185,0.10297975,-0.9405621,6.012861251831055,-1.8149306774139404,7.347986221313477,0.9493922591209412,0.25664567947387695, 2.0404038429260254
75,221732413,-0.0004874844,-0.3236005,0.10292329,-0.94057935,5.979372978210449,-1.797945499420166,7.376009941101074,1.1327153444290161,0.2238357812166214, 1.8799402713775635
76,221749080,-0.00039024957,-0.32354534,0.10295042,-0.9405954,5.995786666870117,-1.807591438293457,7.3982744216918945,0.8360689878463745,0.3000079393386841, 1.9317547082901
77,221765747,-0.00020985023,-0.32350475,0.102937974,-0.9406107,5.9908447265625,-1.828978180885315,7.371433734893799,0.9219995737075806,0.2619090676307678, 1.930781364440918
78,221782414,-0.00002291036,-0.32344472,0.10294847,-0.9406302,6.0113420486450195,-1.8725398778915405,7.392276287078857,0.7959338426589966,0.3972465693950653, 2.0467045307159424
79,221799081,0.00019765677,-0.32336968,0.1029765,-0.940653,6.023036003112793,-1.830027461051941,7.384819507598877,0.6723526120185852,0.5130544900894165, 2.198664665222168
80,221815748,0.00043142174,-0.32328585,0.10301855,-0.94067705,6.014372825622559,-1.8321679830551147,7.377388000488281,0.5551616549491882,0.5883557796478271, 2.246368408203125
81,221832415,0.0006166772,-0.3231614,0.10309508,-0.94071126,6.001898765563965,-1.7989975214004517,7.364606857299805,0.45510566234588623,0.8442650437355042, 2.3242695331573486
82,221849082,0.0008748104,-0.3230476,0.10315603,-0.9407436,5.989610195159912,-1.7980515956878662,7.376546382904053,0.4283788204193115,0.8182936906814575, 2.3923091888427734
83,221865749,0.0010966717,-0.3229323,0.10323196,-0.9407745,5.969254970550537,-1.7748377323150635,7.384365558624268,0.43644678592681885,0.7959722280502319, 2.440371513366699
84,221882416,0.0013020416,-0.32283536,0.10329794,-0.9408003,5.973352432250977,-1.78948974609375,7.398482799530029,0.546696662902832,0.6507098078727722, 2.419010877609253
85,221899083,0.0015914245,-0.32276064,0.1032787,-0.94082767,5.946742057800293,-1.8441531658172607,7.407532691955566,0.9499686360359192,0.5597591996192932, 2.3457841873168945
86,221915750,0.0017052847,-0.32268837,0.10329168,-0.94085085,5.935683250427246,-1.86330246925354,7.416954040527344,1.1147223711013794,0.41371554136276245, 2.254410743713379
87,221932417,0.0018728513,-0.32262734,0.103288494,-0.9408718,5.953032493591309,-1.8578650951385498,7.40877628326416,1.0663654804229736,0.3872448205947876, 2.208000421524048
88,221949084,0.0020781693,-0.32259175,0.10327625,-0.94088495,5.922539234161377,-1.8741334676742554,7.396363258361816,0.9472793936729431,0.26183223724365234, 2.093921422958374
89,221965751,0.00232464,-0.32257652,0.103253186,-0.94089204,5.900416851043701,-1.843080997467041,7.383495807647705,1.0083783864974976,0.12015558034181595, 2.1992027759552
90,221982418,0.002525451,-0.3225701,0.10326612,-0.94089234,5.9154229164123535,-1.8045250177383423,7.417088031768799,0.7885958552360535,0.042805224657058716, 2.1284217834472656
91,221999085,0.0027631342,-0.32258576,0.103246264,-0.9408885,5.937484264373779,-1.8405418395996094,7.386630058288574,0.8725030422210693,-0.07135698199272156, 2.0249979496002197
92,222015752,0.0029108326,-0.3226311,0.10326376,-0.9408705,6.016547679901123,-1.8212181329727173,7.376297473907471,0.782013475894928,-0.34522080421447754, 1.9668313264846802
93,222032419,0.0031368476,-0.32273254,0.103202455,-0.9408418,6.081206321716309,-1.81887948513031,7.4779181480407715,1.1819044351577759,-0.6904799938201904, 1.9132239818572998
94,222049086,0.0034276836,-0.32290542,0.10313375,-0.940789,6.026544570922852,-1.8382562398910522,7.4186787605285645,1.228442668914795,-1.2051671743392944, 2.115218162536621
95,222065753,0.0037646575,-0.32310236,0.10302814,-0.94073164,5.986682415008545,-1.8272615671157837,7.452315807342529,1.581552505493164,-1.4024107456207275, 2.340085506439209
96,222082420,0.0041762907,-0.32325402,0.10294258,-0.9406873,5.838549613952637,-1.8426145315170288,7.414097309112549,1.6181399822235107,-1.1295970678329468, 2.892589569091797
97,222099087,0.004521322,-0.32335395,0.10293094,-0.9406525,5.802328586578369,-1.8499683141708374,7.2748894691467285,1.4254813194274902,-0.869794487953186, 3.206857442855835
98,222115754,0.0049298345,-0.32338294,0.10294243,-0.9406393,5.877620220184326,-1.785776972770691,7.227039813995361,1.1000335216522217,-0.2973506450653076, 3.2901883125305176
99,222132421,0.005332499,-0.32331508,0.10303366,-0.9406504,6.0161662101745605,-1.7530310153961182,7.2742180824279785,0.3648208677768707,0.4671691358089447, 3.2209439277648926
100,222149088,0.005646989,-0.32321075,0.10318123,-0.94066834,6.057070255279541,-1.770337700843811,7.327629089355469,0.008343338035047054,0.7295202016830444, 3.062760353088379
101,222165755,0.00595404,-0.32308447,0.10332612,-0.9406939,6.201453685760498,-1.8763487339019775,7.418108940124512,0.036376431584358215,0.8972959518432617, 3.061415195465088
102,222182422,0.0062614586,-0.3229488,0.10337321,-0.94073325,6.252366065979004,-1.9688193798065186,7.47581672668457,0.8006593585014343,0.961712121963501, 3.0091912746429443
103,222199089,0.006564687,-0.32280222,0.10340692,-0.9407779,6.240481853485107,-1.963773250579834,7.4234395027160645,0.9916788935661316,1.0283691883087158, 3.0979011058807373
104,222215756,0.0068119736,-0.32266137,0.10342178,-0.9408227,6.14245080947876,-1.8742821216583252,7.373918533325195,1.0216587781906128,1.0407143831253052, 2.727848768234253
105,222232423,0.006934033,-0.32250053,0.10348735,-0.94086957,6.005533218383789,-1.822669506072998,7.333470344543457,0.5644462704658508,1.2314906120300293, 2.2376725673675537
106,222249090,0.0070980387,-0.32234588,0.10349683,-0.9409205,5.878152847290039,-1.8238847255706787,7.34324836730957,0.2738829553127289,1.423227071762085, 1.4292844533920288
107,222265757,0.0070595965,-0.32219484,0.1034992,-0.9409722,5.777490615844727,-1.8801831007003784,7.348719596862793,0.42901915311813354,1.361372709274292, 0.8238133788108826
108,222282424,0.006962266,-0.32209647,0.10346997,-0.9410098,5.7385573387146,-1.9131845235824585,7.380720138549805,0.6492499113082886,0.972149133682251, 0.5371687412261963
109,222299091,0.0068331007,-0.32204247,0.10341929,-0.94103485,5.753765106201172,-1.9135900735855103,7.434303283691406,0.8412555456161499,0.6248666644096375, 0.4247801899909973
110,222315758,0.006735167,-0.3220209,0.103394836,-0.9410456,5.831357955932617,-1.9132241010665894,7.411338806152344,0.7077236175537109,0.3605179190635681, 0.633433997631073
111,222332425,0.00679614,-0.32204768,0.10333242,-0.94104284,5.92392110824585,-1.9293371438980103,7.362194061279297,0.8376826047897339,0.05048903822898865, 0.9579598903656006
112,222349092,0.00678704,-0.32201102,0.10338489,-0.94104964,6.011956691741943,-1.8348890542984009,7.475404262542725,0.24634934961795807,0.4444379210472107, 1.1756420135498047
113,222365759,0.0069555473,-0.321967,0.1034629,-0.9410549,6.041565895080566,-1.8307970762252808,7.359710693359375,-0.01838991791009903,0.5323023200035095, 1.7645419836044312
114,222382426,0.007031576,-0.32193896,0.10352186,-0.94105744,6.100784778594971,-1.842278242111206,7.372304916381836,0.3952999711036682,0.3321646749973297, 1.7586767673492432
115,222399093,0.0071716574,-0.32190907,0.10347554,-0.94107175,6.1515021324157715,-1.830047607421875,7.390687942504883,1.068414568901062,0.38350534439086914, 1.745114803314209
116,222415760,0.007264479,-0.32177585,0.103317715,-0.94113404,6.04998779296875,-1.7916347980499268,7.332406044006348,1.7625443935394287,1.18833327293396, 1.3232991695404053
117,222432427,0.007352813,-0.32133695,0.102296606,-0.9413948,6.1048736572265625,-1.8637980222702026,7.36078405380249,7.6410956382751465,3.5290017127990723, -0.2099345326423645
118,222449094,0.0074762525,-0.3207846,0.10058716,-0.94176626,5.926401138305664,-1.8421932458877563,7.529930591583252,12.041389465332031,4.536376953125, -1.6972905397415161
119,222465761,0.0075242706,-0.32035363,0.09920955,-0.9420586,5.909688472747803,-1.8655734062194824,7.416356563568115,9.829536437988281,3.5906901359558105, -1.3174792528152466
120,222482428,0.007504291,-0.32008365,0.09834761,-0.942241,5.902677059173584,-1.8123424053192139,7.344788074493408,6.376890659332275,2.3452463150024414, -0.5710223913192749
121,222499095,0.0075090257,-0.31991124,0.09790202,-0.9423458,5.9168477058410645,-1.7383486032485962,7.411586284637451,3.280442714691162,1.6807373762130737, -0.07685090601444244
122,222515762,0.007277389,-0.3197656,0.09787129,-0.94240034,5.897908687591553,-1.7154145240783691,7.3811445236206055,0.785496711730957,1.3451470136642456, 0.26986178755760193
123,222532429,0.0070328577,-0.31970027,0.098133646,-0.9423971,5.889337062835693,-1.7538747787475586,7.396724700927734,-1.4080454111099243,0.7943203449249268, 0.5010164380073547
124,222549096,0.006888735,-0.3197035,0.09851518,-0.9423571,5.9592742919921875,-1.8138275146484375,7.487447738647461,-2.3677916526794434,0.3310505151748657, 0.880814254283905
125,222565763,0.006663101,-0.31976652,0.099013895,-0.9422852,5.989480018615723,-1.831353783607483,7.492710113525391,-2.813824415206909,-0.22537896037101746, 1.2424657344818115
126,222582430,0.0065955194,-0.31993705,0.09954783,-0.9421715,5.99619722366333,-1.812051773071289,7.428886413574219,-3.244309663772583,-0.948374330997467, 1.6007232666015625
127,222599097,0.006588085,-0.32013023,0.10012068,-0.9420452,5.9437642097473145,-1.7475823163986206,7.416607856750488,-3.665881633758545,-1.0604298114776611, 1.681505560874939
128,222615764,0.0064781993,-0.32029518,0.100722484,-0.94192576,5.896518230438232,-1.7688136100769043,7.398418426513672,-3.7001898288726807,-0.9090715050697327, 1.600159764289856
129,222632431,0.0063997367,-0.3204161,0.10125186,-0.9418285,5.876476764678955,-1.773911714553833,7.378846645355225,-3.317267417907715,-0.5426691770553589, 1.4568568468093872
130,222649098,0.0062888823,-0.32053843,0.10168688,-0.94174075,5.912595748901367,-1.8032174110412598,7.39199686050415,-2.5064074993133545,-0.5962636470794678, 1.3885092735290527
131,222665765,0.0061631454,-0.32062787,0.1020414,-0.94167274,5.925398349761963,-1.7984280586242676,7.421780109405518,-1.6986085176467896,-0.43015244603157043, 1.529660940170288
132,222682432,0.0061589433,-0.32074738,0.1022574,-0.94160855,5.937169551849365,-1.7981382608413696,7.394111633300781,-0.8226030468940735,-0.6106836199760437, 1.6270402669906616
133,222699099,0.0062689763,-0.32087475,0.102369055,-0.9415523,5.947824001312256,-1.7642866373062134,7.398190498352051,-0.2512093484401703,-0.6046773791313171, 1.6646780967712402
134,222715766,0.006287052,-0.32094276,0.102501206,-0.9415147,5.989049434661865,-1.7850959300994873,7.393059730529785,-0.016148807480931282,-0.29494303464889526, 1.8876365423202515
135,222732433,0.0064292597,-0.320973,0.1026206,-0.9414905,6.049655437469482,-1.803650140762329,7.377565383911133,0.05885157734155655,-0.00631353072822094, 2.3183400630950928
136,222749100,0.006555931,-0.32095227,0.10275387,-0.94148207,6.063993453979492,-1.8332045078277588,7.366662979125977,0.13762342929840088,0.31651532649993896, 2.539992094039917
137,222765767,0.006757716,-0.3209108,0.10286074,-0.9414832,6.048533916473389,-1.8178503513336182,7.3917694091796875,0.2572731375694275,0.5043331980705261, 2.6956918239593506
138,222782434,0.006986044,-0.3208296,0.10296483,-0.94149774,6.020883560180664,-1.8151462078094482,7.391689777374268,0.38403040170669556,0.7673757076263428, 2.945927858352661
139,222799101,0.007172522,-0.32071698,0.1030817,-0.94152194,6.00445032119751,-1.8119940757751465,7.407647609710693,0.42776402831077576,0.9583310484886169, 3.0099337100982666
140,222815768,0.007388233,-0.32061175,0.10318438,-0.94154483,5.969070911407471,-1.7948400974273682,7.379194736480713,0.4816659986972809,0.926443338394165, 3.0385305881500244
141,222832435,0.00761343,-0.32051724,0.1032735,-0.94156545,5.912746429443359,-1.8194310665130615,7.386572360992432,0.4030221998691559,0.9104610085487366, 2.8357036113739014
142,222849102,0.007857837,-0.32044682,0.10331861,-0.9415825,5.905866622924805,-1.8458709716796875,7.3904805183410645,0.53697669506073,0.7943203449249268, 2.612834930419922
143,222865769,0.007968638,-0.32037455,0.103340946,-0.94160366,5.899205684661865,-1.8303555250167847,7.427006244659424,0.839923620223999,0.7627013325691223, 2.2789599895477295
144,222882436,0.008050467,-0.3203325,0.103394344,-0.94161147,5.9248366355896,-1.937699794769287,7.352548599243164,0.40635186433792114,0.6152234077453613, 1.9351609945297241
145,222899103,0.008193236,-0.32030955,0.103356965,-0.9416221,5.926532745361328,-1.9036519527435303,7.420607089996338,0.7505736947059631,0.5838863253593445, 1.619356393814087
146,222915770,0.008196193,-0.32027543,0.10335559,-0.9416338,5.946972370147705,-1.944158911705017,7.40324068069458,0.8291918039321899,0.554431676864624, 1.6049363613128662
147,222932437,0.008280694,-0.32026055,0.103348844,-0.9416389,5.920503616333008,-1.9365203380584717,7.440240859985352,0.6065407991409302,0.5084697604179382, 1.5423392057418823
148,222949104,0.008197664,-0.3202467,0.10340748,-0.9416378,5.903592586517334,-1.8939673900604248,7.4223103523254395,0.35138702392578125,0.431388258934021, 1.301771879196167
149,222965771,0.008221081,-0.32028437,0.1033992,-0.94162565,5.937510967254639,-1.8768844604492188,7.41791296005249,0.5559684634208679,0.14793254435062408, 1.222654104232788
150,222982438,0.008167783,-0.32031363,0.10341191,-0.9416148,5.954805374145508,-1.8691627979278564,7.388137340545654,0.5768556594848633,0.15342648327350616, 1.2035473585128784
151,222999105,0.008153804,-0.32034978,0.10338487,-0.94160557,5.944585800170898,-1.858553171157837,7.380784511566162,0.6300147175788879,0.18737611174583435, 0.9863130450248718
152,223015772,0.0081064375,-0.32038066,0.10337462,-0.9415966,5.984287261962891,-1.8683488368988037,7.386083126068115,0.5752164721488953,0.20458784699440002, 0.9873119592666626
153,223032439,0.00814188,-0.32039338,0.10333587,-0.94159627,5.993648529052734,-1.8425184488296509,7.373533725738525,0.6335237622261047,0.3989626169204712, 1.0567351579666138
154,223049106,0.0080120955,-0.32037386,0.10337732,-0.9415994,5.981238842010498,-1.8397101163864136,7.389660835266113,0.43196457624435425,0.5136178731918335, 1.0743951797485352
155,223065773,0.007969154,-0.32036152,0.103404686,-0.941601,5.991393566131592,-1.845677137374878,7.392755508422852,0.30254361033439636,0.5446860194206238, 1.077263593673706
156,223082440,0.007877353,-0.32035434,0.10342286,-0.94160223,5.9816060066223145,-1.8544327020645142,7.413046836853027,0.4521602392196655,0.482818603515625, 1.0052409172058105
157,223099107,0.0078114546,-0.32037234,0.10340333,-0.9415988,5.951725482940674,-1.8616371154785156,7.379054069519043,0.615620493888855,0.3403479754924774, 0.9006385803222656
158,223115774,0.007693379,-0.3203843,0.10337867,-0.9415984,5.9438066482543945,-1.8850804567337036,7.388683319091797,0.702472984790802,0.3722613453865051, 0.7729592323303223
159,223132441,0.007535332,-0.32039356,0.1033607,-0.9415986,5.9353814125061035,-1.8540629148483276,7.412285327911377,0.6180408000946045,0.404994398355484, 0.5965645909309387
160,223149108,0.007416622,-0.32041627,0.10335641,-0.94159234,5.956638336181641,-1.842250943183899,7.3907904624938965,0.3907409608364105,0.3574700355529785, 0.5845009684562683
161,223165775,0.007304969,-0.32042858,0.10335235,-0.9415893,5.958211898803711,-1.8275706768035889,7.3931756019592285,0.2965630292892456,0.4679375886917114, 0.5006962418556213
162,223182442,0.0072290436,-0.32047293,0.103318766,-0.94157845,5.963411331176758,-1.8668338060379028,7.397048473358154,0.43318116664886475,0.2642397880554199, 0.48069271445274353
163,223199109,0.007130928,-0.32052922,0.10328268,-0.94156414,5.955183982849121,-1.8699438571929932,7.418948173522949,0.672621488571167,0.10733641684055328, 0.68400639295578
164,223215776,0.0070610596,-0.3205945,0.103226,-0.9415487,5.925138473510742,-1.8454355001449585,7.411038398742676,0.8903295397758484,0.01726936362683773, 0.8517310619354248
165,223232443,0.007026809,-0.32066962,0.103152096,-0.9415315,5.891287326812744,-1.8258613348007202,7.38203239440918,0.9611486196517944,-0.034308213740587234, 0.8854119181632996
166,223249110,0.007019193,-0.32072634,0.103109054,-0.94151676,5.909793376922607,-1.8213893175125122,7.361224174499512,0.8346987366676331,0.06817460805177689, 1.164398193359375
167,223265777,0.007080892,-0.3207751,0.1030779,-0.9415032,5.955414295196533,-1.7978039979934692,7.374215126037598,0.6699448823928833,0.16016259789466858, 1.331969141960144
168,223282444,0.007174422,-0.32080102,0.103053115,-0.94149643,6.023002624511719,-1.80620276927948,7.392319679260254,0.6739916801452637,0.3147992491722107, 1.5344247817993164
169,223299111,0.007246375,-0.3208081,0.10305689,-0.941493,6.064727783203125,-1.811206340789795,7.389345645904541,0.6525923609733582,0.3956969976425171, 1.749955654144287
170,223315778,0.0072846594,-0.3208021,0.103059106,-0.9414945,6.100708484649658,-1.818071961402893,7.411777496337891,0.840602457523346,0.4373304843902588, 1.8738188743591309
171,223332445,0.0073927017,-0.32077804,0.103030324,-0.9415051,6.089256286621094,-1.8269203901290894,7.3813347816467285,0.9358304738998413,0.626633882522583, 1.918013572692871
172,223349112,0.00751119,-0.32072592,0.102995016,-0.94152564,6.0312957763671875,-1.8162469863891602,7.395269870758057,0.9682432413101196,0.8423824310302734, 1.9509129524230957
173,223365779,0.007573618,-0.32066652,0.102993704,-0.94154555,5.9833598136901855,-1.8202953338623047,7.40492057800293,0.8264642357826233,0.8684818744659424, 1.9360449314117432
174,223382446,0.007608135,-0.32060355,0.102986604,-0.94156754,5.917631149291992,-1.8408799171447754,7.388575077056885,0.8524355292320251,0.9000111818313599, 1.8196992874145508
175,223399113,0.0077230157,-0.32057053,0.10296288,-0.9415804,5.868635654449463,-1.8558694124221802,7.385249614715576,0.8160654902458191,0.7377802729606628, 1.874049425125122
176,223415780,0.0077557,-0.3205611,0.102951206,-0.94158465,5.859533309936523,-1.8520822525024414,7.37689733505249,0.8327648043632507,0.5298434495925903, 1.720347285270691
177,223432447,0.0077031893,-0.32054973,0.10296195,-0.94158775,5.871491432189941,-1.8862594366073608,7.39715051651001,0.8305109143257141,0.4870958924293518, 1.6504631042480469
178,223449114,0.007760097,-0.32057446,0.10293331,-0.941582,5.890620231628418,-1.9045648574829102,7.405679702758789,0.7776592373847961,0.3401046693325043, 1.5378570556640625
179,223465781,0.0077257897,-0.32060784,0.102933064,-0.941571,5.942203998565674,-1.8954181671142578,7.403777599334717,0.713294506072998,0.22788259387016296, 1.4248536825180054
180,223482448,0.0076957652,-0.3206398,0.10292935,-0.9415607,5.9872145652771,-1.8893908262252808,7.38873291015625,0.6487120389938354,0.2702587842941284, 1.321211814880371
181,223499115,0.0075336443,-0.32065067,0.10297593,-0.9415532,6.025969505310059,-1.8604261875152588,7.419039249420166,0.4981478452682495,0.3579567074775696, 1.193327784538269
182,223515782,0.007431548,-0.3206722,0.102985434,-0.9415456,6.032962799072266,-1.8603047132492065,7.384646892547607,0.483023464679718,0.38067516684532166, 0.9878882765769958
183,223532449,0.0073459437,-0.32067794,0.10297464,-0.94154555,6.05724573135376,-1.8121029138565063,7.407815456390381,0.49999189376831055,0.5475546717643738, 0.8595173358917236
184,223549116,0.007237366,-0.32066408,0.10297776,-0.9415508,6.02843713760376,-1.8249876499176025,7.396099090576172,0.4149961769580841,0.6889368295669556, 0.8348139524459839
185,223565783,0.007188163,-0.32067248,0.10296615,-0.94154966,5.9971604347229,-1.8028466701507568,7.41494083404541,0.36579418182373047,0.5859224796295166, 0.8234034776687622
186,223582450,0.0071330285,-0.32068154,0.102930844,-0.9415508,5.932705402374268,-1.828707218170166,7.387175559997559,0.6296050548553467,0.5513582229614258, 0.8976547122001648
187,223599117,0.007108219,-0.3206967,0.102881014,-0.9415512,5.922984600067139,-1.8200637102127075,7.391437530517578,0.7541979551315308,0.4991210401058197, 1.0168945789337158
188,223615784,0.0070627616,-0.3207107,0.1028362,-0.94155174,5.8989458084106445,-1.8226736783981323,7.365991115570068,0.8310232758522034,0.47427675127983093, 1.0959867238998413
189,223632451,0.007030979,-0.32073283,0.10279812,-0.94154865,5.906558513641357,-1.8125563859939575,7.3839616775512695,0.7664535641670227,0.4195424020290375, 1.1385934352874756
190,223649118,0.0069931946,-0.32076004,0.10278221,-0.9415413,5.919134140014648,-1.8329243659973145,7.388329029083252,0.6187580227851868,0.37944576144218445, 1.1580077409744263
191,223665785,0.007030508,-0.32079548,0.102768324,-0.9415305,5.957101345062256,-1.8405075073242188,7.402209281921387,0.5571082830429077,0.33772262930870056, 1.3777775764465332
192,223682452,0.007020073,-0.32083303,0.10274232,-0.94152063,5.997069358825684,-1.8702561855316162,7.404579162597656,0.7431332468986511,0.28885361552238464, 1.3178565502166748
193,223699119,0.0070468294,-0.32088614,0.10267172,-0.9415099,6.004809856414795,-1.889310598373413,7.416900634765625,0.9110373258590698,0.23381194472312927, 1.1747329235076904
194,223715786,0.006999183,-0.32093188,0.10262557,-0.9414997,5.973873138427734,-1.8806731700897217,7.392267227172852,0.9175172448158264,0.22722946107387543, 1.1852980852127075
195,223732453,0.006953815,-0.32098854,0.10258483,-0.9414853,5.939598083496094,-1.8359960317611694,7.376518249511719,0.7003473043441772,0.21036352217197418, 0.9640044569969177
196,223749120,0.0068803597,-0.3210405,0.10258618,-0.94146794,5.934292793273926,-1.8280705213546753,7.398440837860107,0.34566256403923035,0.2652387022972107, 0.854843020439148
197,223765787,0.0068044914,-0.32108626,0.10257914,-0.9414537,5.981210231781006,-1.8496787548065186,7.393740653991699,0.295769065618515,0.3486592769622803, 0.6963773369789124
198,223782454,0.00663514,-0.3211199,0.10259657,-0.94144136,5.995514392852783,-1.8383115530014038,7.400545120239258,0.41388198733329773,0.33843979239463806, 0.7803612947463989
199,223799121,0.0065374807,-0.3211589,0.10255881,-0.94143283,5.9947428703308105,-1.8196593523025513,7.376001834869385,0.5723733901977539,0.3784724473953247, 0.6615439653396606
200,223815788,0.006461274,-0.32118616,0.10250687,-0.94142985,6.036983489990234,-1.8076692819595337,7.38140869140625,0.6990025639533997,0.46298161149024963, 0.7546974420547485
201,223832455,0.006334167,-0.32119212,0.10248392,-0.94143116,6.008349895477295,-1.7821996212005615,7.406907081604004,0.7930908799171448,0.5242215394973755, 1.0116441249847412
202,223849122,0.0062485533,-0.32118303,0.102469325,-0.94143647,6.007012367248535,-1.7961384057998657,7.397066593170166,0.8787397742271423,0.5888295769691467, 1.3734490871429443
203,223865789,0.00628951,-0.32117411,0.102444135,-0.9414419,5.975022315979004,-1.7904831171035767,7.383977890014648,0.8789828419685364,0.6192573308944702, 1.7207441329956055
204,223882456,0.0063632685,-0.32116923,0.102413505,-0.9414464,5.946030616760254,-1.7810336351394653,7.384484767913818,0.997941255569458,0.5651122331619263, 1.9395538568496704
205,223899123,0.0065041943,-0.32117322,0.102378264,-0.9414479,5.936775207519531,-1.7828028202056885,7.390341281890869,0.9790391325950623,0.5182793736457825, 2.111414909362793
206,223915790,0.0066200243,-0.3211767,0.10235191,-0.9414488,5.948963165283203,-1.8084062337875366,7.356935977935791,1.0340678691864014,0.4808976650238037, 2.194694757461548
207,223932457,0.0067276373,-0.32118616,0.10232422,-0.94144785,5.995345592498779,-1.8312734365463257,7.406569957733154,0.9440264105796814,0.471190482378006, 2.0365233421325684
208,223949124,0.00684957,-0.3211956,0.102274425,-0.94144917,6.01077127456665,-1.8852732181549072,7.427248477935791,1.1053097248077393,0.4732266664505005, 2.0602407455444336
209,223965791,0.006880297,-0.32117286,0.10220463,-0.9414643,5.977633953094482,-1.9140137434005737,7.402037620544434,1.3243751525878906,0.6865036487579346, 1.8022184371948242
210,223982458,0.006899094,-0.32087457,0.10178381,-0.9416114,6.091980457305908,-1.9592596292495728,7.393416881561279,3.388502836227417,2.8515965938568115, 0.7690789103507996
211,223999125,0.0068949386,-0.32037082,0.101133354,-0.9418531,5.845967769622803,-1.8234233856201172,7.404123783111572,4.940235137939453,4.391714096069336, 0.28957077860832214
212,224015792,0.006831323,-0.31999725,0.100691445,-0.94202775,5.807500839233398,-1.8042500019073486,7.40601110458374,3.739755392074585,3.338122606277466, 0.7163680791854858
213,224032459,0.0067548193,-0.3198116,0.10048213,-0.9421137,5.850045680999756,-1.7741016149520874,7.415677547454834,2.1756834983825684,1.9296607971191406, 1.0700603723526
214,224049126,0.0067160516,-0.31977686,0.10044413,-0.94212985,5.9110612869262695,-1.7682037353515625,7.41662073135376,0.9100255966186523,0.8379642367362976, 1.352433681488037
215,224065793,0.006692223,-0.31985134,0.10050198,-0.9420986,5.970818042755127,-1.781505823135376,7.4185590744018555,0.2353614866733551,0.03742655739188194, 1.524781584739685
216,224082460,0.006615153,-0.31997597,0.10062667,-0.9420435,5.9904632568359375,-1.7915838956832886,7.418116092681885,-0.0736365094780922,-0.3843057155609131, 1.6395263671875
217,224099127,0.006612945,-0.32015014,0.10081388,-0.9419644,6.021161079406738,-1.7989115715026855,7.392194747924805,-0.6817202568054199,-0.6881235837936401, 1.7718030214309692
218,224115794,0.00651193,-0.3203201,0.10108829,-0.94187784,6.0102338790893555,-1.7994940280914307,7.40726375579834,-1.0982469320297241,-0.7234307527542114, 1.8143460750579834
219,224132461,0.0065067387,-0.3205129,0.101326026,-0.94178677,5.989444255828857,-1.8148492574691772,7.405491352081299,-1.1486016511917114,-0.7841072082519531, 1.696591854095459
220,224149128,0.006494275,-0.32068187,0.10152703,-0.94170773,5.961086750030518,-1.8232775926589966,7.410887718200684,-0.8750962615013123,-0.6105427145957947, 1.6390397548675537
221,224165795,0.006427576,-0.320817,0.10170685,-0.94164276,5.929272174835205,-1.8284391164779663,7.378540515899658,-0.5914101004600525,-0.4062686562538147, 1.5979187488555908
222,224182462,0.006400749,-0.32093883,0.10184983,-0.94158584,5.91218900680542,-1.8474280834197998,7.4137749671936035,-0.3822055459022522,-0.28933387994766235, 1.6189980506896973
223,224199129,0.0063790972,-0.3210546,0.10195984,-0.94153464,5.9128241539001465,-1.8343987464904785,7.413279056549072,-0.12110964953899384,-0.2565239667892456, 1.6326943635940552
224,224215796,0.006375086,-0.32115966,0.10204224,-0.9414899,5.9291090965271,-1.84792160987854,7.395483016967773,0.039642054587602615,-0.16527873277664185, 1.6053974628448486
225,224232463,0.006355712,-0.32125148,0.10210727,-0.9414517,5.975140571594238,-1.833103895187378,7.38285493850708,0.17541497945785522,-0.07125453650951385, 1.540700078010559
226,224249130,0.006370313,-0.32132006,0.10211705,-0.9414272,5.9785237312316895,-1.8329654932022095,7.409864902496338,0.38173165917396545,0.16223084926605225, 1.3537335395812988
227,224265797,0.0063090893,-0.32136726,0.10215366,-0.94140744,6.004387855529785,-1.8225513696670532,7.427194118499756,0.31488892436027527,0.2759832441806793, 1.2903486490249634
228,224282464,0.0062910398,-0.32140535,0.10216923,-0.94139284,5.973052024841309,-1.8417174816131592,7.414121150970459,0.390177458524704,0.37023797631263733, 1.3174469470977783
229,224299131,0.006195863,-0.32145134,0.10217295,-0.94137734,5.9571943283081055,-1.8275444507598877,7.3652849197387695,0.6035952568054199,0.2694263756275177, 1.189626693725586
230,224315798,0.006176738,-0.3214929,0.102147095,-0.94136614,5.935973167419434,-1.8018957376480103,7.384204864501953,0.6033647060394287,0.37354201078414917, 1.1505672931671143
231,224332465,0.0060305125,-0.32151943,0.10217339,-0.9413552,5.945348739624023,-1.802141785621643,7.398069381713867,0.5229920148849487,0.38605377078056335, 1.1490176916122437
232,224349132,0.005923607,-0.32155645,0.10220423,-0.9413398,5.969040870666504,-1.8195874691009521,7.436498641967773,0.5062286257743835,0.3032095432281494, 1.316537618637085
233,224365799,0.0058270446,-0.32158428,0.10222782,-0.9413284,5.967268943786621,-1.8118581771850586,7.4000959396362305,0.7037153840065002,0.3245321214199066, 1.537741780281067
234,224382466,0.005875854,-0.32161853,0.10219258,-0.94132024,5.968347072601318,-1.819014310836792,7.394258499145508,0.908411979675293,0.35004234313964844, 1.6981282234191895
235,224399133,0.005896561,-0.32164073,0.10219231,-0.9413126,5.960525035858154,-1.805072546005249,7.38116455078125,0.8470184206962585,0.37578314542770386, 1.8956024646759033
236,224415800,0.0059308833,-0.3216814,0.1022072,-0.9412968,5.958246231079102,-1.809447169303894,7.388062000274658,0.7279192805290222,0.24478696286678314, 1.9458799362182617
237,224432467,0.0059695737,-0.3217096,0.10223129,-0.9412843,5.954123020172119,-1.8092271089553833,7.375734806060791,0.732375979423523,0.31291675567626953, 2.073521137237549
238,224449134,0.00603398,-0.32174107,0.10223966,-0.9412722,5.932321071624756,-1.824122667312622,7.369803428649902,0.7827433347702026,0.30965113639831543, 2.0644285678863525
239,224465801,0.0060665677,-0.32177064,0.1022376,-0.9412621,5.965912818908691,-1.8457752466201782,7.392152309417725,0.9810752272605896,0.2837055027484894, 2.094395637512207
240,224482468,0.006134147,-0.3218113,0.102215596,-0.9412502,5.984407424926758,-1.850569725036621,7.391584396362305,0.9896171689033508,0.24766843020915985, 2.0133824348449707
241,224499135,0.0062137297,-0.32185775,0.10219144,-0.9412364,5.996893405914307,-1.8571430444717407,7.385355472564697,0.8816468119621277,0.24711774289608002, 1.8923752307891846
242,224515802,0.0062154126,-0.3218763,0.102204934,-0.94122857,6.005941867828369,-1.8702589273452759,7.42232084274292,0.7338998913764954,0.4136770963668823, 1.8268064260482788
243,224532469,0.0062010908,-0.32189345,0.102203175,-0.941223,5.9958696365356445,-1.8804353475570679,7.382075309753418,0.7482172846794128,0.4561428725719452, 1.618485450744629
244,224549136,0.0061915377,-0.3219013,0.10220192,-0.9412205,5.969266414642334,-1.8674134016036987,7.399686336517334,0.6410537362098694,0.558747410774231, 1.5121543407440186
245,224565803,0.0061695185,-0.32191494,0.10222263,-0.9412137,5.952106475830078,-1.828574538230896,7.393320083618164,0.5011700987815857,0.5124652981758118, 1.5115654468536377
246,224582470,0.006104775,-0.32193425,0.10224512,-0.9412051,5.96306848526001,-1.831674337387085,7.374504566192627,0.43287381529808044,0.4864683747291565, 1.2923974990844727
247,224599137,0.005997445,-0.32194293,0.10225907,-0.9412014,5.942906379699707,-1.8340860605239868,7.399041175842285,0.5622692108154297,0.5441738963127136, 1.2138948440551758
248,224615804,0.0059634363,-0.32196385,0.102240324,-0.9411965,5.957118988037109,-1.8358148336410522,7.386187553405762,0.6068993210792542,0.5156412720680237, 1.1829802989959717
249,224632471,0.005895023,-0.3219781,0.10222797,-0.9411934,5.959183692932129,-1.832614779472351,7.387681484222412,0.6803438067436218,0.5248363018035889, 1.225420594215393
250,224649138,0.0058186627,-0.3219995,0.10222073,-0.9411873,5.96132230758667,-1.8367072343826294,7.419679641723633,0.7003344893455505,0.4553746283054352, 1.2697943449020386
251,224665805,0.0057533104,-0.32201836,0.102227226,-0.94118047,5.960213661193848,-1.815599799156189,7.3993706703186035,0.6717250347137451,0.4491634964942932, 1.425814151763916
252,224682472,0.0057619833,-0.32203746,0.102232605,-0.9411734,5.9508957862854,-1.8238428831100464,7.414904594421387,0.5692358613014221,0.48409926891326904, 1.548178791999817
253,224699139,0.0057109413,-0.3220613,0.10226038,-0.9411625,5.9624152183532715,-1.8252466917037964,7.389787673950195,0.6094862222671509,0.38190457224845886, 1.6201889514923096
254,224715806,0.0056625665,-0.32208386,0.102281414,-0.94115275,5.9624481201171875,-1.8395987749099731,7.40825080871582,0.5905584692955017,0.41424062848091125, 1.5360386371612549
255,224732473,0.0056273052,-0.32211936,0.10228483,-0.9411405,5.972326278686523,-1.8425432443618774,7.388772964477539,0.6641181111335754,0.33558395504951477, 1.486836314201355
256,224749140,0.0056248014,-0.3221687,0.102279805,-0.94112414,5.953268527984619,-1.8595261573791504,7.408949851989746,0.6887702941894531,0.24656705558300018, 1.544721245765686
257,224765807,0.005513477,-0.32220232,0.1022717,-0.9411142,5.978872299194336,-1.8642513751983643,7.386611461639404,0.8209958672523499,0.3254413306713104, 1.287287950515747
258,224782474,0.005453312,-0.32224366,0.10223373,-0.94110453,5.960153579711914,-1.8537958860397339,7.389615058898926,0.8047318458557129,0.3444972038269043, 1.1308197975158691
259,224799141,0.0053064073,-0.32228097,0.102246754,-0.9410912,5.981913089752197,-1.8470958471298218,7.385773658752441,0.6279017329216003,0.3123660981655121, 1.1282713413238525
260,224815808,0.0052813226,-0.3223136,0.1022335,-0.9410816,5.976254940032959,-1.8399312496185303,7.393242359161377,0.5041027665138245,0.45013684034347534, 1.1355711221694946
261,224832475,0.0051732953,-0.32232606,0.102275394,-0.94107324,6.0013017654418945,-1.8336942195892334,7.401679992675781,0.30141666531562805,0.5344025492668152, 1.166524052619934
262,224849142,0.005132471,-0.3223399,0.10229694,-0.9410664,5.993819713592529,-1.8387755155563354,7.4059906005859375,0.4307095408439636,0.531380295753479, 1.357223391532898
263,224865809,0.005112949,-0.32235086,0.102291316,-0.9410634,5.953049182891846,-1.8247298002243042,7.375586986541748,0.6651042103767395,0.5391793251037598, 1.4497878551483154
264,224882476,0.005069905,-0.32234642,0.10230108,-0.9410641,5.939486026763916,-1.7702555656433105,7.343453884124756,0.6975169777870178,0.6055033802986145, 1.5727797746658325
265,224899143,0.005048445,-0.32235208,0.10231397,-0.94106084,5.949169635772705,-1.771932601928711,7.364448070526123,0.5556995272636414,0.5704140663146973, 1.5050086975097656
266,224915810,0.005064781,-0.322344,0.10232538,-0.9410623,6.005782604217529,-1.793087363243103,7.401719093322754,0.6006113290786743,0.6592516303062439, 1.6914050579071045
267,224932477,0.0050721224,-0.32231742,0.102270566,-0.94107723,6.0407185554504395,-1.8490334749221802,7.425535202026367,1.168969988822937,0.7641357183456421, 1.694375991821289
268,224949144,0.0050963503,-0.32215905,0.10208483,-0.9411516,6.032105922698975,-1.8714663982391357,7.400897026062012,2.1491808891296387,1.7184520959854126, 1.6636793613433838
269,224965811,0.005142785,-0.32198396,0.10189173,-0.9412322,5.948097229003906,-1.8526595830917358,7.4075117111206055,2.244370460510254,1.8278312683105469, 1.7963275909423828
270,224982478,0.005253378,-0.32185745,0.10173295,-0.94129205,5.8939642906188965,-1.8452662229537964,7.389474868774414,1.9412953853607178,1.4910753965377808, 1.9876670837402344
271,224999145,0.0052733617,-0.32179123,0.10169688,-0.9413185,5.860740661621094,-1.8274074792861938,7.383754253387451,1.3208917379379272,0.9643502831459045, 2.1409337520599365
272,225015812,0.005333109,-0.32179365,0.10172782,-0.9413139,5.865447521209717,-1.7930792570114136,7.411341667175293,0.8249017596244812,0.4640316367149353, 2.3337972164154053
273,225032479,0.0054376484,-0.32185268,0.101775646,-0.941288,5.882136344909668,-1.82908034324646,7.395638465881348,0.6780128479003906,0.05453583970665932, 2.472797155380249
274,225049146,0.005505207,-0.32194337,0.10183903,-0.9412497,5.937472820281982,-1.8455896377563477,7.398492336273193,0.6410922408103943,-0.20310869812965393, 2.44331693649292
275,225065813,0.0054998663,-0.3220369,0.101904005,-0.9412108,5.977706432342529,-1.8623534440994263,7.366429328918457,0.7070706486701965,-0.2491859495639801, 2.2756307125091553
276,225082480,0.0055758306,-0.32212582,0.10195699,-0.94117415,6.0297112464904785,-1.8249218463897705,7.396674633026123,0.43361660838127136,-0.09831435233354568, 2.094344139099121
277,225099147,0.0056121093,-0.3221973,0.10204784,-0.9411396,6.024263858795166,-1.837378978729248,7.403885841369629,0.12696854770183563,0.04272838309407234, 1.9617470502853394
278,225115814,0.005622224,-0.32226545,0.102126345,-0.94110775,6.0171709060668945,-1.837435007095337,7.395381927490234,0.1647728830575943,0.08520704507827759, 1.7817537784576416
279,225132481,0.0055833985,-0.32230315,0.10221127,-0.9410858,5.990922451019287,-1.8519699573516846,7.397573471069336,0.25499358773231506,0.2651234269142151, 1.8033833503723145
280,225149148,0.005568982,-0.32233638,0.102239154,-0.9410715,5.966754913330078,-1.8376330137252808,7.412607192993164,0.5465686321258545,0.3353022634983063, 1.662437081336975
281,225165815,0.0055054193,-0.32237533,0.102265865,-0.9410556,5.920508861541748,-1.843324065208435,7.395051956176758,0.5904175639152527,0.2820150554180145, 1.5250506401062012
282,225182482,0.005428375,-0.32239056,0.10228719,-0.94104856,5.925191879272461,-1.854436993598938,7.391631603240967,0.5639468431472778,0.47551900148391724, 1.39260733127594
283,225199149,0.0053585037,-0.32239234,0.10232192,-0.94104457,5.917808532714844,-1.8786983489990234,7.393947124481201,0.53017657995224,0.552587628364563, 1.5142934322357178
284,225215816,0.005326564,-0.32240802,0.10233367,-0.9410382,5.938653945922852,-1.861760139465332,7.39539098739624,0.572847306728363,0.4888375401496887, 1.4598149061203003
285,225232483,0.005226167,-0.32241637,0.102374084,-0.9410314,5.961540699005127,-1.8661149740219116,7.402017593383789,0.5465558171272278,0.48440656065940857, 1.479383111000061
286,225249150,0.005112604,-0.32241955,0.1024016,-0.94102794,5.977595806121826,-1.8539652824401855,7.405208110809326,0.6194495558738708,0.5270261764526367, 1.3918646574020386
287,225265817,0.0049994253,-0.32242823,0.102419816,-0.9410235,5.95745325088501,-1.8563934564590454,7.400056838989258,0.5736669301986694,0.5245289206504822, 1.2292112112045288
288,225282484,0.0049203304,-0.32244247,0.10241923,-0.94101906,5.977561950683594,-1.8501241207122803,7.408267021179199,0.5257455110549927,0.5417918562889099, 1.092093586921692
289,225299151,0.0047631105,-0.3224712,0.10241331,-0.9410107,5.963935852050781,-1.8709304332733154,7.395822525024414,0.6572282314300537,0.40544262528419495, 0.9134321808815002
290,225315818,0.0046095853,-0.3224759,0.10230308,-0.94102186,6.007077693939209,-1.872023105621338,7.4062299728393555,1.1423455476760864,0.6667048931121826, 0.45018795132637024
291,225332485,0.0044619907,-0.32242385,0.10202745,-0.9410703,5.975369453430176,-1.8768895864486694,7.401041030883789,2.20235276222229,1.1251211166381836, 0.09642540663480759
292,225349152,0.00427417,-0.32220972,0.101328,-0.9412201,5.995638847351074,-1.9033445119857788,7.416741371154785,5.114184379577637,2.355952501296997, -0.7642958164215088
293,225365819,0.0041432455,-0.32171556,0.09991834,-0.94154054,5.956210613250732,-1.8480896949768066,7.420213222503662,9.752713203430176,4.554446220397949, -2.0499773025512695
294,225382486,0.0040130382,-0.3211135,0.09812525,-0.94193494,5.904499053955078,-1.7786599397659302,7.447214603424072,12.360280990600586,5.38460636138916, -2.740086793899536
295,225399153,0.0038429021,-0.32060102,0.09659851,-0.9422679,5.846225261688232,-1.7144043445587158,7.396609783172607,10.59730339050293,4.673672676086426, -2.3533213138580322
296,225415820,0.003652606,-0.32026556,0.09555863,-0.9424889,5.84848690032959,-1.6320997476577759,7.453060626983643,7.266279697418213,3.3207449913024902, -1.5840562582015991
297,225432487,0.003462476,-0.32013988,0.09508596,-0.94258004,5.8785786628723145,-1.6262882947921753,7.466716289520264,3.518551826477051,1.6804559230804443, -0.43796443939208984
298,225449154,0.0033235855,-0.3200921,0.094914414,-0.9426141,5.994434833526611,-1.6895899772644043,7.440745830535889,1.61158287525177,1.0325182676315308, 0.46681055426597595
299,225465821,0.0031569572,-0.31993654,0.09463496,-0.9426956,5.964838027954102,-1.686023235321045,7.447848796844482,2.5339608192443848,1.778680443763733, 0.4497142732143402
300,225482488,0.0030857227,-0.3196958,0.09395693,-0.9428454,6.008265495300293,-1.707431674003601,7.496361255645752,5.412111282348633,2.3996987342834473, 0.29590994119644165
301,225499155,0.0031114118,-0.3189189,0.09221636,-0.9432801,6.119287490844727,-1.7241700887680054,7.48170804977417,12.456904411315918,6.4940080642700195, -1.4018607139587402
302,225515822,0.0031594785,-0.3173616,0.08876898,-0.94413555,6.2252326011657715,-1.7409602403640747,7.601138591766357,23.779651641845703,12.456416130065918, -4.613114833831787
303,225532489,0.0030690916,-0.31519422,0.08446801,-0.94525576,5.871283531188965,-1.4860349893569946,7.554694652557373,29.29105567932129,17.04578971862793, -6.882174015045166
304,225549156,0.0028778587,-0.31316268,0.080371045,-0.9462882,5.690662860870361,-1.5142908096313477,7.617019176483154,27.917198181152344,15.980688095092773, -6.865944862365723
305,225565823,0.0027608597,-0.31125394,0.07613827,-0.94726795,5.763084411621094,-1.5037119388580322,7.855964183807373,28.856426239013672,15.044581413269043, -6.834468364715576
306,225582490,0.0028690244,-0.308939,0.07182453,-0.94836164,5.764762878417969,-1.5210933685302734,7.838753700256348,29.942703247070312,17.812808990478516, -5.313493251800537
307,225599157,0.002897297,-0.3068935,0.06865073,-0.9492604,5.646019458770752,-1.3134970664978027,8.118191719055176,22.37420654296875,15.67720890045166, -3.3631865978240967
308,225615824,0.003134276,-0.30539113,0.06649271,-0.9498975,5.361819267272949,-1.2849117517471313,8.166153907775879,16.11463165283203,11.487138748168945, -0.011948341503739357
309,225632491,0.0032401183,-0.30489203,0.065166324,-0.9501495,4.832851409912109,-0.9184326529502869,7.546468734741211,10.061882972717285,4.222594261169434, 0.22619225084781647
310,225649158,0.0027148079,-0.30529013,0.06532263,-0.95001245,4.62090539932251,-1.0725558996200562,7.251596450805664,-0.6852549910545349,-2.24298095703125, -0.527864933013916
311,225665825,0.002102898,-0.3062324,0.06577749,-0.94967926,4.073267459869385,-1.0969467163085938,8.142650604248047,-3.1309101581573486,-6.140953540802002, -1.015390157699585
312,225682492,0.0017920721,-0.30778244,0.06578471,-0.9491782,3.9691100120544434,-1.092355728149414,8.383353233337402,0.08487411588430405,-10.60046100616455, -0.6222736239433289
313,225699159,0.0014557056,-0.3099266,0.066341616,-0.94844204,3.915883779525757,-0.9764605164527893,8.399051666259766,-3.467078924179077,-15.050573348999023, 0.387783020734787
314,225715826,0.001082245,-0.312833,0.068141684,-0.94736016,4.64744234085083,-1.2845507860183716,7.12324333190918,-11.892293930053711,-20.777381896972656, 2.3425869941711426
315,225732493,0.0005123352,-0.31593102,0.07050633,-0.9461587,5.1720967292785645,-0.723764955997467,8.192770004272461,-16.275236129760742,-22.169565200805664, 1.8503366708755493
316,225749160,-0.00006841033,-0.3187539,0.07407271,-0.9449388,5.139948844909668,-1.0694706439971924,8.297037124633789,-24.320894241333008,-20.409244537353516, 4.276907444000244
317,225765827,-0.000597468,-0.32120138,0.07786371,-0.9438044,4.707457542419434,-1.4238988161087036,8.647457122802734,-25.3961181640625,-17.88346290588379, 5.60640287399292
318,225782494,-0.0006372563,-0.3230947,0.08143769,-0.9428561,3.891324520111084,-1.6137841939926147,8.765826225280762,-23.057296752929688,-14.139352798461914, 8.265582084655762
319,225799161,-0.00012417813,-0.32438055,0.08414345,-0.9421769,3.005511522293091,-1.703500509262085,8.564640045166016,-16.451807022094727,-9.91146469116211, 9.718670845031738
320,225815828,0.0005974418,-0.32473248,0.08570269,-0.941915,3.0565450191497803,-1.3880809545516968,8.54737377166748,-8.62542724609375,-3.072744369506836, 8.634320259094238
321,225832495,0.0010205156,-0.3236097,0.08698124,-0.9421836,3.224738121032715,-0.8704062700271606,8.591944694519043,-6.9330549240112305,7.692054748535156, 7.222394943237305
322,225849162,0.0011129691,-0.321384,0.08834413,-0.94281846,2.936049699783325,-0.06272771954536438,8.729914665222168,-8.579099655151367,15.900721549987793, 5.1799635887146
323,225865829,0.00041532598,-0.31829676,0.08973646,-0.94373435,3.5420687198638916,-0.039863716810941696,8.654374122619629,-10.34579849243164,22.487775802612305, 0.6835340261459351
324,225882496,-0.00054949697,-0.31446558,0.089368284,-0.9450527,4.710866451263428,-0.8227866291999817,9.028030395507812,0.29309341311454773,28.397672653198242, -4.986742973327637
325,225899163,-0.0021661103,-0.30889416,0.087989695,-0.94701517,4.929311275482178,-1.2399723529815674,8.938406944274902,5.962924480438232,41.4404182434082, -10.150071144104004
326,225915830,-0.004469866,-0.301937,0.08687916,-0.94935036,4.4543328285217285,-1.3699079751968384,9.058053970336914,3.7056117057800293,51.457305908203125, -12.19162368774414
327,225932497,-0.0070116688,-0.29351756,0.08573334,-0.9520758,3.3653223514556885,-1.355916142463684,8.757965087890625,3.683946132659912,61.89807891845703, -12.865120887756348
328,225949164,-0.009370167,-0.28390583,0.08393746,-0.9551253,2.943636417388916,-1.1869609355926514,8.091811180114746,8.472917556762695,70.21102142333984, -12.23393440246582
329,225965831,-0.012076427,-0.2727005,0.081804805,-0.95853883,2.9398932456970215,-0.15210755169391632,7.532217979431152,10.321613311767578,81.49862670898438, -13.92620849609375
330,225982498,-0.015257617,-0.26014432,0.0796226,-0.96216035,4.160268306732178,-0.017221491783857346,7.5218915939331055,9.73832893371582,91.02352142333984, -16.366886138916016
331,225999165,-0.018261014,-0.24633102,0.07496125,-0.96611005,6.126725673675537,-0.6068423390388489,8.70857048034668,26.478899002075195,100.08817291259766, -18.890256881713867
332,226015832,-0.021520015,-0.22981441,0.069783576,-0.9704909,7.960452556610107,-1.4311232566833496,10.52686882019043,29.344425201416016,119.0108871459961, -20.004091262817383
333,226032499,-0.024673454,-0.2113086,0.061918397,-0.97514415,11.684778213500977,-1.652832269668579,10.596674919128418,47.283912658691406,133.1328582763672, -22.546335220336914
334,226049166,-0.028500048,-0.18926856,0.059101373,-0.97973084,15.784348487854004,-0.6942468881607056,12.230123519897461,11.840721130371094,156.34217834472656, -18.221912384033203
335,226065833,-0.03404929,-0.16271609,0.06106499,-0.9841927,17.352083206176758,0.6527288556098938,11.955759048461914,-23.56196403503418,186.6281280517578, -21.77174186706543
336,226082500,-0.041173622,-0.13423641,0.06992311,-0.9876214,15.734496116638184,-0.1763942688703537,12.902800559997559,-72.92900085449219,197.90895080566406, -24.109067916870117
337,226099167,-0.0491189,-0.10092401,0.08115647,-0.9903612,10.474379539489746,-0.9332308173179626,14.87413501739502,-91.57023620605469,230.13584899902344, -25.328121185302734
338,226115834,-0.057595693,-0.06470308,0.093857564,-0.99181,1.6791517734527588,-2.7298614978790283,15.408117294311523,-103.68791198730469,249.02902221679688, -26.723825454711914
339,226132501,-0.06498126,-0.026526356,0.10368134,-0.99213123,-1.4027000665664673,-2.657252073287964,11.928110122680664,-85.08715057373047,262.2603454589844, -19.772937774658203
340,226149168,-0.07227574,0.010223516,0.1130114,-0.9909088,2.3076012134552,-1.5936074256896973,7.53912353515625,-82.16051483154297,252.3080596923828, -20.989238739013672
341,226165835,-0.07637321,0.041645527,0.12298652,-0.98858845,7.908170700073242,-2.336071252822876,-4.031207084655762,-84.9857177734375,213.30552673339844, -3.9421684741973877
342,226182502,-0.07623194,0.06781325,0.11278993,-0.9883666,9.606863975524902,-15.756420135498047,-5.462100982666016,55.552398681640625,184.18927001953125, 27.34102439880371
343,226199169,-0.07911473,0.09158033,0.078022435,-0.989579,-1.2551965713500977,0.3046606779098511,9.4661283493042,226.8194580078125,182.70559692382812, 17.195539474487305
344,226215836,-0.0829641,0.11574471,0.06296337,-0.9878036,-2.840013265609741,1.0004756450653076,11.222830772399902,91.39696502685547,177.05877685546875, -3.262144088745117
345,226232503,-0.08670221,0.13892695,0.049809687,-0.9852417,1.3825324773788452,-1.1286203861236572,2.9543399810791016,78.5040054321289,169.8511962890625, -4.941838264465332
346,226249170,-0.0903265,0.1589899,0.038978036,-0.9823667,-2.034858465194702,0.8944065570831299,3.9463038444519043,64.429443359375,147.63710021972656, -7.656593322753906
347,226265837,-0.092497356,0.17516571,0.03967835,-0.97938097,-4.677818298339844,2.1929826736450195,4.2771501541137695,-12.708283424377441,113.91107177734375, -11.579927444458008
348,226282504,-0.09252359,0.18670638,0.045623098,-0.9769845,-4.524330139160156,-1.2842533588409424,2.2452025413513184,-47.56669616699219,77.973388671875, -4.37237024307251
349,226299171,-0.09156824,0.19318971,0.050154828,-0.97559094,-6.495019435882568,-2.001208782196045,2.8314383029937744,-35.77546310424805,43.20112991333008, 3.0897135734558105
350,226315838,-0.09082638,0.19413778,0.05304692,-0.97531897,-7.532297611236572,-2.2193727493286133,3.5397636890411377,-20.579967498779297,5.546227931976318, 2.6323046684265137
351,226332505,-0.0909263,0.18984337,0.052394047,-0.97619,-6.7096710205078125,-1.2260469198226929,4.423048496246338,8.048580169677734,-28.770580291748047, 0.5142598152160645
352,226349172,-0.091358446,0.1818733,0.049847342,-0.97779906,-6.22633695602417,0.2391367107629776,6.400821685791016,23.7713680267334,-53.22681427001953, -0.12040672451257706
353,226365839,-0.09171346,0.17184742,0.04841282,-0.97964966,-5.546221733093262,0.46596452593803406,8.03406810760498,17.543859481811523,-68.17125701904297, -1.5678575038909912
354,226382506,-0.0920891,0.1607638,0.048052073,-0.98151195,-4.9191436767578125,-0.12503182888031006,8.67072582244873,10.968361854553223,-76.04756927490234, -3.337916851043701
355,226399173,-0.09240598,0.14886247,0.048136003,-0.98335356,-4.766201972961426,-0.607295036315918,9.248114585876465,8.388717651367188,-81.89474487304688, -3.7252514362335205
356,226415840,-0.0924459,0.13610621,0.048470203,-0.98517996,-4.647857666015625,-1.2029383182525635,9.894745826721191,6.937473297119141,-87.95846557617188, -2.40576434135437
357,226432507,-0.09222424,0.12306729,0.048073635,-0.9869338,-4.563217639923096,-2.069636344909668,10.877180099487305,11.797529220581055,-89.47412109375, -0.09081243723630905
358,226449174,-0.09198879,0.11076991,0.04609845,-0.98850554,-4.138178825378418,-2.1985349655151367,11.127904891967773,21.98598289489746,-83.33563232421875, 1.4716225862503052
359,226465841,-0.09167382,0.09985488,0.043754656,-0.9898033,-3.705721616744995,-1.66950261592865,11.32701301574707,23.491777420043945,-73.562744140625, 2.5610485076904297
360,226482508,-0.09119594,0.09018102,0.042824555,-0.9908162,-3.7718679904937744,-1.067420482635498,11.105022430419922,12.901700019836426,-65.89370727539062, 2.894479990005493
361,226499175,-0.090526715,0.080764905,0.04415149,-0.9916313,-3.2727081775665283,-0.978660523891449,9.958861351013184,-2.8149163722991943,-65.52835845947266, 2.7492380142211914
362,226515842,-0.08962183,0.07058691,0.047738783,-0.99232376,-2.174442768096924,-1.6260628700256348,8.684455871582031,-17.921119689941406,-72.17195892333984, 2.791383981704712
363,226532509,-0.08948112,0.060108945,0.050744478,-0.9928772,-2.442533016204834,-1.3088959455490112,9.182100296020508,-13.425558090209961,-73.56254577636719, -2.3234760761260986
364,226549176,-0.089526676,0.049738035,0.05389575,-0.99328065,-2.6621758937835693,-1.3266037702560425,9.401728630065918,-14.453375816345215,-72.82450866699219, -3.711787700653076
365,226565843,-0.08925378,0.03786909,0.055090293,-0.99376297,-2.3957667350769043,-1.7671356201171875,7.55886697769165,-0.24227623641490936,-82.03556060791016, -1.3767279386520386
366,226582510,-0.089119114,0.024829812,0.052133497,-0.9943458,-1.0102657079696655,-2.0638771057128906,9.45215892791748,28.935277938842773,-87.50052642822266, -1.6234840154647827
367,226599177,-0.0883071,0.00996307,0.049015503,-0.9948368,0.2239045798778534,-1.5104215145111084,11.090532302856445,31.031967163085938,-100.1326675415039, 2.3262033462524414
368,226615844,-0.08775129,-0.007322689,0.045520935,-0.995075,2.280104160308838,-1.2940553426742554,14.228989601135254,35.017333984375,-116.3321533203125, -0.36373209953308105
369,226632511,-0.086527474,-0.02598565,0.04108611,-0.9950627,3.391960382461548,-2.711620330810547,12.989195823669434,42.236148834228516,-125.35289001464844, 3.5867228507995605
370,226649178,-0.08490225,-0.044602703,0.03000471,-0.99493825,3.809957504272461,-2.2023324966430664,11.6861572265625,87.7640151977539,-121.14765167236328, 5.0958123207092285
371,226665845,-0.08403158,-0.06373339,0.015009566,-0.99430954,4.0906805992126465,1.7034870386123657,11.96140193939209,114.53910827636719,-122.30591583251953, -1.666078805923462
372,226682512,-0.08268779,-0.08535139,0.0041148094,-0.9929054,5.975048542022705,1.4227688312530518,11.168569564819336,88.02155303955078,-142.00074768066406, 2.6744790077209473
373,226699179,-0.0812481,-0.10862135,-0.0068532876,-0.99073374,5.856451034545898,0.5837365984916687,8.437239646911621,89.4660415649414,-153.5884246826172, 2.8121325969696045
374,226715846,-0.07385671,-0.12929899,-0.018094007,-0.98868597,15.70276165008545,-7.284963607788086,-14.601605415344238,94.30821990966797,-135.30235290527344, 43.09882354736328
375,226732513,-0.071136184,-0.15464023,-0.014512898,-0.9852999,15.207108497619629,0.2131510078907013,19.19672393798828,-7.914730072021484,-175.86599731445312, 24.33911895751953
376,226749180,-0.06855045,-0.18085551,-0.0127252955,-0.98103535,24.249046325683594,1.641717553138733,26.49439239501953,4.6301703453063965,-181.64598083496094, 21.150800704956055
377,226765847,-0.06786525,-0.20335189,-0.010869459,-0.97669053,16.55866241455078,0.593495786190033,15.629220008850098,0.06079060584306717,-156.5249786376953, 8.028745651245117
378,226782514,-0.0666811,-0.22512095,-0.008210746,-0.9720119,9.182981491088867,-2.225862503051758,7.6445112228393555,-4.941442012786865,-152.23265075683594, 12.273444175720215
379,226799181,-0.06554535,-0.24637887,-0.0033215107,-0.9669489,5.906168460845947,3.8908467292785645,8.913525581359863,-20.085535049438477,-150.33177185058594, 15.160609245300293
380,226815848,-0.06412091,-0.265936,0.002963163,-0.9618512,1.0737974643707275,1.2237412929534912,3.8162033557891846,-29.704912185668945,-139.68994140625, 19.43927764892578
381,226832515,-0.062335964,-0.28121755,0.007070782,-0.95759124,-2.2435848712921143,2.2288730144500732,2.907109498977661,-16.532203674316406,-108.96340942382812, 18.322460174560547
382,226849182,-0.060888145,-0.2922769,0.009810054,-0.95434314,-2.893317937850952,3.6033430099487305,4.804894924163818,-9.971341133117676,-78.69770050048828, 14.133622169494629
383,226865849,-0.059538733,-0.30111122,0.00969487,-0.9516793,-1.6015278100967407,3.7125651836395264,6.764088153839111,7.608543872833252,-61.8525390625, 8.201383590698242
384,226882516,-0.058085404,-0.3087563,0.0067992155,-0.9493416,0.032457590103149414,2.5017995834350586,7.512415409088135,25.49098014831543,-52.39448165893555, 3.3895933628082275
385,226899183,-0.056332003,-0.3154915,0.0036737642,-0.94724786,1.6503105163574219,1.3538745641708374,8.66894817352295,27.23796844482422,-45.9697265625, 5.031928539276123
386,226915850,-0.05436495,-0.32109952,0.0021789884,-0.94548136,3.085622787475586,0.7246696352958679,10.000263214111328,16.637292861938477,-38.651493072509766, 10.131406784057617
387,226932517,-0.05199483,-0.32567456,0.0024575074,-0.94404805,4.070394992828369,-0.08004401624202728,10.58071231842041,5.616128444671631,-31.959428787231445, 16.813949584960938
388,226949184,-0.049210005,-0.3294066,0.0044618067,-0.9428945,3.6015069484710693,-1.2099964618682861,11.140054702758789,-4.941646575927734,-26.566905975341797, 23.480939865112305
389,226965851,-0.046220023,-0.33215594,0.0076628188,-0.9420603,2.015620470046997,-1.816357970237732,9.915114402770996,-12.529303550720215,-19.983362197875977, 27.64093589782715
390,226982518,-0.043353967,-0.33382583,0.011603249,-0.94156593,0.9100684523582458,-1.1235167980194092,9.499300956726074,-17.892446517944336,-12.554786682128906, 28.66575050354004
391,226999185,-0.04092591,-0.3346881,0.015283522,-0.94131577,0.906216025352478,0.2019922435283661,9.139201164245605,-17.41545295715332,-6.776144027709961, 25.355371475219727
392,227015852,-0.03913936,-0.33474147,0.01857012,-0.9413137,1.8509067296981812,1.4965909719467163,9.18173599243164,-16.549697875976562,-0.907895565032959, 20.456600189208984
393,227032519,-0.038150236,-0.33419245,0.021687126,-0.9414828,2.7285900115966797,2.0065758228302,9.131077766418457,-17.629947662353516,3.4312314987182617, 14.779549598693848
394,227049186,-0.03755661,-0.3330905,0.023858901,-0.94184446,4.015475749969482,1.2733559608459473,8.662714958190918,-12.556780815124512,7.680277347564697, 10.233111381530762
395,227065853,-0.037093733,-0.3314614,0.02404126,-0.9424328,4.513734817504883,0.04425091668963432,9.831987380981445,-0.10456389933824539,12.097851753234863, 4.981013298034668
396,227082520,-0.03662285,-0.3290814,0.024139293,-0.94328237,4.7580766677856445,-0.7598848342895508,10.099334716796875,0.3214205503463745,17.521224975585938, 5.0552287101745605
397,227099187,-0.03611741,-0.32572785,0.025666894,-0.94442487,3.4328415393829346,-0.8953745365142822,10.253900527954102,-9.122191429138184,24.07697868347168, 8.641420364379883
398,227115854,-0.035889357,-0.32080844,0.028264057,-0.9460419,1.7076115608215332,-0.5890395045280457,9.928483009338379,-16.99668312072754,35.0146484375, 9.595269203186035
399,227132521,-0.036113728,-0.31398323,0.032235947,-0.94819367,0.6361851692199707,0.18312862515449524,8.878725051879883,-27.080955505371094,48.236881256103516, 10.533526420593262
400,227149188,-0.036692526,-0.30585453,0.035640035,-0.9507033,0.45703285932540894,0.7195875644683838,9.012473106384277,-24.402097702026367,57.62607955932617, 7.372161388397217
401,227165855,-0.03748792,-0.29736555,0.038525764,-0.9532493,1.356294870376587,0.9000799655914307,8.476490020751953,-21.574159622192383,60.139244079589844, 4.967085838317871
402,227182522,-0.038504746,-0.2887225,0.042400554,-0.95569813,1.354910969734192,1.3004646301269531,9.335450172424316,-28.60008430480957,60.679161071777344, 5.559010982513428
403,227199189,-0.039781954,-0.2794763,0.04675031,-0.95818835,1.2057056427001953,1.0421855449676514,9.127955436706543,-32.41983413696289,64.59344482421875, 4.985649108886719
404,227215856,-0.041294854,-0.26885995,0.04798953,-0.96109635,0.6878284811973572,1.236034631729126,8.80052661895752,-12.651548385620117,75.27243041992188, -1.985280990600586
405,227232523,-0.043684512,-0.2539164,0.044318553,-0.9652223,3.3622934818267822,1.0493965148925781,7.714484691619873,17.315555572509766,107.72563934326172, -15.073652267456055
406,227249190,-0.046747886,-0.23579931,0.03683397,-0.96997774,5.622643947601318,0.8455875515937805,8.894551277160645,40.66419982910156,131.22743225097656, -25.033817291259766
407,227265857,-0.049693864,-0.21548516,0.026923668,-0.97487015,10.041766166687012,-0.11455298215150833,11.571198463439941,56.3432502746582,146.8784942626953, -27.569169998168945
408,227282524,-0.053312127,-0.19128963,0.019647205,-0.97988784,16.553361892700195,1.7919104099273682,11.944725036621094,36.388370513916016,172.39877319335938, -27.409440994262695
409,227299191,-0.058931272,-0.16118261,0.024839949,-0.9848505,19.944698333740234,1.4705862998962402,13.28127384185791,-52.467926025390625,208.08779907226562, -23.70505714416504
410,227315858,-0.06505048,-0.12610385,0.03856296,-0.98913056,19.777297973632812,-1.4891130924224854,13.503042221069336,-112.9609603881836,237.9395294189453, -17.06879425048828
411,227332525,-0.07106993,-0.08264941,0.052352916,-0.9926618,16.713869094848633,0.13397353887557983,15.033751487731934,-117.27001953125,294.544189453125, -14.458456993103027
412,227349192,-0.077194385,-0.035057515,0.07261713,-0.99375004,4.738443374633789,-0.300670862197876,15.729019165039062,-164.47689819335938,318.5669860839844, -11.185900688171387
413,227365859,-0.08157637,0.007167113,0.09548703,-0.9920566,-0.13697674870491028,-4.980592250823975,5.806176662445068,-180.43177795410156,278.9798889160156, -2.8050293922424316
414,227382526,-0.082730226,0.03542562,0.11135707,-0.9896971,17.564640045166016,-7.744746208190918,-10.084512710571289,-125.32893371582031,185.46827697753906, 10.00149917602539
415,227399193,-0.07925595,0.051630992,0.10222935,-0.99025345,13.880492210388184,-18.4099178314209,-10.596238136291504,52.95195770263672,113.72820281982422, 40.079776763916016
416,227415860,-0.08105317,0.062495146,0.07253519,-0.99210054,-1.481978416442871,4.319252967834473,9.668259620666504,199.09483337402344,92.08198547363281, 8.459371566772461
417,227432527,-0.08347874,0.07325836,0.06443948,-0.99172187,-6.7050042152404785,0.8008859157562256,15.207276344299316,50.83258056640625,80.6004409790039, -6.435346603393555
418,227449194,-0.08526759,0.08724348,0.05852271,-0.9908043,-3.01979923248291,2.2291481494903564,11.868176460266113,33.50046157836914,101.20719909667969, -2.100389242172241
419,227465861,-0.08653399,0.103742175,0.05573518,-0.9892639,0.2589665353298187,1.642663598060608,8.419421195983887,10.067103385925293,116.62884521484375, 0.2142413705587387
420,227482528,-0.08742726,0.11900042,0.053704914,-0.9875784,-2.369011402130127,-0.16489459574222565,9.082347869873047,5.278326988220215,107.72743225097656, 1.6467077732086182
421,227499195,-0.088202745,0.13212845,0.055355445,-0.9857475,-4.384678840637207,0.435113787651062,9.020367622375488,-18.605876922607422,91.1082534790039, -1.4439088106155396
422,227515862,-0.08902499,0.14364102,0.056635883,-0.9839889,-5.10449743270874,-1.3127189874649048,7.065417289733887,-15.08065128326416,80.28584289550781, -2.0053293704986572
423,227532529,-0.09008474,0.15274455,0.0562588,-0.98254216,-5.780832767486572,-1.6270931959152222,5.405572891235352,-2.032320976257324,64.71861267089844, -2.732262134552002
424,227549196,-0.09131191,0.1587517,0.05539298,-0.9815253,-6.789372444152832,-0.5918298363685608,5.201915264129639,3.54259991645813,43.6325798034668, -4.293064117431641
425,227565863,-0.09251589,0.1618987,0.054763995,-0.98093355,-6.622776031494141,-0.802452802658081,5.594454288482666,3.8716816902160645,23.60858917236328, -5.235118865966797
426,227582530,-0.09352589,0.16325213,0.051522586,-0.980789,-6.93238639831543,-1.6987897157669067,6.733414649963379,22.582548141479492,12.510482788085938, -1.4262337684631348
427,227599197,-0.094698854,0.16400963,0.047870938,-0.98073506,-6.884472846984863,-0.7930269241333008,7.4064812660217285,25.959505081176758,8.622159957885742, -2.2308847904205322
428,227615864,-0.09526932,0.1643987,0.0472094,-0.9806469,-6.492728233337402,-1.0213686227798462,7.072076797485352,5.342137813568115,3.9482686519622803, -1.6974691152572632
429,227632531,-0.095232435,0.16403803,0.04789119,-0.98067766,-6.7767205238342285,-1.45573091506958,7.125212669372559,-3.870809555053711,-2.395120620727539, 0.7035361528396606
430,227649198,-0.09485603,0.1625399,0.048200615,-0.9809484,-6.888760089874268,-1.9794459342956543,7.183516979217529,-0.9109158515930176,-10.283527374267578, 3.186009407043457
431,227665865,-0.09444202,0.15983284,0.047107816,-0.9814862,-6.661020755767822,-1.928261637687683,7.204658031463623,9.398165702819824,-17.914533615112305, 4.772619724273682
432,227682532,-0.094210885,0.1562266,0.045381386,-0.9821703,-6.038753032684326,-1.6302460432052612,7.097701072692871,14.521923065185547,-23.74897003173828, 4.031674385070801
433,227699199,-0.093904816,0.15183549,0.042473394,-0.98301786,-5.7980055809021,-1.6118065118789673,7.526514530181885,22.99083137512207,-28.549114227294922, 5.662220478057861
434,227715866,-0.09349139,0.14683959,0.039523046,-0.9839388,-5.689386367797852,-1.0488358736038208,8.25345230102539,23.587249755859375,-32.77729797363281, 6.298717975616455
435,227732533,-0.0930119,0.14146265,0.037196822,-0.98486215,-5.5120625495910645,-0.896822452545166,8.58946418762207,19.543766021728516,-35.83147430419922, 6.00880765914917
436,227749200,-0.092394285,0.13583001,0.03627124,-0.98574746,-5.1902055740356445,-0.42865777015686035,8.913054466247559,10.076432228088379,-38.50791549682617, 5.487673759460449
437,227765867,-0.091634564,0.12984446,0.03819503,-0.98655206,-5.053009986877441,-0.033621035516262054,8.87183666229248,-9.173929214477539,-42.71449279785156, 3.6449999809265137
438,227782534,-0.09062497,0.12305864,0.04118681,-0.9873942,-4.633406639099121,-0.9091293215751648,8.692319869995117,-16.144155502319336,-48.958438873291016, 4.192652225494385
439,227799201,-0.089433886,0.115149334,0.04362491,-0.98835176,-4.4176201820373535,-1.5097200870513916,9.596468925476074,-11.808579444885254,-56.42869567871094, 5.641756534576416
440,227815868,-0.0880804,0.10676499,0.044650972,-0.9893683,-4.878505706787109,-1.6711639165878296,10.978340148925781,-2.026604652404785,-58.91746520996094, 7.7539262771606445
441,227832535,-0.08674995,0.099051915,0.04357767,-0.9903354,-4.683331489562988,-1.5417869091033936,11.318113327026367,11.853857040405273,-53.075435638427734, 9.311718940734863
442,227849202,-0.08533196,0.092104346,0.041879293,-0.99120206,-3.934145212173462,-1.0436650514602661,11.344698905944824,15.565726280212402,-47.48563003540039, 10.50147533416748
443,227865869,-0.08346012,0.08494689,0.042489026,-0.9919743,-3.0909242630004883,-1.2851405143737793,10.836989402770996,-0.3609887957572937,-50.36768341064453, 12.01616382598877
444,227882536,-0.080727875,0.07589579,0.046675656,-0.9927459,-1.7163293361663818,-2.0966477394104004,9.326818466186523,-24.172969818115234,-65.60232543945312, 15.238632202148438
445,227899203,-0.07791053,0.06454479,0.050938174,-0.993564,-0.5089883804321289,-2.768085241317749,7.995276927947998,-23.428892135620117,-81.39334869384766, 15.06459903717041
446,227915870,-0.07666144,0.052030943,0.051769968,-0.9943519,-1.721381664276123,-1.9622936248779297,9.400535583496094,1.344286322593689,-86.9212417602539, 5.450150012969971
447,227932537,-0.07584287,0.03817723,0.05176957,-0.9950429,-1.8317583799362183,-1.1779165267944336,8.409767150878906,7.871543884277344,-95.46219635009766, 2.2751407623291016
448,227949204,-0.07494287,0.022474585,0.0508052,-0.99563926,0.6241004467010498,-0.4805305004119873,10.728973388671875,15.376436233520508,-107.62859344482422, 2.377207040786743
449,227965871,-0.07338044,0.0052573183,0.050550718,-0.99600816,1.9113049507141113,-0.08520381152629852,13.473319053649902,11.102155685424805,-118.53369903564453, 6.162487030029297
450,227982538,-0.06293121,-0.0300606,0.052228414,-0.9961969,-1.8387081623077393,-11.774720191955566,-33.73008728027344,6.592100620269775,-246.54835510253906, 60.58995819091797
451,227999205,-0.054815933,-0.07558056,0.06856802,-0.99326795,43.468666076660156,-6.560410499572754,10.869022369384766,-90.82996368408203,-322.6605224609375, 42.5538444519043
452,228015872,-0.05192846,-0.113617375,0.060223814,-0.9903373,16.192598342895508,-0.8320584893226624,36.28413772583008,72.35958862304688,-259.0015563964844, -2.420492649078369
453,228032539,-0.04680736,-0.14314489,0.047902547,-0.9874331,15.402776718139648,-1.8513356447219849,24.29742431640625,98.10206604003906,-200.36875915527344, 13.232064247131348
454,228049206,-0.04448919,-0.17344125,0.03769858,-0.98311627,28.913957595825195,-0.4690811038017273,11.774076461791992,80.74122619628906,-206.5963897705078, -4.431804656982422
455,228065873,-0.0485676,-0.19774014,0.028878292,-0.97862464,16.717849731445312,1.1979212760925293,21.671506881713867,61.87458801269531,-164.61361694335938, -44.51679229736328
456,228082540,-0.04938859,-0.21248995,0.028632984,-0.9754943,-3.010221004486084,-1.2975571155548096,6.665465354919434,5.643191814422607,-101.8854751586914, -8.57632064819336
457,228099207,-0.048965946,-0.23356359,0.031150892,-0.97060806,-1.524558424949646,-1.011351466178894,-4.241459369659424,-9.267535209655762,-148.1575164794922, 1.942176103591919
458,228115874,-0.049291544,-0.25066707,0.038481627,-0.9660515,-2.7035775184631348,7.339138031005859,2.4325664043426514,-43.84300994873047,-122.59044647216797, 5.628553867340088
459,228132541,-0.049896047,-0.26610005,0.041405838,-0.9617624,1.6870845556259155,6.184244632720947,2.9762582778930664,-15.64830493927002,-109.5312728881836, -3.211958169937134
460,228149208,-0.051596973,-0.2802345,0.037331156,-0.9578168,4.555999755859375,5.484151840209961,7.932352066040039,28.198997497558594,-97.60932922363281, -22.717744827270508
461,228165875,-0.05273131,-0.29313093,0.031607904,-0.9540937,4.070662975311279,-0.6463961601257324,11.043954849243164,39.691585540771484,-88.59950256347656, -21.711742401123047
462,228182542,-0.052779414,-0.30344674,0.027003437,-0.9510023,0.9754422903060913,-3.217595338821411,10.956320762634277,33.74153137207031,-71.09075164794922, -11.552313804626465
463,228199209,-0.05195002,-0.31077802,0.026597695,-0.9486891,-0.696045994758606,-4.1101813316345215,10.640564918518066,7.209281921386719,-51.73711395263672, 3.7442095279693604
464,228215876,-0.0507192,-0.31595415,0.030045466,-0.9469413,-0.30512183904647827,-1.3997843265533447,10.31370735168457,-17.69456672668457,-38.042354583740234, 15.148473739624023
465,228232543,-0.049460623,-0.31969273,0.03484859,-0.9455877,1.46795654296875,2.2938504219055176,9.744527816772461,-26.868797302246094,-28.4166316986084, 18.695749282836914
466,228249210,-0.048702415,-0.32301608,0.038388554,-0.94435966,1.8788790702819824,3.0445282459259033,9.289201736450195,-19.89792251586914,-24.973087310791016, 12.838425636291504
467,228265877,-0.048256207,-0.32604337,0.039832618,-0.9432819,1.7613152265548706,1.2608556747436523,9.689298629760742,-7.080798625946045,-22.00446319580078, 6.323808193206787
468,228282544,-0.048001245,-0.32793945,0.03953383,-0.9426499,1.3054190874099731,-0.7572890520095825,9.560460090637207,3.5192058086395264,-13.115362167358398, 1.6504640579223633
469,228299211,-0.047797643,-0.32808396,0.03938394,-0.9426161,2.2764720916748047,-1.599429965019226,9.946307182312012,2.0222957134246826,-0.5310409069061279, 2.319697380065918
470,228315878,-0.047667854,-0.3271581,0.041026086,-0.94287455,2.932317018508911,-0.9952459931373596,10.157210350036621,-10.022397994995117,6.422689914703369, 6.253262042999268
471,228332545,-0.047734547,-0.32557562,0.043452013,-0.9433101,3.0838327407836914,0.32600969076156616,9.348133087158203,-15.708917617797852,10.810911178588867, 6.977004528045654
472,228349212,-0.048080757,-0.3233542,0.04520369,-0.94397414,2.4906911849975586,1.2863218784332275,8.785296440124512,-12.11477279663086,15.716851234436035, 3.926579236984253
473,228365879,-0.04879862,-0.3205385,0.04659853,-0.94482934,2.2029836177825928,1.634270429611206,8.986185073852539,-10.783965110778809,20.17815399169922, 0.9847269654273987
474,228382546,-0.049469955,-0.316894,0.047631588,-0.9459717,2.338838815689087,0.27973172068595886,9.44128131866455,-8.543458938598633,26.24269676208496, 0.8702258467674255
475,228399213,-0.04967532,-0.31142157,0.04861358,-0.94772667,2.7172155380249023,-1.0133405923843384,9.133790016174316,-7.630091667175293,39.2708740234375, 4.599855422973633
476,228415880,-0.04964994,-0.30281568,0.050082896,-0.9504365,3.137744903564453,-1.2765827178955078,9.420413970947266,-11.062215805053711,61.440250396728516, 8.509305000305176
477,228432547,-0.049532123,-0.29207435,0.053189043,-0.95363,2.744579792022705,-1.0696015357971191,10.040960311889648,-22.12627410888672,75.76667785644531, 13.407596588134766
478,228449214,-0.04909704,-0.28105807,0.056414198,-0.95677245,1.5232230424880981,-0.09275826811790466,9.497343063354492,-22.383520126342773,77.25904083251953, 15.79715347290039
479,228465881,-0.04801259,-0.27071434,0.060436036,-0.9595604,-0.14002254605293274,0.6508849859237671,9.358263969421387,-26.293819427490234,71.5709457397461, 21.223054885864258
480,228482548,-0.046235956,-0.2610753,0.06302782,-0.9621484,-0.013996139168739319,1.742476224899292,8.023651123046875,-15.445587158203125,66.65909576416016, 22.769012451171875
481,228499215,-0.04495561,-0.24879736,0.06274569,-0.965475,0.44528234004974365,2.214294910430908,8.836732864379883,2.1210262775421143,86.5126953125, 15.717066764831543
482,228515882,-0.04424943,-0.23473929,0.058419462,-0.9692918,3.394387722015381,1.3388160467147827,7.783188343048096,27.60400390625,100.61188507080078, 5.924733638763428
483,228532549,-0.043943197,-0.21915057,0.05063861,-0.97338474,7.057103633880615,0.4986111521720886,10.114607810974121,49.60083770751953,112.4683837890625, -1.6014938354492188
484,228549216,-0.045539018,-0.19614536,0.041433666,-0.97864014,12.958392143249512,1.9391086101531982,10.37288761138916,54.416046142578125,164.99234008789062, -13.532251358032227
485,228565883,-0.049154215,-0.16599132,0.043914575,-0.98392195,19.32825469970703,1.6118336915969849,14.521052360534668,-29.207944869995117,210.18161010742188, -9.299476623535156
486,228582550,-0.05326556,-0.13007537,0.056524623,-0.98845756,20.164775848388672,-1.5206249952316284,14.590436935424805,-100.51964569091797,245.25851440429688, 0.40029123425483704
487,228599217,-0.057708565,-0.08626917,0.07324536,-0.9918986,16.305160522460938,-0.18485777080059052,13.904508590698242,-132.0866241455078,296.7981872558594, 4.4832305908203125
488,228615884,-0.06305436,-0.03610686,0.093821794,-0.9929341,10.10340404510498,1.6898386478424072,15.975940704345703,-162.7030792236328,337.8864440917969, 2.8672971725463867
489,228632551,-0.06901482,0.015750678,0.115442365,-0.9907885,1.2736810445785522,-1.0543256998062134,16.971118927001953,-172.84715270996094,348.740478515625, -1.348473310470581
490,228649218,-0.07324737,0.057674944,0.13499518,-0.9864506,11.928243637084961,-6.800410270690918,-0.5341879725456238,-155.9815673828125,280.83935546875, 1.7027432918548584
491,228665885,-0.07187231,0.08272787,0.12356303,-0.98626715,21.633468627929688,-24.072397232055664,-20.4332218170166,64.45526123046875,175.25784301757812, 38.480194091796875
492,228682552,-0.08046884,0.10250806,0.06221796,-0.98951805,3.7473676204681396,-2.978358507156372,3.3717241287231445,414.8002624511719,171.07144165039062, -3.515289545059204
493,228699219,-0.08680758,0.11828126,0.05357459,-0.9877267,-2.826230049133301,9.31979751586914,11.568268775939941,54.458351135253906,117.19402313232422, -29.835290908813477
494,228715886,-0.09043745,0.1300102,0.05916222,-0.98560554,-1.1255344152450562,-0.9638383984565735,1.3576037883758545,-42.2596435546875,80.48988342285156, -24.711458206176758
495,228732553,-0.09131768,0.13579984,0.054906074,-0.9849898,-2.266751766204834,-4.763120651245117,2.7736525535583496,26.30173110961914,43.87864685058594, 1.2396022081375122
496,228749220,-0.09160838,0.13692547,0.0511072,-0.9850115,-5.434030532836914,-0.5820656418800354,7.01301908493042,25.882917404174805,11.160297393798828, 3.440967082977295
497,228765887,-0.091359906,0.13599665,0.055339288,-0.9849345,-6.801641464233398,-1.8237682580947876,8.42099666595459,-27.759288787841797,-7.964010238647461, -1.2611088752746582
498,228782554,-0.09164892,0.13504651,0.05675113,-0.9849581,-6.017168045043945,-3.7934510707855225,9.191790580749512,-8.098930358886719,-6.295834064483643, -2.215179204940796
499,228799221,-0.09272572,0.13537529,0.050972555,-0.98512805,-6.534887313842773,-2.565049409866333,11.397221565246582,40.609588623046875,7.012722015380859, -0.2902064025402069
500,228815888,-0.0938547,0.1384605,0.04775187,-0.9847537,-6.736883163452148,0.8232592940330505,11.82242202758789,21.396808624267578,24.52436065673828, -2.4164135456085205
501,228832555,-0.09420696,0.14339328,0.04911082,-0.98394704,-6.431931018829346,0.24736270308494568,9.7174711227417,-11.717019081115723,34.18217849731445, -1.2007672786712646
502,228849222,-0.094759405,0.14799474,0.05022612,-0.983156,-6.842312812805176,-0.18811437487602234,8.484725952148438,-9.672956466674805,32.096134185791016, -2.4257116317749023
503,228865889,-0.095573746,0.15073211,0.051200215,-0.9826109,-7.311179161071777,-1.3305647373199463,7.8447465896606445,-7.166713714599609,19.364917755126953, -4.545493125915527
504,228882556,-0.09615488,0.15158221,0.052543253,-0.9823525,-7.194569110870361,-2.0966460704803467,7.775170803070068,-8.557988166809082,5.923035621643066, -3.8376288414001465
505,228899223,-0.09614672,0.15100616,0.053155906,-0.9824091,-7.068282604217529,-3.369117021560669,8.531240463256836,-3.170480489730835,-3.8348357677459717, 0.5882019996643066
506,228915890,-0.09584619,0.14956573,0.05083893,-0.98278135,-6.8898773193359375,-3.11025071144104,9.603277206420898,17.027917861938477,-8.232881546020508, 5.491530418395996
507,228932557,-0.09533447,0.14809482,0.04744231,-0.98322356,-6.392518520355225,-1.964012861251831,9.737946510314941,24.172340393066406,-7.927976608276367, 8.058825492858887
508,228949224,-0.094720595,0.14690334,0.044790924,-0.98358583,-5.99668025970459,-0.5512258410453796,9.124971389770508,18.82868194580078,-6.52639627456665, 8.02346134185791
509,228965891,-0.09401953,0.14567886,0.04424218,-0.98386014,-5.753724575042725,-0.30070042610168457,8.48090648651123,4.506453990936279,-8.100570678710938, 6.415305137634277
510,228982558,-0.093363166,0.14372216,0.045202993,-0.9841667,-5.54017972946167,-0.21800097823143005,7.5590901374816895,-5.18781852722168,-14.09095573425293, 4.392050266265869
511,228999225,-0.092444584,0.14041461,0.047259722,-0.9846341,-5.55912971496582,-0.6712648272514343,7.033058166503906,-11.956116676330566,-24.219022750854492, 4.760087966918945
512,229015892,-0.09114873,0.13532037,0.050320636,-0.98531646,-5.676225185394287,-1.2276569604873657,6.9965128898620605,-17.917591094970703,-37.32847213745117, 5.8941144943237305
513,229032559,-0.089775756,0.1286527,0.05303239,-0.98619294,-5.455960273742676,-1.82015061378479,7.503048419952393,-14.568686485290527,-48.023746490478516, 6.310930252075195
514,229049226,-0.08858131,0.121043876,0.053647794,-0.9872304,-5.029934406280518,-1.9593297243118286,8.019537925720215,0.4513707756996155,-53.23286437988281, 6.704211711883545
515,229065893,-0.087531745,0.11307592,0.051958643,-0.9883584,-4.8949503898620605,-1.7578719854354858,9.149322509765625,16.475244522094727,-54.32683563232422, 7.557248592376709
516,229082560,-0.086394995,0.10514412,0.04908653,-0.9894804,-4.689048767089844,-1.444608211517334,9.774720191955566,24.426511764526367,-53.430015563964844, 9.075927734375
517,229099227,-0.08497973,0.09705816,0.047022644,-0.9905287,-3.9162657260894775,-1.172022819519043,9.8861665725708,18.79338836669922,-55.031272888183594, 10.289047241210938
518,229115894,-0.083092704,0.08837847,0.047810245,-0.99146307,-3.058945417404175,-1.4394384622573853,9.132096290588379,-0.6337306499481201,-60.84016418457031, 11.338247299194336
519,229132561,-0.08144927,0.07960664,0.048561618,-0.9923058,-3.147073268890381,-1.2957676649093628,9.9175386428833,-0.2139969915151596,-61.32684326171875, 9.614771842956543
520,229149228,-0.08051963,0.0708071,0.05006196,-0.99297374,-3.6122491359710693,0.10757379233837128,10.115141868591309,-4.976435661315918,-61.61797332763672, 4.225179195404053
521,229165895,-0.079394564,0.061309226,0.052752133,-0.9935568,-3.248322010040283,-0.4974311888217926,9.206676483154297,-12.855596542358398,-67.09468078613281, 4.689262390136719
522,229182562,-0.0777062,0.049902845,0.05551857,-0.9941778,-2.5303614139556885,-1.7433806657791138,7.801735877990723,-12.568573951721191,-80.41767120361328, 7.829159259796143
523,229199229,-0.07544756,0.03647801,0.058017768,-0.994792,-1.1585520505905151,-2.5086052417755127,10.403840065002441,-9.855545997619629,-94.30636596679688, 11.039857864379883
524,229215896,-0.073794305,0.021570055,0.058787297,-0.9953057,-0.9439604878425598,-1.442378044128418,12.696788787841797,2.867943286895752,-103.28733825683594, 6.687198162078857
525,229232563,-0.07318045,0.004669599,0.060327556,-0.9954816,0.7680751085281372,-0.7165695428848267,10.251246452331543,-1.3818844556808472,-116.84441375732422, -1.5169978141784668
526,229249230,-0.072707415,-0.013721008,0.06204103,-0.99532723,2.643915891647339,-2.2913689613342285,8.535703659057617,-1.9580739736557007,-127.04627227783203, -3.267981767654419
527,229265897,-0.07258642,-0.033163637,0.05385326,-0.9953549,2.829608917236328,-1.5133320093154907,9.211323738098145,66.38817596435547,-129.09475708007812, -6.963752269744873
528,229282564,-0.068248786,-0.05753328,0.04838188,-0.9948322,-0.745305061340332,-3.239010810852051,-12.653913497924805,51.01935958862305,-165.8299560546875, 20.424272537231445
529,229299231,-0.06025903,-0.10077714,0.04480399,-0.9920714,26.821962356567383,-5.566769123077393,-26.05521583557129,47.67878723144531,-297.9862365722656, 38.821563720703125
530,229315898,-0.0618669,-0.13320081,0.042002555,-0.98826414,23.622509002685547,5.793210029602051,39.27410125732422,31.016380310058594,-221.81687927246094, -23.22995376586914
531,229332565,-0.05522707,-0.16872138,0.039543115,-0.9833206,16.725706100463867,-6.39420747756958,23.480531692504883,37.14807891845703,-246.26495361328125, 31.81036949157715
532,229349232,-0.053241603,-0.19879147,0.0333631,-0.9780257,47.16001510620117,-5.153133392333984,25.85589027404785,54.79193115234375,-207.01422119140625, -2.662896156311035
533,229365899,-0.053098056,-0.22631581,0.033261064,-0.9720367,13.636493682861328,-1.4633644819259644,14.80048942565918,10.358250617980957,-192.19898986816406, -6.426156044006348
534,229382566,-0.053133134,-0.24242555,0.035279024,-0.96807134,7.081248760223389,2.6313281059265137,7.144402980804443,-7.7883453369140625,-113.40538024902344, -0.980229914188385
535,229399233,-0.054398466,-0.26005912,0.040816404,-0.96319485,0.5180187821388245,3.8308839797973633,4.485795021057129,-32.95961380004883,-126.02336120605469, -3.9803366661071777
536,229415900,-0.054957353,-0.27869868,0.046799388,-0.95766217,-1.3029711246490479,4.584958076477051,1.9459044933319092,-34.4957389831543,-134.2537841796875, 1.002382516860962
537,229432567,-0.054296885,-0.29463685,0.04595349,-0.9529583,-1.9447662830352783,5.506588459014893,3.105379343032837,12.009946823120117,-112.71969604492188, -2.8348395824432373
538,229449234,-0.05415818,-0.30669093,0.042368174,-0.9493222,-2.6533827781677246,3.6198551654815674,5.109525203704834,27.738910675048828,-83.96593475341797, -10.136662483215332
539,229465901,-0.0536312,-0.31602144,0.03829101,-0.9464609,-2.151815176010132,0.7496230602264404,7.3818583488464355,30.944232940673828,-64.55366516113281, -7.53225564956665
540,229482568,-0.052496865,-0.32354805,0.033718273,-0.9441526,-1.7812682390213013,-1.3953250646591187,7.852153301239014,34.95693588256836,-51.67177963256836, -3.9769134521484375
541,229499235,-0.051304504,-0.32950658,0.030278156,-0.942272,-1.1878072023391724,-2.327951431274414,9.596376419067383,27.271818161010742,-41.04527282714844, -0.5795178413391113
542,229515902,-0.04910517,-0.33384466,0.02966502,-0.9408806,0.40900474786758423,-3.4612162113189697,9.33218765258789,10.781332969665527,-30.735816955566406, 12.83636474609375
543,229532569,-0.046014287,-0.3366963,0.030923985,-0.9399798,1.6534258127212524,-1.3216009140014648,12.193558692932129,0.3381591737270355,-20.88101577758789, 23.33924674987793
544,229549236,-0.04252103,-0.33885032,0.03455774,-0.9392435,2.9160807132720947,-0.42792850732803345,11.960395812988281,-14.259024620056152,-16.911312103271484, 31.627477645874023
545,229565903,-0.039729834,-0.3408291,0.03926656,-0.9384644,4.270016670227051,0.6764164566993713,11.193967819213867,-23.21430778503418,-16.07906723022461, 29.173383712768555
546,229582570,-0.038251102,-0.342005,0.042453054,-0.93795913,5.121886730194092,0.8214223384857178,9.689737319946289,-16.560148239135742,-9.535195350646973, 17.53456687927246
547,229599237,-0.037989464,-0.341454,0.04459656,-0.938071,5.025483131408691,0.9978337287902832,9.402873039245605,-12.98682689666748,3.6553003787994385, 7.90546178817749
548,229615904,-0.038814537,-0.3390135,0.047422893,-0.9387836,4.230654716491699,0.02880195900797844,10.392725944519043,-20.25160026550293,17.380199432373047, 3.2662484645843506
549,229632571,-0.040353946,-0.3358038,0.050289143,-0.9397226,2.1741411685943604,-0.4325540065765381,9.265432357788086,-22.30717658996582,23.054054260253906, -0.9295265674591064
550,229649238,-0.04232661,-0.33280298,0.052518066,-0.9405811,0.6611488461494446,-0.23579822480678558,9.19024658203125,-19.197032928466797,21.799068450927734, -5.347679138183594
551,229665905,-0.044207036,-0.330912,0.055078678,-0.9410151,0.2157132923603058,-0.32022228837013245,8.930651664733887,-20.994070053100586,13.461532592773438, -4.559288024902344
552,229682572,-0.045559015,-0.33063933,0.05909274,-0.94080305,0.8981471061706543,-0.520490825176239,9.51005744934082,-28.974079132080078,0.8196151256561279, 1.3247886896133423
553,229699239,-0.046448693,-0.33026275,0.064422935,-0.9405418,2.7630093097686768,-1.084778070449829,10.495980262756348,-36.50537109375,0.724337100982666, 7.315054893493652
554,229715906,-0.04613482,-0.32804424,0.06823451,-0.9410648,4.0872111320495605,-1.8179315328598022,9.77452278137207,-24.3021240234375,14.33793830871582, 12.550256729125977
555,229732573,-0.045699548,-0.32279906,0.0705786,-0.9427253,4.243024826049805,-0.7705097794532776,9.521976470947266,-14.932537078857422,36.86424255371094, 11.823616981506348
556,229749240,-0.045551483,-0.315069,0.07303801,-0.9451572,3.111562728881836,0.1030116081237793,9.078661918640137,-16.737716674804688,54.764678955078125, 11.634485244750977
557,229765907,-0.04562312,-0.30546263,0.07469976,-0.94817245,0.6928261518478394,0.3266175091266632,8.48501205444336,-11.932140350341797,68.47498321533203, 10.234070777893066
558,229782574,-0.04574611,-0.29460037,0.0747951,-0.95159006,0.3382444977760315,0.5142960548400879,7.912722110748291,-2.0304007530212402,77.97583770751953, 7.382347583770752
559,229799241,-0.046076234,-0.28242618,0.07216425,-0.95546055,1.3560776710510254,1.0211129188537598,7.932424068450928,15.191483497619629,88.39434051513672, 1.325462818145752
560,229815908,-0.047118314,-0.2673785,0.06768148,-0.96005636,4.926064968109131,0.4020116627216339,8.380815505981445,25.406761169433594,109.58682250976562, -5.283021450042725
561,229832575,-0.048243158,-0.25040236,0.05678504,-0.9652702,8.68358039855957,-0.6793831586837769,9.356610298156738,67.24512481689453,125.5732650756836, -16.5113525390625
562,229849242,-0.049939066,-0.22904484,0.04635303,-0.97102845,12.864958763122559,-0.20913153886795044,13.344504356384277,61.94075393676758,155.69920349121094, -17.602474212646484
563,229865909,-0.053112727,-0.20243323,0.039723434,-0.97704756,17.66765594482422,0.4429735839366913,10.879247665405273,32.500221252441406,190.42526245117188, -19.70779037475586
564,229882576,-0.0584221,-0.17062865,0.04148787,-0.9827266,17.205036163330078,1.854894757270813,13.657257080078125,-28.864595413208008,222.5026092529297, -21.07131576538086
565,229899243,-0.06417812,-0.13237467,0.04966856,-0.987872,14.333175659179688,-0.6071125864982605,12.028901100158691,-75.52212524414062,263.1589050292969, -14.92746353149414
566,229915910,-0.069894865,-0.08747746,0.061086383,-0.99183214,7.390880584716797,1.2442148923873901,12.126265525817871,-100.8290786743164,305.9140930175781, -9.972844123840332
567,229932577,-0.07559636,-0.03907378,0.0801273,-0.99314564,2.963250160217285,0.33401811122894287,14.285879135131836,-155.66197204589844,324.6479797363281, -5.084702968597412
568,229949244,-0.08238686,0.011111852,0.0965712,-0.9918483,3.6455276012420654,-1.0196824073791504,12.03620719909668,-140.60830688476562,338.0830383300781, -13.610330581665039
569,229965911,-0.084128946,0.051247485,0.119834825,-0.98789465,17.35036849975586,-2.9560229778289795,-7.61965799331665,-183.58363342285156,262.5044250488281, 12.119817733764648
570,229982578,-0.0801262,0.08047954,0.107728556,-0.98767275,16.90629005432129,-26.010974884033203,-11.086930274963379,64.14075469970703,202.98422241210938, 56.81313705444336
571,229999245,-0.082922466,0.10417766,0.06630686,-0.9888754,-0.6174808740615845,7.610096454620361,10.08957290649414,271.4698791503906,186.0152130126953, 23.56306266784668
572,230015912,-0.08713157,0.123158336,0.051588114,-0.9872077,-0.7585041522979736,-0.07399023324251175,7.970729351043701,92.1164779663086,141.37379455566406, -8.987427711486816
573,230032579,-0.09103072,0.13689013,0.03659305,-0.9857157,-0.035068340599536896,-1.2750272750854492,2.176752805709839,96.91999053955078,105.65692901611328, -8.416803359985352
574,230049246,-0.09550855,0.14744815,0.020409357,-0.98423606,-4.182462692260742,1.4870284795761108,6.904507637023926,107.51798248291016,85.02708435058594, -12.023275375366211
575,230065913,-0.09869638,0.1551558,0.016090663,-0.9828158,-4.739128112792969,2.11848521232605,6.165693759918213,27.768842697143555,57.675079345703125, -15.695638656616211
576,230082580,-0.09916724,0.16014165,0.019914549,-0.98189825,-4.647942543029785,-1.0374667644500732,6.633310794830322,-28.276838302612305,32.8871955871582, -5.989223480224609
577,230099247,-0.0981205,0.16308069,0.027635029,-0.9813324,-6.526205062866211,-1.716193437576294,9.073826789855957,-54.80475997924805,15.787430763244629, -0.07179321348667145
578,230115914,-0.09696691,0.16456296,0.032092124,-0.98106414,-6.323715686798096,-3.6011242866516113,8.679330825805664,-31.857376098632812,7.7657551765441895, 4.233468532562256
579,230132581,-0.096756205,0.16500801,0.03160685,-0.9810258,-6.715639114379883,-2.431845188140869,9.742759704589844,3.3167617321014404,3.973432779312134, 3.3915762901306152
580,230149248,-0.097331926,0.16502918,0.030944426,-0.98098654,-7.141877174377441,-0.4611554443836212,10.126273155212402,5.699612617492676,1.3662517070770264, -1.8070273399353027
581,230165915,-0.09794501,0.16459051,0.030776236,-0.9810045,-7.362848281860352,-0.14687465131282806,9.883459091186523,2.7218170166015625,-2.1634409427642822, -2.685030698776245
582,230182582,-0.09815475,0.16366805,0.030400034,-0.9811495,-7.403841495513916,-0.54597407579422,10.002619743347168,4.011839389801025,-5.558737754821777, 0.24809101223945618
583,230199249,-0.09805641,0.16280356,0.030095156,-0.9813125,-7.1149821281433105,-1.2585816383361816,9.784611701965332,3.143427848815918,-5.34316873550415, 2.264451026916504
584,230215916,-0.097949475,0.16207185,0.029654235,-0.9814577,-7.236878871917725,-1.2215697765350342,9.790922164916992,3.9606146812438965,-4.378184795379639, 2.4869487285614014
585,230232583,-0.097830705,0.16107325,0.029433763,-0.9816407,-7.097400188446045,-1.1668076515197754,8.979488372802734,2.6492817401885986,-6.413497447967529, 2.2879505157470703
586,230249250,-0.09772177,0.15918484,0.029280243,-0.9819641,-6.515993118286133,-0.9072036147117615,7.913084983825684,2.83735728263855,-12.659980773925781, 2.057399034500122
587,230265917,-0.09748987,0.1556589,0.029735623,-0.9825385,-5.95286750793457,-0.9637243151664734,6.95929479598999,-0.2569727599620819,-24.464113235473633, 2.056582450866699
588,230282584,-0.096892335,0.14969355,0.030988554,-0.9834855,-5.4355082511901855,-1.3418070077896118,6.766413688659668,-4.3228230476379395,-41.988746643066406, 3.420308828353882
589,230299251,-0.09583098,0.1412871,0.03170303,-0.9848093,-4.814262390136719,-1.952538251876831,6.587284088134766,0.5531066656112671,-58.65656661987305, 6.838924407958984
590,230315918,-0.09415962,0.13072766,0.031155085,-0.98644495,-3.8972458839416504,-2.086643934249878,6.473719596862793,10.006443977355957,-72.86790466308594, 11.930583953857422
591,230332585,-0.09168046,0.11802596,0.031619214,-0.9882636,-3.1328539848327637,-1.4017019271850586,6.360515117645264,3.8552374839782715,-88.41150665283203, 16.157804489135742
592,230349252,-0.08856495,0.10303098,0.035448804,-0.99009305,-2.0118162631988525,-1.4116019010543823,6.2640061378479,-18.075178146362305,-106.27882385253906, 17.257043838500977
593,230365919,-0.08534745,0.085821755,0.04060797,-0.99181724,-1.3477935791015625,-1.314367651939392,6.4761643409729,-25.869857788085938,-122.11917877197266, 16.4029598236084
594,230382586,-0.08233082,0.06741875,0.04436923,-0.9933317,-1.792368769645691,-1.1695209741592407,8.512848854064941,-15.57148265838623,-129.2606964111328, 15.398756980895996
595,230399253,-0.0795447,0.04853458,0.04841414,-0.9944714,-1.6048400402069092,-1.2433366775512695,9.91738510131836,-17.243112564086914,-132.46795654296875, 13.33092975616455
596,230415920,-0.07682348,0.029289464,0.05302772,-0.9952028,-1.5864251852035522,-1.6179777383804321,8.830072402954102,-21.048622131347656,-135.09344482421875, 12.350707054138184
597,230432587,-0.07464308,0.009969705,0.054248393,-0.9956838,-1.4239535331726074,-1.6926392316818237,9.882235527038574,2.229297161102295,-133.57232666015625, 9.169164657592773
598,230449254,-0.07287378,-0.008705579,0.051857483,-0.99595404,-0.39746350049972534,-0.6832429766654968,11.949702262878418,26.57638168334961,-127.14848327636719, 6.731514930725098
599,230465921,-0.071204536,-0.025959214,0.0524249,-0.99574494,-0.28660935163497925,-0.03642101585865021,14.841429710388184,5.4208221435546875,-118.89067077636719, 6.49052619934082
600,230482588,-0.07035966,-0.04274688,0.057315756,-0.9949559,-0.5940535068511963,1.0209555625915527,15.397902488708496,-24.77950096130371,-117.63087463378906, 1.5026648044586182
601,230499255,-0.07068594,-0.058836292,0.06390512,-0.99370927,0.14653176069259644,0.7427855730056763,11.47414493560791,-37.287452697753906,-113.36459350585938, -5.9528961181640625
602,230515922,-0.07132927,-0.07401941,0.066655405,-0.9924669,2.2539737224578857,-0.9086092114448547,10.434097290039062,-11.643330574035645,-105.17354583740234, -9.268682479858398
603,230532589,-0.070665345,-0.08928133,0.06370624,-0.991452,3.0695745944976807,-1.8291189670562744,10.861841201782227,28.0538330078125,-103.3900146484375, -3.1695969104766846
604,230549256,-0.069121875,-0.10592696,0.05690608,-0.99033505,3.378880739212036,-2.350489377975464,9.152823448181152,55.47857666015625,-111.38758850097656, -0.19018466770648956
605,230565923,-0.066525534,-0.124666505,0.04638199,-0.9888789,3.4431333541870117,-2.394683599472046,4.79481840133667,82.4788589477539,-124.52161407470703, 3.2876675128936768
606,230582590,-0.057816856,-0.1563131,0.036849063,-0.9853252,5.701089382171631,-8.348987579345703,-43.9716911315918,86.2397689819336,-216.485107421875, 40.625099182128906
607,230599257,-0.05772827,-0.18915561,0.04160341,-0.9793655,33.08824920654297,5.629680633544922,23.15578842163086,-19.868471145629883,-230.4873809814453, -3.727773904800415
608,230615924,-0.05408161,-0.21875167,0.047827262,-0.9731061,-1.5052917003631592,1.8650188446044922,23.651790618896484,-26.55903434753418,-210.37225341796875, 23.004169464111328
609,230632591,-0.045872126,-0.24772562,0.054711077,-0.96619594,24.462142944335938,-7.866650104522705,11.495241165161133,-24.589256286621094,-209.048583984375, 54.502689361572266
610,230649258,-0.03810626,-0.26940104,0.054746598,-0.9607153,31.048707962036133,-5.59468412399292,14.71583080291748,18.450729370117188,-155.61865234375, 43.05302047729492
611,230665925,-0.03551012,-0.29033977,0.061052524,-0.9543136,26.33527946472168,1.181617021560669,14.987935066223145,-33.04545211791992,-151.9614715576172, 20.543224334716797
612,230682592,-0.035400324,-0.3072537,0.05982215,-0.94908553,18.060331344604492,2.200777530670166,10.9915189743042,10.940190315246582,-120.18299865722656, -8.808623313903809
613,230699259,-0.036997054,-0.3168994,0.058857784,-0.94590807,7.290921211242676,1.897768497467041,10.946891784667969,4.6519927978515625,-67.7005615234375, -15.863804817199707
614,230715926,-0.03865702,-0.33088595,0.060414787,-0.9409413,-1.4752428531646729,0.5363292098045349,6.1160736083984375,-11.527238845825195,-100.46036529541016, -12.973230361938477
615,230732593,-0.04006319,-0.34278786,0.059164472,-0.93669164,-5.0179924964904785,0.22157029807567596,2.6295647621154785,6.943215847015381,-84.75473022460938, -16.659286499023438
616,230749260,-0.04092523,-0.35024235,0.053940024,-0.9342088,-6.826779842376709,1.5163649320602417,3.980072498321533,33.304317474365234,-51.134132385253906, -20.231725692749023
617,230765927,-0.04180561,-0.35526305,0.04856161,-0.93256766,-6.585271835327148,2.740293502807617,5.532318592071533,33.29361343383789,-33.44990539550781, -20.29815101623535
618,230782594,-0.043008976,-0.35919434,0.044391066,-0.93121386,-4.451963901519775,1.3240841627120972,7.420360088348389,24.552928924560547,-26.104381561279297, -18.900781631469727
619,230799261,-0.043557405,-0.3631288,0.03947189,-0.92988294,-2.5397024154663086,-0.7782400250434875,9.829105377197266,30.942935943603516,-26.13970375061035, -16.54910659790039
620,230815928,-0.043390684,-0.36701956,0.035733495,-0.9285135,-0.47102802991867065,-2.1662611961364746,10.719795227050781,25.134294509887695,-26.598270416259766, -9.046515464782715
621,230832595,-0.04208274,-0.36981812,0.03459666,-0.9275057,1.6173802614212036,-2.989774227142334,10.91960334777832,11.173619270324707,-19.852108001708984, 5.1724114418029785
622,230849262,-0.039767966,-0.37151757,0.034910463,-0.9269168,3.604222536087036,-2.208322286605835,11.7283353805542,4.285440444946289,-12.502423286437988, 15.660978317260742
623,230865929,-0.03731828,-0.37314573,0.037680864,-0.9262559,4.973550319671631,-0.9925510287284851,11.409642219543457,-11.03271484375,-12.98919677734375, 22.810806274414062
624,230882596,-0.0352164,-0.37479514,0.040967725,-0.9255324,5.352118492126465,0.3209661841392517,10.107902526855469,-15.241217613220215,-13.364017486572266, 21.88125991821289
625,230899263,-0.033854123,-0.37503275,0.043211546,-0.92538494,5.358618259429932,1.4213781356811523,8.712273597717285,-10.696977615356445,-2.4616012573242188, 15.032208442687988
626,230915930,-0.03316063,-0.374015,0.04506538,-0.9257334,4.959451198577881,1.6023156642913818,9.383831977844238,-10.087453842163086,7.0750203132629395, 10.285599708557129
627,230932597,-0.032437913,-0.37156782,0.046479907,-0.9266741,3.8347766399383545,1.0894979238510132,8.444042205810547,-7.380541801452637,17.76290512084961, 9.922625541687012
628,230949264,-0.031623714,-0.3672276,0.046735678,-0.9284178,3.011716604232788,0.9069442749023438,8.196030616760254,0.06762418895959854,32.07577133178711, 8.34176254272461
629,230965931,-0.030979926,-0.3615637,0.046366952,-0.93067825,3.0196588039398193,0.22131003439426422,8.592089653015137,3.4921152591705322,41.989376068115234, 6.2121500968933105
630,230982598,-0.030305054,-0.35495514,0.046399154,-0.9332393,2.3801822662353516,-1.0423990488052368,9.094120979309082,0.8870328664779663,48.65322494506836, 7.7549309730529785
631,230999265,-0.029781323,-0.34807268,0.048230574,-0.9357523,1.958371877670288,-2.036994695663452,9.311817169189453,-11.100522994995117,49.92900466918945, 11.227493286132812
632,231015932,-0.029528685,-0.3412964,0.052660808,-0.93801486,2.581634044647217,-2.0171892642974854,9.276110649108887,-28.52911949157715,48.16715621948242, 15.578577041625977
633,231032599,-0.029665466,-0.3340985,0.05894161,-0.9402257,2.598539113998413,-2.122022867202759,9.546055793762207,-41.41452407836914,50.4949836730957, 17.601985931396484
634,231049266,-0.030142989,-0.32531965,0.063770264,-0.9429698,2.7181177139282227,-1.2442610263824463,9.321123123168945,-32.449195861816406,62.27476119995117, 13.41816520690918
635,231065933,-0.031323478,-0.31347567,0.06624797,-0.9467646,2.357198715209961,0.42032960057258606,8.838725090026855,-18.955562591552734,85.26020812988281, 5.154535293579102
636,231082600,-0.03351244,-0.2991844,0.066612445,-0.9512773,3.7571442127227783,1.9118921756744385,7.780614852905273,-7.5837860107421875,103.62247467041016, -4.692963600158691
637,231099267,-0.03603001,-0.2822882,0.062485944,-0.95661426,5.060732841491699,2.0034313201904297,8.496283531188965,20.87369728088379,123.53145599365234, -14.68320083618164
638,231115934,-0.039281968,-0.26158077,0.05604434,-0.9627521,7.827486991882324,1.6189759969711304,8.730640411376953,34.05843734741211,151.04478454589844, -22.154094696044922
639,231132601,-0.042467616,-0.23756358,0.04599577,-0.96935254,12.376977920532227,0.7954082489013672,10.067903518676758,57.32685089111328,174.76467895507812, -26.785717010498047
640,231149268,-0.047170676,-0.20686634,0.036830276,-0.97653717,17.95882225036621,2.858093738555908,11.712900161743164,47.190521240234375,220.54052734375, -33.163291931152344
641,231165935,-0.054851625,-0.17091542,0.037509065,-0.9830425,21.070205688476562,1.5464544296264648,11.475249290466309,-25.054168701171875,252.53660583496094, -38.03009033203125
642,231182602,-0.06296031,-0.13038689,0.04222169,-0.9885609,19.513805389404297,-3.154146909713745,12.355395317077637,-54.82728576660156,281.07659912109375, -35.368080139160156
643,231199269,-0.07202793,-0.08406078,0.0415719,-0.9929842,12.04696273803711,-1.8957010507583618,13.759570121765137,-22.040618896484375,322.2798767089844, -45.501895904541016
644,231215936,-0.079978056,-0.04117056,0.055749595,-0.9943845,2.9950339794158936,-3.1045522689819336,8.80653190612793,-121.81558990478516,289.4761047363281, -31.78203773498535
645,231232603,-0.08206602,-0.006311553,0.0777,-0.9935735,8.437934875488281,-7.871924877166748,-2.3604345321655273,-169.71534729003906,227.39862060546875, 6.207380771636963
646,231249270,-0.0801457,0.017983165,0.092006594,-0.992365,15.18319320678711,-9.5126314163208,-6.788787841796875,-111.46955108642578,157.42271423339844, 27.392993927001953
647,231265937,-0.07793425,0.034668613,0.07616738,-0.9934399,6.091680526733398,-10.087104797363281,0.5563141107559204,99.93571472167969,121.78377532958984, 29.565143585205078
648,231282604,-0.07727564,0.047671657,0.058600646,-0.9941438,-0.8479030728340149,1.6356291770935059,10.26964282989502,113.97539520263672,98.51321411132812, 17.233369827270508
649,231299271,-0.07780868,0.058431793,0.053992018,-0.99378896,-3.0451478958129883,2.004215955734253,10.76523208618164,26.52366828918457,77.11566925048828, 3.3704991340637207
650,231315938,-0.07824129,0.06687114,0.054899294,-0.9931731,-0.8877050280570984,1.1002910137176514,7.275009632110596,-10.093000411987305,58.35231399536133, 0.8392552137374878
651,231332605,-0.07806259,0.072514564,0.051736414,-0.9929609,-1.4291352033615112,-1.6224998235702515,6.944886207580566,19.056581497192383,41.03038787841797, 6.047041416168213
652,231349272,-0.077820376,0.07607344,0.044869237,-0.9930478,-3.1006505489349365,-0.5800033211708069,9.44951343536377,45.54631423950195,28.6082706451416, 7.741858005523682
653,231365939,-0.07755985,0.0791298,0.040348187,-0.99302316,-4.555274486541748,-0.1388644278049469,11.386299133300781,29.748109817504883,23.955385208129883, 6.4191460609436035
654,231382606,-0.077281944,0.082177885,0.03855205,-0.9928687,-5.01649808883667,0.1768021583557129,11.605644226074219,11.093046188354492,22.482027053833008, 4.979036808013916
655,231399273,-0.07688957,0.08486986,0.038342264,-0.9926807,-5.3610758781433105,0.2683204412460327,11.375862121582031,0.3675747215747833,19.164247512817383, 4.748414993286133
656,231415940,-0.07655877,0.08699565,0.03802949,-0.9925343,-5.66634464263916,0.6108177900314331,11.08174991607666,1.4039678573608398,15.311101913452148, 4.257020473480225
657,231432607,-0.07627688,0.08880912,0.037079975,-0.9924313,-5.656163215637207,0.6942791938781738,11.166570663452148,5.938596725463867,13.464253425598145, 4.2415876388549805
658,231449274,-0.07631026,0.0911003,0.035761725,-0.99226946,-5.612563133239746,0.3497506082057953,11.597698211669922,8.365482330322266,16.99681854248047, 2.401660680770874
659,231465941,-0.076869674,0.09413631,0.035109602,-0.9919662,-5.59879207611084,0.8081129193305969,11.162046432495117,3.7117793560028076,21.91193962097168, -1.498857855796814
660,231482608,-0.07747899,0.09765749,0.036074385,-0.9915436,-5.510684013366699,0.30901578068733215,10.209259033203125,-7.585319519042969,24.421152114868164, -2.8359081745147705
661,231499275,-0.07801995,0.101020135,0.03778671,-0.9911005,-5.595921516418457,-0.35186469554901123,9.157485008239746,-12.659530639648438,22.904680252075195, -2.9257586002349854
662,231515942,-0.07843278,0.1036786,0.039493207,-0.9907268,-5.449612617492676,-1.0057806968688965,8.524718284606934,-12.317782402038574,17.991743087768555, -2.198585033416748
663,231532609,-0.07876381,0.10545149,0.040048443,-0.990491,-5.169758319854736,-1.4642548561096191,7.901675224304199,-4.018033504486084,12.424849510192871, -0.9906101226806641
664,231549276,-0.07909602,0.10600489,0.039323986,-0.9904346,-5.0134782791137695,-1.6235164403915405,7.34844446182251,5.412969589233398,4.650542736053467, -0.3131665289402008
665,231565943,-0.07932607,0.10505848,0.03857673,-0.9905464,-4.690392017364502,-1.60476815700531,6.971848011016846,6.362356662750244,-5.732546806335449, 0.08164691179990768
666,231582610,-0.0792804,0.102645025,0.037512373,-0.9908439,-4.5296735763549805,-1.944395899772644,7.111279010772705,9.179877281188965,-15.787506103515625, 1.8985369205474854
667,231599277,-0.0789185,0.09931133,0.035607576,-0.9912827,-4.591057300567627,-1.699521780014038,7.552500247955322,15.230751991271973,-21.80784797668457, 4.482816696166992
668,231615944,-0.07828554,0.09564012,0.03304293,-0.9917826,-4.615426063537598,-1.283187747001648,8.099778175354004,19.74896812438965,-23.886091232299805, 6.730049133300781
669,231632611,-0.07737286,0.09181907,0.031228779,-0.992274,-4.620870590209961,-0.44715264439582825,8.51214599609375,14.530278205871582,-25.397119522094727, 8.103301048278809
670,231649278,-0.076314904,0.087926865,0.031787198,-0.9926906,-4.3956756591796875,0.07732803374528885,8.786190032958984,-1.729182481765747,-27.15570068359375, 7.53934383392334
671,231665945,-0.07517008,0.08362364,0.034250904,-0.99306774,-4.092005252838135,-0.3303244709968567,8.941695213317871,-14.586570739746094,-30.980499267578125, 6.866914749145508
672,231682612,-0.074089184,0.07816605,0.036428146,-0.99351597,-3.6955227851867676,-0.6031582951545715,9.147560119628906,-11.985162734985352,-38.762351989746094, 6.357193470001221
673,231699279,-0.07307161,0.07086803,0.0378164,-0.99408674,-3.0252420902252197,-1.2750383615493774,9.175590515136719,-5.596222400665283,-51.00108337402344, 5.948099136352539
674,231715946,-0.07236792,0.061969254,0.037624277,-0.9947397,-2.4093146324157715,-1.298966884613037,9.366446495056152,6.187143802642822,-61.120452880859375, 4.1960625648498535
675,231732613,-0.07226654,0.0520563,0.036349688,-0.9953625,-2.248729944229126,-0.7161654829978943,8.568870544433594,14.347391128540039,-67.35910034179688, 0.2609785795211792
676,231749280,-0.07170603,0.04114494,0.036290273,-0.99591595,-2.3326070308685303,-0.6993412971496582,8.855552673339844,6.34487247467041,-74.8957748413086, 2.6841297149658203
677,231765947,-0.07017015,0.028313143,0.039933827,-0.99633336,-1.4675222635269165,-0.3906974792480469,8.795977592468262,-18.37557601928711,-90.08944702148438, 7.767777919769287
678,231782614,-0.06926996,0.012736451,0.04672607,-0.99642175,-0.3074030578136444,-0.37913984060287476,10.634321212768555,-38.592403411865234,-110.18135070800781, 1.8850762844085693
679,231799281,-0.07012704,-0.005513521,0.050019916,-0.99626803,1.094090461730957,-0.47362104058265686,10.49618911743164,-13.280777931213379,-126.24234771728516, -10.822267532348633
680,231815948,-0.071524814,-0.024700284,0.05076115,-0.9958402,3.224792957305908,-0.2664756774902344,7.527673244476318,4.537664890289307,-131.2412109375, -15.074116706848145
681,231832615,-0.06822989,-0.05039295,0.05421439,-0.9949202,0.5209726095199585,-4.311925888061523,-16.783794403076172,-10.211831092834473,-178.82322692871094, 15.011198997497559
682,231849282,-0.05994632,-0.09852107,0.048420083,-0.9921469,23.982086181640625,-7.143720626831055,-23.874271392822266,64.68171691894531,-330.5493469238281, 36.70155334472656
683,231865949,-0.06157354,-0.12892662,0.051581755,-0.98839575,24.180713653564453,6.313329696655273,40.300113677978516,-10.698177337646484,-210.3564910888672, -19.36444854736328
684,231882616,-0.054807503,-0.16567399,0.055000864,-0.98311925,11.188282012939453,-9.18006420135498,22.82155418395996,-2.9370172023773193,-257.78704833984375, 35.06279373168945
685,231899283,-0.04787207,-0.20083669,0.037032586,-0.9777534,29.976497650146484,-7.100760459899902,22.664743423461914,141.2832489013672,-239.1526336669922, 12.373186111450195
686,231915950,-0.03942749,-0.22888872,0.030354815,-0.9721801,30.23224639892578,-5.147289276123047,12.705599784851074,65.09243774414062,-195.526123046875, 39.826454162597656
