PacketCounter,SampleTimeFine,Quat_W,Quat_X,Quat_Y,Quat_Z,Acc_X,Acc_Y,Acc_Z,Gyr_X,Gyr_Y,Gyr_Z 
1,1461414342,0.965644,0.06417372,-0.23434563,0.0921733,0,0,0,0,0, 0
2,1461431009,0.9688158,0.05437502,-0.22094297,0.098100364,5.785157680511475,0.09123826771974564,8.853795051574707,19.112398147583008,165.39100646972656, 7.897303104400635
3,1461447676,0.9712873,0.04691108,-0.20935853,0.10280736,5.272706508636475,-0.015041876584291458,8.985272407531738,16.202409744262695,164.60719299316406, 7.416891574859619
4,1461464343,0.97405165,0.041872986,-0.1951975,0.106622934,4.791108131408691,0.05322809889912605,8.430545806884766,19.524248123168945,164.0789794921875, 6.289798259735107
5,1461481010,0.9768946,0.039149646,-0.17907053,0.109899916,4.216037750244141,-0.012974459677934647,8.585332870483398,22.821008682250977,165.12583923339844, 6.434996128082275
6,1461497677,0.9797153,0.03616266,-0.16158146,0.112879045,3.7054080963134766,0.28535857796669006,8.771626472473145,15.304498672485352,161.1308135986328, 8.426186561584473
7,1461514344,0.9823421,0.032624923,-0.14352816,0.1154972,3.4947803020477295,0.16846127808094025,6.7773966789245605,3.9189014434814453,154.50607299804688, 10.412025451660156
8,1461531011,0.98451316,0.030451346,-0.12623678,0.117775366,2.6933836936950684,0.33340346813201904,7.068646430969238,8.479349136352539,149.189208984375, 8.865005493164062
9,1461547678,0.9863888,0.027672596,-0.10954542,0.119462825,2.0161542892456055,0.969896674156189,6.707484245300293,-0.0532781146466732,140.0491180419922, 7.101773738861084
10,1461564345,0.9879933,0.024310375,-0.09359985,0.12048759,1.5348994731903076,0.3914320766925812,5.4967145919799805,-11.071135520935059,129.6612091064453, 5.040246486663818
11,1461581012,0.98927647,0.021458423,-0.07856207,0.12124205,0.9018290042877197,0.4443724453449249,5.201947212219238,-9.096027374267578,119.330810546875, 3.47200870513916
12,1461597679,0.99030024,0.019725943,-0.06398983,0.12174525,0.3769831359386444,0.23284359276294708,5.863667964935303,-2.5833194255828857,110.99365997314453, 1.5814416408538818
13,1461614346,0.9910805,0.01914913,-0.04983598,0.122103326,-0.15295691788196564,-0.21836115419864655,6.658849716186523,5.381524085998535,102.72362518310547, 0.2905292510986328
14,1461631013,0.991623,0.019838879,-0.036225654,0.12238589,-0.4653235971927643,-0.44851499795913696,6.418847560882568,15.365629196166992,93.6589126586914, -0.5221955180168152
15,1461647680,0.99196124,0.021148855,-0.023443647,0.12254009,-1.0911837816238403,-0.33479875326156616,6.296694755554199,20.728300094604492,84.38711547851562, -1.3142353296279907
16,1461664347,0.9921643,0.02211887,-0.012113739,0.12236816,-1.2102694511413574,-0.18926046788692474,5.64321756362915,18.17386245727539,71.66871643066406, -3.0482521057128906
17,1461681014,0.9922357,0.02371646,-0.002393987,0.122066796,-1.468691110610962,-0.41119086742401123,4.644959926605225,21.506601333618164,58.22438430786133, -3.4852182865142822
18,1461697681,0.99222076,0.025093913,0.0049705,0.12183473,-1.871793508529663,-0.6221532821655273,3.727764844894409,18.659887313842773,40.87995910644531, -2.4070217609405518
19,1461714348,0.9921643,0.025894338,0.009922496,0.12182427,-2.459296941757202,-1.0848174095153809,4.136441230773926,13.40781307220459,23.468429565429688, -0.3152802884578705
20,1461731015,0.9920678,0.02685303,0.012826868,0.122130655,-2.3259902000427246,-1.0762524604797363,4.056644439697266,13.933467864990234,7.679903984069824, 2.4222400188446045
21,1461747682,0.9919353,0.028145848,0.0140336435,0.12278193,-2.379166603088379,-0.5836231112480164,3.815553665161133,15.582185745239258,-5.106485366821289, 5.273845672607422
22,1461764349,0.99177194,0.028286267,0.013178717,0.12415702,-2.625594139099121,-0.22323964536190033,4.680133819580078,5.907214164733887,-18.75929832458496, 10.581282615661621
23,1461781016,0.99155056,0.028833296,0.010300608,0.1260559,-2.7785794734954834,-0.37381210923194885,4.622931957244873,6.529648780822754,-33.486995697021484, 14.648874282836914
24,1461797683,0.9913381,0.0315764,0.005277119,0.12737352,-2.940101146697998,0.6781132817268372,4.3325090408325195,19.48417091369629,-50.74156188964844, 11.282470703125
25,1461814350,0.9911008,0.03576593,-0.002203145,0.12820126,-1.7559866905212402,-0.31927886605262756,3.3318002223968506,26.118173599243164,-69.41923522949219, 8.602315902709961
26,1461831017,0.99070215,0.040248316,-0.013383878,0.12926875,5.499618053436279,-1.0268537998199463,4.517750263214111,24.774362564086914,-94.2934341430664, 11.259668350219727
27,1461847684,0.99012065,0.04453481,-0.027787268,0.13002214,4.176700115203857,3.121727466583252,10.18351936340332,21.087461471557617,-110.38001251220703, 9.680310249328613
28,1461864351,0.9893483,0.04675956,-0.044908386,0.13033387,3.8741323947906494,2.5454859733581543,8.627408981323242,2.4635305404663086,-123.67326354980469, 7.839350700378418
29,1461881018,0.98817766,0.049028873,-0.06355376,0.13062227,1.778003454208374,1.220273733139038,8.276209831237793,0.08233065903186798,-131.6325225830078, 8.396900177001953
30,1461897685,0.9865547,0.05261262,-0.08218243,0.13110375,0.5841049551963806,-0.14888545870780945,7.712272644042969,8.844748497009277,-132.1002197265625, 9.510720252990723
31,1461914352,0.98443824,0.058501136,-0.09962679,0.13241489,1.097373127937317,-2.6344053745269775,7.750956058502197,26.566190719604492,-126.29070281982422, 13.780302047729492
32,1461931019,0.98211557,0.06542205,-0.11547148,0.13354993,1.3821842670440674,-1.1407533884048462,8.815743446350098,36.54279327392578,-116.64944458007812, 11.049039840698242
33,1461947686,0.9798928,0.07051074,-0.12988973,0.13404201,1.823391079902649,-0.16609646379947662,7.7992448806762695,25.59233856201172,-105.68578338623047, 7.19999885559082
34,1461964353,0.9778207,0.07398104,-0.14262907,0.1343521,1.9589449167251587,0.5443058609962463,7.267645359039307,16.10598373413086,-92.76465606689453, 6.346559047698975
35,1461981020,0.9759811,0.075974874,-0.15358762,0.13453536,2.3757266998291016,1.4619864225387573,8.797633171081543,7.364257335662842,-79.1743392944336, 5.8024492263793945
36,1461997687,0.97408456,0.078322716,-0.16337647,0.13539952,2.7287111282348633,1.0704365968704224,8.552938461303711,11.102973937988281,-71.38272857666016, 9.54097843170166
37,1462014354,0.9720769,0.082495175,-0.17205915,0.13658978,3.5081145763397217,3.2185091972351074,8.785055160522461,24.511138916015625,-65.5597915649414, 9.233509063720703
38,1462031021,0.970327,0.08272314,-0.18093552,0.13742281,3.5959584712982178,1.4807324409484863,9.607137680053711,-3.536831855773926,-62.81769561767578, 11.673355102539062
39,1462047688,0.96858954,0.08198823,-0.18950748,0.1385624,3.2037127017974854,1.5451490879058838,10.044931411743164,-9.513826370239258,-59.61930847167969, 14.783703804016113
40,1462064355,0.96682084,0.08023841,-0.19821624,0.13974959,2.8312129974365234,0.6244480013847351,9.296064376831055,-16.525489807128906,-59.74629592895508, 16.60736846923828
41,1462081022,0.9650644,0.07752357,-0.20693526,0.14077792,2.6671481132507324,0.31782838702201843,8.773032188415527,-23.13068389892578,-59.17266082763672, 16.834453582763672
42,1462097689,0.9632775,0.073944435,-0.21580744,0.14161846,2.977752208709717,-0.11224781721830368,8.660106658935547,-29.1827449798584,-59.70943069458008, 16.876428604125977
43,1462114356,0.96128255,0.06967311,-0.22561562,0.14205328,3.4331367015838623,0.20880913734436035,8.660191535949707,-35.021995544433594,-65.88548278808594, 15.788124084472656
44,1462131023,0.9591273,0.064579196,-0.23625177,0.1417388,3.600910186767578,0.45545727014541626,9.143316268920898,-42.32354736328125,-71.21122741699219, 12.59851360321045
45,1462147690,0.9567826,0.06013972,-0.24690737,0.14137627,4.227597236633301,0.45220333337783813,9.851449966430664,-38.070648193359375,-72.41168975830078, 11.388545989990234
46,1462164357,0.95420563,0.05645878,-0.25789192,0.14069846,4.971367835998535,0.5202867984771729,9.832364082336426,-33.903236389160156,-75.92632293701172, 8.372363090515137
47,1462181024,0.9514545,0.0538262,-0.2687787,0.1399833,5.276361465454102,0.2532784938812256,9.940840721130371,-27.023683547973633,-76.59586334228516, 6.403561592102051
48,1462197691,0.94853145,0.051720902,-0.27976236,0.1390908,4.998159885406494,0.22256512939929962,9.592554092407227,-23.982885360717773,-78.10223388671875, 4.456951141357422
49,1462214358,0.9455215,0.049925603,-0.29067582,0.13785651,4.745893478393555,0.12052202224731445,9.113446235656738,-22.57986068725586,-78.27556610107422, 1.6829538345336914
50,1462231025,0.9425129,0.048097312,-0.3013426,0.13619515,4.868282318115234,-0.18817386031150818,9.031983375549316,-23.457809448242188,-76.86194610595703, -1.1146388053894043
51,1462247692,0.93945193,0.04703598,-0.31159726,0.13462853,4.819544792175293,-0.5880234241485596,9.33448314666748,-17.891155242919922,-75.07040405273438, -2.2141363620758057
52,1462264359,0.9363449,0.045965657,-0.32173985,0.13277374,5.231147289276123,-0.7258797287940979,9.189080238342285,-18.39506721496582,-74.69004821777344, -4.123538494110107
53,1462281026,0.93324465,0.0447313,-0.33148348,0.13104276,5.714097023010254,-0.7549734115600586,9.463805198669434,-18.752716064453125,-72.02412414550781, -3.1747817993164062
54,1462297693,0.9299042,0.04330411,-0.34150708,0.12952231,5.677495956420898,-0.7891440987586975,8.982701301574707,-19.642362594604492,-74.2262191772461, -1.1619313955307007
55,1462314360,0.9264629,0.041118726,-0.35164618,0.12775362,5.853632926940918,-0.26255473494529724,8.916691780090332,-25.109764099121094,-74.67800903320312, -0.923050582408905
56,1462331027,0.9229951,0.038546443,-0.361562,0.12596591,5.694956302642822,-0.10036130249500275,8.92431640625,-27.462921142578125,-73.06240844726562, -0.1625160425901413
57,1462347694,0.9194825,0.036673386,-0.37111136,0.1244331,5.744289398193359,-0.2782655954360962,8.607071876525879,-22.135726928710938,-71.5140151977539, -0.33093538880348206
58,1462364361,0.91591775,0.035155803,-0.38055965,0.12260954,6.572053909301758,0.12097253650426865,8.105179786682129,-20.58258819580078,-71.49677276611328, -3.056870937347412
59,1462381028,0.91238314,0.033831693,-0.38966554,0.12072035,6.70352840423584,-0.19295655190944672,8.530081748962402,-19.349594116210938,-69.42742156982422, -4.033292293548584
60,1462397695,0.90870845,0.033410717,-0.39876842,0.11881369,6.722702503204346,0.08150724321603775,8.611494064331055,-13.755105018615723,-70.58914184570312, -6.424627780914307
61,1462414362,0.9049584,0.033901386,-0.40769714,0.11697974,6.938426971435547,-0.16065850853919983,8.114212989807129,-7.7836480140686035,-70.52245330810547, -8.389578819274902
62,1462431029,0.90116775,0.03537874,-0.41630894,0.115464374,6.736421585083008,-0.4417620897293091,8.731223106384277,-0.5371844172477722,-69.42365264892578, -9.17530632019043
63,1462447696,0.89742225,0.03784134,-0.42442542,0.11430036,7.006524562835693,-0.1864846795797348,8.403340339660645,6.933964252471924,-67.07396697998047, -9.962018013000488
64,1462464363,0.89379174,0.039875716,-0.43219605,0.112930365,7.595890045166016,-0.24139107763767242,8.209760665893555,3.8960509300231934,-64.43376159667969, -10.123531341552734
65,1462481030,0.89024365,0.04088822,-0.43989074,0.11086379,7.840142726898193,-0.13387712836265564,8.368486404418945,-4.4399614334106445,-63.18056869506836, -11.426118850708008
66,1462497697,0.886786,0.041176155,-0.4474018,0.108383425,7.998059272766113,-0.5375056266784668,8.119888305664062,-10.041129112243652,-61.426063537597656, -11.862780570983887
67,1462514364,0.8833948,0.04080934,-0.4546963,0.105828196,8.01996898651123,-0.6445517539978027,8.929424285888672,-14.114855766296387,-59.495948791503906, -10.438372611999512
68,1462531031,0.8804205,0.037318677,-0.4614016,0.102839515,8.987343788146973,-1.2926809787750244,10.168968200683594,-34.12834930419922,-52.623226165771484, -3.822697639465332
69,1462547698,0.8779644,0.02883739,-0.46745187,0.09917692,9.231178283691406,-1.9748693704605103,8.860294342041016,-66.10350799560547,-43.883567810058594, 7.2667999267578125
70,1462564365,0.8744954,0.020950356,-0.47512007,0.09529026,8.646919250488281,-2.147308349609375,5.170947074890137,-64.07913208007812,-57.4373893737793, 4.809825420379639
71,1462581032,0.8703296,0.015897704,-0.48365822,0.09137023,10.058480262756348,-3.0360279083251953,5.178327560424805,-47.53560256958008,-66.581787109375, -4.255484104156494
72,1462597699,0.86595577,0.015003376,-0.49201146,0.08843493,10.760663986206055,-3.167924404144287,3.4500646591186523,-19.113494873046875,-68.39787292480469, -12.30005931854248
73,1462614366,0.861599,0.016579691,-0.49988744,0.08651631,11.163301467895508,-2.6515326499938965,5.556554794311523,-0.5417174100875854,-66.46175384521484, -14.853032112121582
74,1462631033,0.85768163,0.017740017,-0.506987,0.083855376,12.954666137695312,-3.991992712020874,7.266080379486084,-5.069963455200195,-59.98163604736328, -18.301183700561523
75,1462647700,0.8572254,0.027308587,-0.50694656,0.086163506,7.1177592277526855,-1.8362226486206055,17.14255714416504,65.67961120605469,-9.964509010314941, -21.379413604736328
76,1462664367,0.85807383,0.028190799,-0.5056451,0.08507737,7.040441989898682,0.4104735851287842,14.53162670135498,3.15503191947937,5.360249042510986, -12.133256912231445
77,1462681034,0.8595991,0.024816025,-0.50372,0.08209671,9.632635116577148,-3.084540843963623,7.749908924102783,-28.403871536254883,12.666621208190918, -8.907706260681152
78,1462697701,0.8623987,0.0264622,-0.49862504,0.08331624,9.653467178344727,-3.336977005004883,8.595361709594727,17.515092849731445,33.62959289550781, -2.8984110355377197
79,1462714368,0.8666315,0.028429573,-0.4906703,0.08593297,8.45196533203125,-0.7981370091438293,11.799385070800781,25.72528076171875,55.422462463378906, 2.81367564201355
80,1462731035,0.87196857,0.027001113,-0.4809028,0.08760413,8.345053672790527,-0.3600482940673828,13.048776626586914,3.153153657913208,71.31024932861328, 7.708775043487549
81,1462747702,0.8782263,0.023636948,-0.46924326,0.08928046,8.461822509765625,-1.015094518661499,11.850008010864258,-7.500997543334961,86.34580993652344, 13.32201862335205
82,1462764369,0.88516086,0.020738045,-0.45563924,0.091940925,8.570525169372559,-0.6004515886306763,10.189996719360352,-0.4313974678516388,99.78324890136719, 17.069232940673828
83,1462781036,0.8924745,0.018093236,-0.44051972,0.09541817,8.488986015319824,-0.5398556590080261,8.952752113342285,4.557333946228027,109.97081756591797, 20.873212814331055
84,1462797703,0.89975303,0.015656801,-0.42459702,0.099582985,8.115428924560547,-0.4561098515987396,8.152139663696289,8.423152923583984,114.69371032714844, 24.481264114379883
85,1462814370,0.90703714,0.0146641545,-0.4075541,0.104731716,7.890352249145508,-0.6563120484352112,7.821959495544434,20.960407257080078,120.78069305419922, 26.344661712646484
86,1462831037,0.9143696,0.015504043,-0.3892432,0.110353105,7.742640972137451,-0.4123605787754059,8.154611587524414,34.60307312011719,127.61644744873047, 24.118436813354492
87,1462847704,0.9217061,0.016703553,-0.36989316,0.115577176,7.629915714263916,-0.14489521086215973,8.774611473083496,36.5596923828125,133.9098663330078, 20.693891525268555
88,1462864371,0.92895174,0.017993953,-0.34966508,0.12024718,7.068948268890381,0.04613430052995682,9.132393836975098,36.39039993286133,139.16680908203125, 17.079160690307617
89,1462881038,0.9353091,0.02129348,-0.32821307,0.13045922,6.663610935211182,0.05249956622719765,9.650912284851074,34.22263717651367,146.1240997314453, 12.795723915100098
90,1462897705,0.9415729,0.022912955,-0.3058335,0.13921803,6.2934956550598145,0.0389561727643013,10.387632369995117,25.95420265197754,152.73773193359375, 10.598941802978516
91,1462914372,0.94788104,0.021554997,-0.28294277,0.14491497,6.091862201690674,-0.2059028595685959,9.843284606933594,11.521719932556152,157.73077392578125, 9.669822692871094
92,1462931039,0.95430285,0.018855512,-0.25936294,0.14724733,5.791317462921143,-0.358664333820343,9.264431953430176,10.247096061706543,162.3723907470703, 9.927945137023926
93,1462947706,0.9602361,0.01636525,-0.23508735,0.14970924,5.630703449249268,-0.26752158999443054,9.024006843566895,12.615318298339844,165.99444580078125, 10.866747856140137
94,1462964373,0.96567583,0.014416517,-0.2100671,0.15210018,5.474419116973877,0.22066567838191986,8.556286811828613,16.888696670532227,169.70928955078125, 10.010197639465332
95,1462981040,0.97050744,0.014312353,-0.18447518,0.15453012,4.881507396697998,0.09864753484725952,8.17926025390625,29.809316635131836,170.90562438964844, 8.26939582824707
96,1462997707,0.974684,0.01590573,-0.15860756,0.15678565,4.399571895599365,0.5923822522163391,8.243913650512695,41.24595642089844,170.29981994628906, 5.710220813751221
97,1463014374,0.9781464,0.015757976,-0.13298759,0.15904684,4.178092956542969,0.5570966601371765,9.231258392333984,29.331100463867188,169.93795776367188, 8.536002159118652
98,1463031041,0.98086876,0.012325967,-0.10838262,0.16123934,3.984212875366211,1.120805025100708,7.34897518157959,6.0862956047058105,166.20994567871094, 12.046648025512695
99,1463047708,0.98295665,0.006966742,-0.08461932,0.1630559,3.456024646759033,0.931577742099762,6.24103307723999,-8.172188758850098,162.41319274902344, 11.753276824951172
100,1463064375,0.98449445,0.002468749,-0.06126883,0.16434999,2.2163188457489014,1.3207428455352783,6.2601542472839355,-3.174579381942749,158.56048583984375, 8.368586540222168
101,1463081042,0.98548794,-0.0032295538,-0.03955992,0.1650401,2.0424139499664307,0.6832038164138794,5.5638532638549805,-13.509162902832031,148.73216247558594, 5.433145046234131
102,1463097709,0.98608387,-0.008345198,-0.018984508,0.16495042,1.7702090740203857,0.5600402355194092,5.703968524932861,-11.122016906738281,140.47781372070312, 0.408186137676239
103,1463114376,0.98628587,-0.012343191,0.00010916892,0.16458419,1.2571980953216553,-0.5114532709121704,5.5451226234436035,-5.325117111206055,129.29861450195312, -1.258400559425354
104,1463131043,0.9862071,-0.014061781,0.018194882,0.16391104,0.24162888526916504,-0.4209367036819458,6.76167631149292,9.008068084716797,120.05427551269531, -3.1079652309417725
105,1463147710,0.9858607,-0.014751865,0.034686234,0.1632726,-0.2616260349750519,-1.003227710723877,6.90262508392334,14.184491157531738,108.19331359863281, -2.5846471786499023
106,1463164377,0.9853079,-0.013841192,0.049583636,0.16284454,-0.7145295143127441,-1.319311261177063,6.263041019439697,23.245704650878906,95.67676544189453, -0.6912462711334229
107,1463181044,0.98466396,-0.012128106,0.062535666,0.1624171,-1.0696914196014404,-0.8123145699501038,5.494267463684082,26.587921142578125,81.66331481933594, -0.46743109822273254
108,1463197711,0.98397917,-0.009630977,0.073670544,0.162065,-1.4270538091659546,-1.1015167236328125,4.969371795654297,29.887453079223633,68.50767517089844, 0.304316908121109
109,1463214378,0.9833502,-0.0062828828,0.082464874,0.16181052,-1.6582543849945068,-1.0583664178848267,4.064870834350586,33.068397521972656,51.67802810668945, 1.213052749633789
110,1463231045,0.98282224,-0.0022579655,0.08868275,0.16183613,-2.02974271774292,-1.429286003112793,3.6454017162323,34.697021484375,33.403594970703125, 3.303149700164795
111,1463247712,0.9824645,0.0012879625,0.0916851,0.16234522,-2.276420831680298,-1.4866085052490234,3.010599136352539,27.688310623168945,12.035990715026855, 6.075204849243164
112,1463264379,0.9823444,0.0053084916,0.09143772,0.16312842,-2.2164347171783447,-1.2633010149002075,2.39555287361145,27.191370010375977,-10.677175521850586, 8.02230167388916
113,1463281046,0.98242766,0.010295002,0.08823471,0.16414832,-2.310910940170288,-0.4974648654460907,2.4577252864837646,30.325923919677734,-31.93000030517578, 10.13428783416748
114,1463297713,0.9827425,0.01729738,0.0811491,0.16532663,-2.38704776763916,0.0353960320353508,0.1223888099193573,39.47610092163086,-60.65408706665039, 12.46385669708252
115,1463314380,0.98328406,0.0232048,0.06769494,0.16742645,3.048447847366333,0.9589146375656128,0.3698901832103729,24.279199600219727,-102.58952331542969, 18.594284057617188
116,1463331047,0.98364717,0.027556237,0.05312262,0.16987337,3.4279963970184326,3.555729866027832,10.138649940490723,12.260348320007324,-107.95501708984375, 20.572235107421875
117,1463347714,0.98393255,0.028151538,0.036581315,0.17247014,2.5470685958862305,2.678934335708618,8.141786575317383,-15.689165115356445,-116.46449279785156, 20.631620407104492
118,1463364381,0.98392844,0.030952606,0.019416014,0.17478524,1.4355393648147583,0.9699762463569641,7.528957843780518,-1.5319024324417114,-123.02306365966797, 19.715473175048828
119,1463381048,0.9836787,0.034244746,0.0016324873,0.17663762,0.8902694582939148,1.0076344013214111,7.360665321350098,1.1240214109420776,-127.70545196533203, 17.062314987182617
120,1463397715,0.98321986,0.037223198,-0.0155111095,0.177912,0.06038796901702881,0.2581869065761566,9.33082103729248,-0.20265862345695496,-123.03449249267578, 13.243102073669434
121,1463414382,0.9824374,0.03990761,-0.030746505,0.17966379,0.4684444069862366,-2.5402324199676514,8.40008544921875,0.2982407510280609,-109.67353820800781, 16.40373992919922
122,1463431049,0.98129845,0.044930093,-0.043883804,0.18195836,1.4638675451278687,-2.1406829357147217,7.2849860191345215,19.091772079467773,-98.29060363769531, 19.399276733398438
123,1463447716,0.98030376,0.048638374,-0.05577584,0.18310693,1.7644431591033936,0.839972734451294,8.406489372253418,11.555441856384277,-88.47148895263672, 11.458213806152344
124,1463464383,0.97934014,0.050460096,-0.06679657,0.18407884,2.1683108806610107,0.4210989773273468,7.865959167480469,-0.16369454562664032,-80.19319915771484, 10.64925765991211
125,1463481050,0.9784634,0.05062838,-0.07703345,0.18469468,2.2719457149505615,1.6801074743270874,8.649654388427734,-10.495237350463867,-72.81086730957031, 8.604996681213379
126,1463497717,0.9776355,0.048744053,-0.08669606,0.18530233,2.506124496459961,1.4977679252624512,9.512807846069336,-23.668630599975586,-66.23892211914062, 9.371628761291504
127,1463514384,0.97674036,0.04605499,-0.095854685,0.18619642,2.776702642440796,1.2556437253952026,9.43403434753418,-28.301891326904297,-61.6992301940918, 11.68681526184082
128,1463531051,0.97569317,0.043700386,-0.104760714,0.18745235,3.951016664505005,1.6709870100021362,9.758694648742676,-25.49565315246582,-60.33950424194336, 14.001216888427734
129,1463547718,0.9745932,0.03833195,-0.11457703,0.18860273,3.387702465057373,0.34059906005859375,10.75231647491455,-47.02409362792969,-62.493492126464844, 15.809528350830078
130,1463564385,0.97338676,0.031578943,-0.1245175,0.18978044,2.9926199913024902,0.24858352541923523,9.913406372070312,-56.41476058959961,-61.53431701660156, 17.22644805908203
131,1463581052,0.9721605,0.025970954,-0.1338344,0.19057228,2.6029961109161377,-0.3677642047405243,8.759511947631836,-48.27029800415039,-58.90904998779297, 13.534527778625488
132,1463597719,0.97094053,0.021249471,-0.14261414,0.19100864,2.941511392593384,-0.09416329860687256,8.35340690612793,-41.9485969543457,-56.507938385009766, 10.2101411819458
133,1463614386,0.9697555,0.016344672,-0.1513014,0.1908279,3.236664295196533,-0.029196929186582565,8.820392608642578,-43.66334915161133,-55.65705490112305, 6.194125175476074
134,1463631053,0.96857136,0.010956496,-0.16006531,0.19007535,3.389652967453003,-0.37380751967430115,9.811118125915527,-47.59320068359375,-55.5486946105957, 2.8814380168914795
135,1463647720,0.96737057,0.005724542,-0.16874278,0.18891142,2.9898316860198975,-0.624056875705719,10.062402725219727,-46.89109802246094,-55.19866180419922, -0.02891726978123188
136,1463664387,0.96606135,0.0012843468,-0.17742984,0.18772958,3.2437233924865723,-1.4196969270706177,8.695905685424805,-41.648719787597656,-56.43102264404297, -0.9465209245681763
137,1463681054,0.96473116,-0.0016461535,-0.18558916,0.18667585,3.4952938556671143,-0.6899308562278748,9.391542434692383,-30.73519515991211,-54.874942779541016, -1.948116421699524
138,1463697721,0.96330065,-0.0051676515,-0.19383925,0.18561183,3.552302122116089,-0.7010423541069031,9.468110084533691,-34.78815460205078,-54.835052490234375, -1.1436623334884644
139,1463714388,0.96170855,-0.007852691,-0.20222203,0.18482833,3.545605421066284,-1.012475848197937,8.997722625732422,-29.056926727294922,-57.00469207763672, -0.20662064850330353
140,1463731055,0.96004695,-0.008988732,-0.21044552,0.1842337,3.4711451530456543,-1.0579729080200195,8.769536018371582,-18.34760093688965,-58.02317428588867, -1.0285425186157227
141,1463747722,0.95850164,-0.008415866,-0.21781802,0.18373702,3.5674638748168945,-0.9681746363639832,8.766006469726562,-5.834570407867432,-54.414894104003906, -2.960244655609131
142,1463764389,0.95700395,-0.006455921,-0.2247257,0.18330382,4.051365852355957,-1.281998872756958,8.092195510864258,3.9914653301239014,-53.046993255615234, -4.656192302703857
143,1463781056,0.9555459,-0.0032555196,-0.23111609,0.1830489,4.04448127746582,-1.23029363155365,8.689252853393555,13.103504180908203,-51.126041412353516, -5.434325695037842
144,1463797723,0.95398265,-0.00049182907,-0.23800133,0.1824076,4.370002746582031,-1.0066046714782715,8.655274391174316,9.010892868041992,-53.98552322387695, -7.164831638336182
145,1463814390,0.9527396,0.00028858174,-0.24554303,0.1788744,4.584179401397705,-1.3360447883605957,9.142302513122559,-1.173151969909668,-56.82508087158203, -7.179476737976074
146,1463831057,0.9511433,-0.0004949988,-0.25420675,0.17522852,4.637576580047607,-1.7591376304626465,9.338006973266602,-12.47400188446045,-62.90634536743164, -4.5953569412231445
147,1463847724,0.9493555,-0.002714634,-0.2633898,0.17129764,5.134089469909668,-1.5150810480117798,8.638956069946289,-21.81825828552246,-65.14730834960938, -2.440636396408081
148,1463864391,0.9471137,-0.004512298,-0.27211073,0.1700327,5.218996047973633,-1.341800570487976,8.846830368041992,-23.649890899658203,-61.613887786865234, -2.9527671337127686
149,1463881058,0.94482225,-0.005203695,-0.28072834,0.16874719,4.990262985229492,-0.9869630932807922,8.985905647277832,-16.35490608215332,-62.314945220947266, -5.112203121185303
150,1463897725,0.9424151,-0.0051242295,-0.28955317,0.16729245,5.306321144104004,-1.3547396659851074,8.492743492126465,-11.928685188293457,-64.79119873046875, -7.576648712158203
151,1463914392,0.9399398,-0.004457904,-0.2983323,0.1658049,5.5855278968811035,-0.9826326370239258,8.451863288879395,-8.132989883422852,-65.30061340332031, -8.891188621520996
152,1463931059,0.9372462,-0.0035704242,-0.30761456,0.1641044,6.089733123779297,-0.9276431202888489,8.120710372924805,-7.732481002807617,-69.23731994628906, -10.487687110900879
153,1463947726,0.9346115,-0.002841993,-0.31664342,0.16195771,6.748864650726318,-0.4147352874279022,8.800423622131348,-9.42385196685791,-67.2558364868164, -13.079538345336914
154,1463964393,0.9318439,-0.0022267075,-0.32592234,0.15948908,6.481588840484619,-0.8598099946975708,8.982309341430664,-11.170001029968262,-68.99211883544922, -14.727666854858398
155,1463981060,0.9290589,-0.00064171996,-0.3348736,0.15719134,6.41429328918457,-0.7544335126876831,9.130221366882324,-4.236772537231445,-68.00289154052734, -15.773059844970703
156,1463997727,0.9262856,0.0016245219,-0.34344468,0.15504235,6.886317253112793,-0.03450123593211174,7.975033283233643,0.8457260131835938,-66.3138198852539, -16.386659622192383
157,1464014394,0.92361295,0.0029152103,-0.3518459,0.15210208,7.018671989440918,1.0175220966339111,8.606232643127441,-7.1016950607299805,-63.93800354003906, -19.18594741821289
158,1464031061,0.921224,0.0036538779,-0.3593315,0.14904378,7.886246204376221,0.9949935674667358,9.213390350341797,-10.033378601074219,-56.87077331542969, -18.829816818237305
159,1464047728,0.91898006,0.0048372103,-0.3661999,0.14611664,8.53566837310791,0.626072347164154,9.02622127532959,-6.352994441986084,-53.060951232910156, -19.169605255126953
160,1464064395,0.9168637,0.0066714515,-0.37255514,0.1432459,8.886129379272461,0.8519102931022644,9.206527709960938,-1.6573892831802368,-50.12859344482422, -20.5174560546875
161,1464081062,0.91482645,0.009622037,-0.3782597,0.14113802,8.63709545135498,-0.017171494662761688,9.612223625183105,7.893618106842041,-46.87198257446289, -18.58521842956543
162,1464097729,0.9128744,0.013331631,-0.38364762,0.1389151,8.606385231018066,0.21426846086978912,9.665940284729004,12.63023567199707,-45.42436599731445, -21.334287643432617
163,1464114396,0.91097164,0.016838998,-0.38887724,0.13646181,8.613761901855469,-0.8506063222885132,9.763425827026367,10.853921890258789,-44.16373825073242, -22.251859664916992
164,1464131063,0.9090287,0.019644544,-0.39415154,0.1338865,8.478992462158203,-1.4916499853134155,10.555413246154785,6.094600677490234,-43.953651428222656, -21.090240478515625
165,1464147730,0.90696627,0.019508122,-0.39991075,0.13077918,8.946159362792969,-2.599381446838379,10.371108055114746,-14.14033031463623,-44.76740264892578, -16.295978546142578
166,1464164397,0.90445876,0.018265355,-0.4066116,0.12762454,9.06813907623291,-3.4792048931121826,7.954123020172119,-21.890451431274414,-50.950042724609375, -13.103850364685059
167,1464181064,0.901121,0.018105611,-0.41486874,0.12464892,10.765643119812012,-3.702066421508789,4.584701061248779,-15.811690330505371,-63.84832763671875, -14.211434364318848
168,1464197731,0.8970753,0.021093994,-0.4238019,0.123300694,11.277067184448242,-4.788226127624512,4.15833044052124,7.961431503295898,-72.31266021728516, -12.5347261428833
169,1464214398,0.8925021,0.020994268,-0.43432993,0.11982055,16.380168914794922,-0.7019705176353455,2.8990938663482666,-18.422155380249023,-81.11383056640625, -16.17430305480957
170,1464231065,0.8895596,0.01982042,-0.44114572,0.116968594,9.373071670532227,-8.527353286743164,12.611008644104004,-20.30303382873535,-51.9933967590332, -10.952383041381836
171,1464247732,0.8886855,0.022843292,-0.44264135,0.11740991,6.108030319213867,-3.634536027908325,16.25295066833496,19.586606979370117,-16.349008560180664, -6.277572154998779
172,1464264399,0.88916475,0.018070886,-0.44250765,0.11509421,7.044097423553467,-0.16152334213256836,12.672622680664062,-35.27119827270508,3.0423922538757324, -0.8876503705978394
173,1464281066,0.8907949,0.010552932,-0.44026303,0.11199047,9.201828002929688,-3.1780717372894287,8.385111808776855,-52.96744918823242,21.194591522216797, 1.4901829957962036
174,1464297733,0.89336044,0.0062026326,-0.43527704,0.111366905,9.235235214233398,-3.1489436626434326,10.140103340148926,-23.939279556274414,38.518253326416016, 6.072770595550537
175,1464314400,0.89686346,0.0030628617,-0.42759478,0.113090895,8.462386131286621,-3.664456367492676,11.545804977416992,-7.388329982757568,56.939918518066406, 15.953572273254395
176,1464331067,0.901385,0.002918788,-0.4168849,0.117063396,8.045454025268555,-2.096879243850708,11.101880073547363,20.106712341308594,76.11653900146484, 20.06635856628418
177,1464347734,0.90670913,0.0021870076,-0.40395853,0.121208034,7.46890926361084,-0.8309366106987,11.041842460632324,18.753246307373047,92.44447326660156, 22.116291046142578
178,1464364401,0.9125652,0.00063657085,-0.38917014,0.12558408,7.60951042175293,-1.0502653121948242,10.162784576416016,15.821761131286621,106.03292846679688, 25.406713485717773
179,1464381068,0.9187245,0.00047775268,-0.37254137,0.13098982,7.567899227142334,-0.7904247641563416,9.259363174438477,28.89352798461914,117.08042907714844, 27.91627311706543
180,1464397735,0.9249623,0.0008862315,-0.35461903,0.13670984,7.487308025360107,-0.710339367389679,8.672433853149414,34.436981201171875,124.88804626464844, 28.432720184326172
181,1464414402,0.93123156,0.0023925994,-0.33531097,0.14271882,7.417600154876709,-0.7679083943367004,8.543844223022461,43.42125701904297,132.7376708984375, 27.626327514648438
182,1464431069,0.9375023,0.0037913704,-0.31466216,0.14853558,6.949822425842285,-0.2043209969997406,8.690274238586426,43.60154724121094,141.44705200195312, 26.686737060546875
183,1464447736,0.94368196,0.003544705,-0.29309192,0.15345722,6.57572078704834,-0.21772459149360657,8.73660659790039,31.976634979248047,148.8677520751953, 24.62493133544922
184,1464464403,0.94971454,0.0026496972,-0.2704398,0.15779041,6.340665340423584,0.012198934331536293,8.60647201538086,27.70722198486328,156.29510498046875, 22.31285285949707
185,1464481070,0.9555586,0.001049271,-0.24656105,0.16159919,6.072788715362549,-0.4661808907985687,9.163091659545898,23.427845001220703,164.76693725585938, 20.452056884765625
186,1464497737,0.9610698,-0.0018154915,-0.22170442,0.1648899,5.435159206390381,-0.2556707262992859,9.537721633911133,15.321731567382812,172.0867156982422, 19.606948852539062
187,1464514404,0.9660774,-0.006311721,-0.19602071,0.16802014,5.392324924468994,-0.6470124125480652,9.28110122680664,5.204550743103027,178.68450927734375, 21.662742614746094
188,1464531071,0.97043043,-0.01167376,-0.16984339,0.17111915,5.385239601135254,-0.2294369637966156,8.53610897064209,-0.04998913034796715,182.1666259765625, 23.437685012817383
189,1464547738,0.973922,-0.017879229,-0.14409891,0.17433274,5.5607709884643555,-0.8503813147544861,6.714540958404541,-6.146467685699463,179.3832550048828, 26.20814323425293
190,1464564405,0.97661984,-0.024153644,-0.1192483,0.17722943,5.419976234436035,0.2140439748764038,5.811605453491211,-8.076723098754883,172.92787170410156, 25.031055450439453
191,1464581072,0.9787109,-0.029716684,-0.09470266,0.17964844,4.619950294494629,0.26124799251556396,6.542578220367432,-4.201493740081787,169.8158721923828, 21.978296279907227
192,1464597739,0.9803021,-0.03412288,-0.0697348,0.18160614,3.609955072402954,0.5536996722221375,7.903132915496826,3.6574981212615967,171.18362426757812, 18.869625091552734
193,1464614406,0.98137885,-0.037476916,-0.044581946,0.18303949,3.2241005897521973,-0.045821283012628555,7.729467868804932,10.540593147277832,171.13067626953125, 15.557133674621582
194,1464631073,0.9820127,-0.039526615,-0.019929547,0.18355247,3.0440242290496826,-0.606533944606781,7.93080472946167,18.280834197998047,166.35223388671875, 9.40664005279541
195,1464647740,0.98205894,-0.041362394,0.002423341,0.1839664,3.0924806594848633,-0.788364589214325,6.32249116897583,16.643659591674805,150.6486053466797, 8.851744651794434
196,1464664407,0.9816448,-0.043910198,0.021997843,0.18428719,2.583393096923828,-0.5723874568939209,5.214097499847412,8.203397750854492,132.9912567138672, 8.027992248535156
197,1464681074,0.9809569,-0.045735605,0.03999882,0.18447806,1.363850474357605,0.18994003534317017,5.734525680541992,11.027533531188965,121.68798828125, 7.153677463531494
198,1464697741,0.98002124,-0.048450436,0.05647303,0.18445057,0.4472799301147461,0.5294507145881653,6.523465156555176,3.0381674766540527,112.75146484375, 5.282235145568848
199,1464714408,0.97885686,-0.05127085,0.071678676,0.18458804,-0.07393387705087662,-0.17701108753681183,6.455711364746094,0.5216803550720215,104.43163299560547, 6.2266035079956055
200,1464731075,0.9776568,-0.052989352,0.08545871,0.18459761,-0.7274277806282043,-0.30303895473480225,6.532284736633301,6.160922527313232,93.54431915283203, 5.456180095672607
201,1464747742,0.97654,-0.053113785,0.0976112,0.18444756,-1.029135823249817,-0.5201524496078491,5.68598747253418,14.922408103942871,80.6090087890625, 4.624399185180664
202,1464764409,0.97556156,-0.051870275,0.10803456,0.18416804,-1.2856305837631226,-0.1432093381881714,4.810694694519043,22.055248260498047,67.22270965576172, 3.867157220840454
203,1464781076,0.97477794,-0.049482115,0.11684411,0.1835953,-1.7420727014541626,0.6366215348243713,4.7931342124938965,27.96564483642578,54.895381927490234, 1.9255820512771606
204,1464797743,0.97425544,-0.04577393,0.12389555,0.18270555,-1.8280848264694214,0.26959720253944397,4.348264217376709,34.88936233520508,41.31191635131836, -0.07943861931562424
205,1464814410,0.97410196,-0.03956512,0.12908784,0.18137388,-1.9359679222106934,0.15618813037872314,4.091243267059326,49.77174377441406,25.504108428955078, -1.9670130014419556
206,1464831077,0.9742609,-0.032603424,0.13182694,0.17992824,-2.0093188285827637,-0.1496243178844452,4.008689880371094,51.92497253417969,7.845162868499756, -3.1258938312530518
207,1464847744,0.9747567,-0.024368513,0.13192876,0.17846653,-2.1393582820892334,-0.6831704378128052,2.9507102966308594,57.283634185791016,-11.743680000305176, -3.0892746448516846
208,1464864411,0.9755127,-0.016358625,0.1296427,0.17691867,-2.2450687885284424,0.0936635360121727,3.7102692127227783,52.999080657958984,-27.758718490600586, -4.5851922035217285
209,1464881078,0.97637224,-0.009814827,0.12484609,0.17611024,-2.4844932556152344,-0.9360263347625732,4.1856207847595215,39.46147537231445,-43.05109786987305, -1.343082070350647
210,1464897745,0.977499,-0.0065935575,0.114394635,0.17710517,-0.6158083081245422,-0.5451783537864685,-0.21784332394599915,8.829585075378418,-77.40892028808594, 7.213851451873779
211,1464914412,0.97873056,-0.005150239,0.10017794,0.17895375,4.555202484130859,1.0115349292755127,6.373369216918945,-8.34622859954834,-100.70368194580078, 11.254323959350586
212,1464931079,0.9796028,-0.0021973387,0.08587246,0.18165843,1.4829918146133423,0.792447030544281,10.38984203338623,1.0578641891479492,-102.64102172851562, 18.48331069946289
213,1464947746,0.9804004,0.0026880847,0.070356175,0.1840061,2.554287910461426,1.0399070978164673,7.355614185333252,12.74631118774414,-112.99073028564453, 17.288972854614258
214,1464964413,0.98110694,0.008349254,0.05367347,0.18568425,1.382759690284729,0.8882201313972473,7.135532855987549,16.786102294921875,-121.62181854248047, 13.281673431396484
215,1464981080,0.9815815,0.014469938,0.03678351,0.18691024,0.8181124925613403,1.2771039009094238,7.997311115264893,19.771507263183594,-123.43997192382812, 10.703173637390137
216,1464997747,0.98174137,0.019726617,0.020537078,0.18807758,0.4458252787590027,0.30053994059562683,9.619855880737305,14.768440246582031,-117.84396362304688, 10.42762565612793
217,1465014414,0.98145455,0.024785517,0.006067487,0.18998903,1.0963938236236572,-2.126706600189209,7.953367710113525,15.694930076599121,-105.39035034179688, 15.760513305664062
218,1465031081,0.9810211,0.031178446,-0.0065669655,0.19126552,1.431946039199829,-0.20811542868614197,7.328088760375977,27.2670955657959,-94.79562377929688, 11.39238166809082
219,1465047748,0.98058116,0.03516394,-0.01787075,0.19210672,1.6029268503189087,0.5718305110931396,7.987645626068115,12.788963317871094,-82.6882553100586, 8.278646469116211
220,1465064415,0.9800946,0.037155546,-0.028322078,0.19295628,2.1910178661346436,1.1227517127990723,7.869328498840332,0.47970324754714966,-74.25560760498047, 8.430591583251953
221,1465081082,0.9796218,0.03620551,-0.038402807,0.19379248,2.315547227859497,1.498948097229004,9.76787281036377,-18.886728286743164,-67.78160858154297, 8.806795120239258
222,1465097749,0.97898316,0.034697488,-0.047880355,0.1951814,2.458383321762085,0.7469189167022705,9.370389938354492,-21.695356369018555,-62.81806945800781, 12.758077621459961
223,1465114416,0.97825176,0.033560306,-0.057132144,0.19655323,3.6907317638397217,2.3753714561462402,9.688138961791992,-18.888755798339844,-61.7676887512207, 12.599225044250488
224,1465131083,0.9773838,0.029140562,-0.067689456,0.19821678,3.2213902473449707,0.15091626346111298,10.889230728149414,-42.668880462646484,-65.98902893066406, 16.36554718017578
225,1465147750,0.9764206,0.025382359,-0.078879684,0.19934069,2.7009694576263428,0.423662006855011,9.494372367858887,-39.30092239379883,-71.22595977783203, 12.70264720916748
226,1465164417,0.9754484,0.022239232,-0.08897606,0.20022261,2.3854012489318848,-0.593779981136322,9.353811264038086,-33.80580139160156,-64.72891998291016, 10.583581924438477
227,1465181084,0.9744288,0.019482728,-0.0984006,0.2010636,2.491394281387329,-0.8690192699432373,8.667634963989258,-30.26962661743164,-60.77035903930664, 10.040414810180664
228,1465197751,0.9734066,0.017243417,-0.107310265,0.2016608,2.9757766723632812,-0.6445323824882507,8.337273597717285,-26.214570999145508,-58.047183990478516, 7.991873741149902
229,1465214418,0.97240484,0.014916309,-0.11603751,0.20184574,3.023630142211914,0.11686018109321594,9.449716567993164,-26.827539443969727,-56.69740676879883, 5.251617908477783
230,1465231085,0.97140944,0.012337468,-0.12482688,0.20156848,3.4010376930236816,0.10323336720466614,10.20328426361084,-28.976226806640625,-56.78327941894531, 2.374990701675415
231,1465247752,0.97028565,0.01073007,-0.13415627,0.20107964,3.820291519165039,-0.2629335820674896,9.371236801147461,-23.42108726501465,-61.84125900268555, 0.3686300814151764
232,1465264419,0.9690761,0.011450097,-0.14327328,0.20058265,3.880735158920288,-0.21080365777015686,9.615593910217285,-7.602931976318359,-63.67802429199219, -1.7194180488586426
233,1465281086,0.9677426,0.0136860525,-0.15256095,0.20003045,3.7312936782836914,-0.18860433995723724,8.55237102508545,2.2114291191101074,-66.997802734375, -3.390970468521118
234,1465297753,0.96633816,0.015986009,-0.16196424,0.19925508,3.8436472415924072,-0.08077868819236755,8.943961143493652,2.2448806762695312,-67.91801452636719, -4.83036470413208
235,1465314420,0.9648342,0.016730955,-0.1717567,0.1982796,3.8605430126190186,-0.17170600593090057,8.86525821685791,-8.84212589263916,-68.4836654663086, -4.240394115447998
236,1465331087,0.9632382,0.015999656,-0.18187529,0.19707261,4.1525397300720215,-0.5959419012069702,9.134217262268066,-19.349733352661133,-68.75493621826172, -3.8605825901031494
237,1465347754,0.9615264,0.014583037,-0.1920039,0.19593062,4.184787273406982,-0.8631587028503418,9.60875415802002,-23.799102783203125,-68.0159912109375, -2.408700704574585
238,1465364421,0.959674,0.012748366,-0.20211205,0.19497189,4.2993316650390625,-0.9958664178848267,9.652962684631348,-26.262542724609375,-67.48612213134766, -0.45586320757865906
239,1465381088,0.9576378,0.01117471,-0.2123092,0.19424228,4.575038433074951,-0.9772387146949768,8.745525360107422,-24.30598258972168,-68.66551208496094, 0.9477836489677429
240,1465397755,0.95549273,0.009328253,-0.22243193,0.19357389,4.620258331298828,-0.8398619294166565,8.6650972366333,-25.886545181274414,-67.95376586914062, 1.89194917678833
241,1465414422,0.9532598,0.008127758,-0.23212856,0.19325195,4.662104606628418,-0.5584340691566467,8.507238388061523,-20.529951095581055,-66.12023162841797, 3.2748119831085205
242,1465431089,0.95098925,0.0066800183,-0.24188843,0.19252315,4.945610046386719,-0.23082345724105835,8.145342826843262,-22.884483337402344,-66.28768157958984, 1.0674724578857422
243,1465447756,0.9486441,0.005732806,-0.25145942,0.1918592,5.337401390075684,-0.5237311720848083,8.813642501831055,-19.26726531982422,-65.8247299194336, 0.7682592868804932
244,1465464423,0.9461524,0.006432373,-0.2610348,0.19135159,5.777619361877441,-0.5291709899902344,9.005627632141113,-8.265917778015137,-68.26848602294922, -0.8530835509300232
245,1465481090,0.9436583,0.007935,-0.27027982,0.19077532,6.293830394744873,-0.7511878609657288,9.01916217803955,-2.7422802448272705,-67.17456817626953, -2.740692138671875
246,1465497757,0.9411986,0.009702693,-0.279147,0.19007403,5.976090431213379,-0.3699660301208496,8.16841983795166,-0.7663689851760864,-64.99417114257812, -4.1031646728515625
247,1465514424,0.9388433,0.011044097,-0.28755406,0.18911391,6.133678436279297,-0.5873143076896667,8.390646934509277,-3.443148374557495,-61.25955581665039, -5.112132549285889
248,1465531091,0.9364545,0.012355144,-0.2959341,0.18794553,6.526390552520752,-0.5789430737495422,8.248960494995117,-4.024858474731445,-61.11842346191406, -6.347590446472168
249,1465547758,0.93403184,0.014322185,-0.30417275,0.18670487,7.185526371002197,-1.0311046838760376,8.151016235351562,0.22765514254570007,-61.11222457885742, -8.1044282913208
250,1465564425,0.93161166,0.015854914,-0.3122155,0.18539108,7.222412586212158,-0.6612033843994141,8.28524398803711,-2.4574029445648193,-59.26210403442383, -7.6864423751831055
251,1465581092,0.9290719,0.01625626,-0.32067275,0.18365793,7.6630730628967285,-0.1383487433195114,8.397626876831055,-11.127882957458496,-60.752445220947266, -7.734742641448975
252,1465597759,0.92645663,0.015585237,-0.32930002,0.18165025,8.144286155700684,0.04167592525482178,8.762953758239746,-18.81455421447754,-60.6541633605957, -6.979612350463867
253,1465614426,0.9237048,0.013762415,-0.33821183,0.17942406,8.847256660461426,0.4719724953174591,9.240889549255371,-27.01788330078125,-61.33768081665039, -5.521148681640625
254,1465631093,0.92086893,0.01127384,-0.34719783,0.1769945,9.05873966217041,0.2641736567020416,9.785639762878418,-31.849838256835938,-61.178810119628906, -5.095386981964111
255,1465647760,0.9179144,0.00881086,-0.35627583,0.17442262,9.270891189575195,0.14566388726234436,9.350239753723145,-32.17268371582031,-62.08287048339844, -5.848185062408447
256,1465664427,0.91499054,0.0066955374,-0.36499667,0.17182875,9.0947904586792,0.03147357329726219,9.563653945922852,-29.646329879760742,-60.159889221191406, -6.842362880706787
257,1465681094,0.9122483,0.0033434473,-0.3731521,0.16896625,8.96982192993164,-0.6495005488395691,10.614068031311035,-37.480159759521484,-54.70899200439453, -5.616209983825684
258,1465697761,0.9096947,-0.00015134693,-0.38053298,0.16628468,8.811025619506836,-1.6442935466766357,9.729903221130371,-37.03825378417969,-49.25128173828125, -4.3148369789123535
259,1465714428,0.90686536,-0.0055643683,-0.38866794,0.1627938,9.274782180786133,-2.1059343814849854,7.255922317504883,-52.013912200927734,-52.53729248046875, -4.036332607269287
260,1465731095,0.9035074,-0.009486547,-0.39783722,0.15909135,9.823369979858398,-3.2819600105285645,6.062192440032959,-44.429443359375,-62.024566650390625, -8.77759075164795
261,1465747762,0.8996881,-0.009806601,-0.40717956,0.15706682,11.441445350646973,-4.633634090423584,4.438291072845459,-17.61904525756836,-68.3305435180664, -7.742920398712158
262,1465764429,0.89604694,-0.008123542,-0.415829,0.15530704,11.92120361328125,-2.9824740886688232,6.191685676574707,-3.617159366607666,-65.56021881103516, -11.919596672058105
263,1465781096,0.89330167,-0.0014851452,-0.42222157,0.15407488,12.814992904663086,-4.196385383605957,7.400880813598633,30.92205238342285,-54.298343658447266, -23.696474075317383
264,1465797763,0.8934628,0.008039342,-0.4209321,0.1564479,5.2334794998168945,-2.78131103515625,18.186120986938477,67.34022521972656,-1.6756998300552368, -13.018828392028809
265,1465814430,0.8943197,0.009441193,-0.41877496,0.15726052,7.224630832672119,-0.9941717982292175,15.890313148498535,13.791476249694824,13.878189086914062, 0.015937522053718567
266,1465831097,0.8960383,0.005942141,-0.41558826,0.15609887,8.744036674499512,-3.0395543575286865,9.616983413696289,-21.024335861206055,27.5462589263916, 0.9814891219139099
267,1465847764,0.89880335,0.007008454,-0.40926415,0.15686412,10.041815757751465,-3.749876022338867,7.505342483520508,15.95821475982666,44.97028350830078, -1.4994049072265625
268,1465864431,0.90243834,0.008506057,-0.40059108,0.15830274,8.64902400970459,-1.700985312461853,10.302657127380371,23.06983184814453,61.53239440917969, 0.3292626738548279
269,1465881098,0.9071904,0.0063013798,-0.3893893,0.1591924,7.607996463775635,-1.4511487483978271,12.478879928588867,1.2693780660629272,84.21519470214844, 5.742082595825195
270,1465897765,0.9125448,0.002012397,-0.37653428,0.15962404,6.93336820602417,-0.8319764137268066,11.871801376342773,-11.195262908935547,98.24176025390625, 7.72330904006958
271,1465914432,0.91830176,-0.002165982,-0.36206573,0.16008031,7.428779125213623,-1.0902645587921143,9.856966972351074,-8.706868171691895,109.1425552368164, 7.1327924728393555
272,1465931099,0.924305,-0.004745202,-0.34589797,0.16122192,7.847596168518066,-0.9475985765457153,8.584463119506836,4.950585842132568,118.65632629394531, 7.234391212463379
273,1465947766,0.9302553,-0.0061012986,-0.3285975,0.16313063,7.531184673309326,-1.3750510215759277,8.272679328918457,15.786042213439941,124.35284423828125, 9.304618835449219
274,1465964433,0.93604106,-0.005943614,-0.31016213,0.16610716,7.549147129058838,-2.132505178451538,8.250275611877441,29.148637771606445,129.51597595214844, 12.944619178771973
275,1465981100,0.94166726,-0.0042864606,-0.29049394,0.16987605,6.975038051605225,-1.2295666933059692,8.113243103027344,41.91875457763672,135.40240478515625, 15.059865951538086
276,1465997767,0.9470896,-0.0032341396,-0.27003667,0.17346816,6.856487274169922,-1.1663516759872437,8.176772117614746,38.56753158569336,140.8538818359375, 15.379423141479492
277,1466014434,0.9522492,-0.0017747708,-0.24849628,0.17739305,6.596262454986572,-0.8912837505340576,8.464261054992676,43.1285514831543,146.975830078125, 17.12757682800293
278,1466031101,0.95710886,-0.001514639,-0.22608691,0.18117791,6.093525409698486,-0.61916583776474,9.439140319824219,36.091827392578125,153.66822814941406, 18.63657569885254
279,1466047768,0.9616898,-0.0028871656,-0.20272663,0.18451694,5.386302471160889,-0.16454580426216125,9.938687324523926,25.824748992919922,161.5662078857422, 18.600906372070312
280,1466064435,0.96586555,-0.006604161,-0.17882985,0.18729721,5.1634626388549805,-0.6510681509971619,9.668045043945312,10.1898775100708,167.5555419921875, 18.70831298828125
281,1466081102,0.969512,-0.011873507,-0.15449311,0.18983503,5.398062229156494,-0.7605197429656982,8.44537353515625,0.11770917475223541,171.87416076660156, 19.713769912719727
282,1466097769,0.97252756,-0.018632196,-0.12994476,0.1922435,5.138404369354248,-0.8969082832336426,7.480844020843506,-9.722631454467773,174.64837646484375, 21.284835815429688
283,1466114436,0.974871,-0.025698118,-0.10555915,0.19448282,4.683779239654541,-0.4317511320114136,6.944858074188232,-12.22093677520752,173.48260498046875, 21.310516357421875
284,1466131103,0.97658503,-0.032663997,-0.08128869,0.19648641,4.3351521492004395,-0.39699700474739075,7.122294902801514,-11.994707107543945,172.25941467285156, 20.497154235839844
285,1466147770,0.9778031,-0.03800304,-0.056565534,0.19813445,3.904240846633911,-0.05478448048233986,7.234155654907227,-0.7810401320457458,173.00112915039062, 17.98749542236328
286,1466164437,0.97852564,-0.04238296,-0.031761434,0.19920464,3.586474657058716,-0.09760607779026031,7.650689125061035,5.397145748138428,172.29006958007812, 14.440471649169922
287,1466181104,0.9787239,-0.046419114,-0.007836063,0.1997084,3.2296314239501953,-0.20757442712783813,7.141486644744873,6.2022929191589355,166.05010986328125, 11.022139549255371
288,1466197771,0.97844183,-0.049782522,0.014570912,0.19990306,2.434610366821289,-0.5933495163917542,6.7916789054870605,8.452559471130371,155.07261657714844, 9.0861177444458
289,1466214438,0.9777639,-0.052751917,0.03456798,0.20000076,1.9634681940078735,-0.7681442499160767,6.456820487976074,7.65871000289917,138.46389770507812, 8.196857452392578
290,1466231105,0.97678226,-0.055594888,0.05204322,0.20024286,1.816253662109375,-0.9482714533805847,4.806457996368408,4.89865255355835,121.42070770263672, 8.70565414428711
291,1466247772,0.97572047,-0.057209864,0.06784498,0.20023407,0.9878777265548706,-0.47722700238227844,4.560070514678955,10.915099143981934,108.6775894165039, 6.9370880126953125
292,1466264439,0.9745226,-0.058880527,0.082449995,0.20010218,-0.2980986535549164,0.11337344348430634,6.610251426696777,8.897418975830078,100.87413024902344, 5.798182487487793
293,1466281106,0.9732104,-0.060928226,0.09558194,0.20003417,-0.7392725348472595,-0.23030678927898407,6.442060470581055,4.236114025115967,91.56889343261719, 5.566886901855469
294,1466297773,0.9720053,-0.061100665,0.10766785,0.19970024,-1.2448347806930542,-0.536419689655304,6.287774085998535,15.553165435791016,82.02925109863281, 4.42569637298584
295,1466314440,0.97102195,-0.05970633,0.1179453,0.19909936,-1.5313889980316162,-0.4048624634742737,5.765416622161865,23.83139419555664,67.72569274902344, 2.724825143814087
296,1466331107,0.9703066,-0.05645772,0.12650779,0.19827716,-1.7817511558532715,-0.18679948151111603,4.797119140625,34.150962829589844,53.58869171142578, 1.6634210348129272
297,1466347774,0.9700017,-0.051339705,0.13263513,0.19715178,-1.8436263799667358,-0.09268253296613693,3.724647045135498,43.721134185791016,34.51934814453125, -0.2613932490348816
298,1466364441,0.9700068,-0.04499776,0.136887,0.19576517,-2.1354777812957764,0.6113597750663757,4.425511837005615,49.685279846191406,20.11684799194336, -1.9939430952072144
299,1466381108,0.9701758,-0.04000328,0.13891627,0.19457954,-2.354106903076172,0.7790368795394897,4.8920464515686035,37.5438117980957,6.844178676605225, -2.8604800701141357
300,1466397775,0.97062695,-0.03461571,0.13880043,0.19344091,-2.3791959285736084,-0.016057461500167847,3.5726382732391357,37.29985809326172,-8.321980476379395, -3.1643500328063965
301,1466414442,0.97142684,-0.028814254,0.13637662,0.19209652,-2.062995195388794,0.12107744812965393,3.711524486541748,37.27137756347656,-24.619935989379883, -5.171715259552002
302,1466431109,0.97230476,-0.023774302,0.13077638,0.19223873,-2.4566502571105957,-1.9039697647094727,3.8421711921691895,26.609146118164062,-45.24658203125, 3.299696922302246
303,1466447776,0.9736274,-0.02152962,0.117579535,0.19432294,2.1475534439086914,-1.4511317014694214,-1.7869981527328491,-3.724138021469116,-93.11449432373047, 11.953132629394531
304,1466464443,0.9749851,-0.015512441,0.102839164,0.19643785,4.531347274780273,-0.14326606690883636,9.19020938873291,19.499990463256836,-108.48104858398438, 14.949796676635742
305,1466481110,0.97620237,-0.009561905,0.0864608,0.19865122,2.243288278579712,2.5135512351989746,9.073610305786133,16.767704010009766,-119.08175659179688, 15.58441162109375
306,1466497777,0.9773003,-0.004006138,0.06838482,0.20047879,2.233886480331421,1.8741298913955688,7.306926727294922,11.950615882873535,-129.7301483154297, 12.798741340637207
307,1466514444,0.978097,0.0025480974,0.049905904,0.20206189,1.262744665145874,0.8361170291900635,7.129690170288086,18.162109375,-133.57565307617188, 12.025894165039062
308,1466531111,0.9784689,0.010189941,0.032337144,0.20359097,0.5673984289169312,0.5209147334098816,8.308799743652344,26.75318717956543,-128.77210998535156, 12.606884002685547
309,1466547778,0.9784181,0.017773721,0.016554985,0.20520268,1.0191593170166016,-1.5837293863296509,7.143008708953857,28.874263763427734,-116.55072021484375, 13.611204147338867
310,1466564445,0.9781516,0.025735365,0.0030841816,0.20627168,1.0788004398345947,-0.5605494379997253,7.495297431945801,34.83244705200195,-101.55169677734375, 10.018401145935059
311,1466581112,0.97778225,0.03206776,-0.008672644,0.20697379,1.7642072439193726,0.768619179725647,6.95485782623291,26.365842819213867,-87.75862884521484, 7.350020408630371
312,1466597779,0.97736406,0.035308193,-0.018887285,0.20774065,2.0382204055786133,1.2268840074539185,8.27951431274414,7.780128479003906,-72.9472885131836, 7.693029880523682
313,1466614446,0.97689044,0.035811685,-0.02867843,0.20875914,2.412412405014038,0.9438631534576416,8.858344078063965,-9.9787015914917,-66.1054916381836, 9.722704887390137
314,1466631113,0.9763143,0.034172494,-0.038064983,0.21022286,2.3252973556518555,0.9071664810180664,9.676785469055176,-23.682926177978516,-60.18570327758789, 13.196292877197266
315,1466647780,0.97554255,0.032771982,-0.047009088,0.21220961,2.6516284942626953,0.6759355664253235,9.001143455505371,-21.261110305786133,-57.46210861206055, 16.84092903137207
316,1466664447,0.9746368,0.032503366,-0.056503523,0.214089,3.4213826656341553,2.3390471935272217,8.878630638122559,-14.474063873291016,-62.839019775390625, 16.088706970214844
317,1466681114,0.9737283,0.028919872,-0.067990996,0.21539311,3.2619550228118896,0.4949870705604553,9.718591690063477,-39.89496994018555,-71.39447021484375, 13.99944019317627
318,1466697781,0.9727405,0.02623098,-0.07926966,0.21634299,3.488558292388916,0.5120460987091064,10.32992172241211,-33.741512298583984,-71.3924560546875, 11.313413619995117
319,1466714448,0.9717568,0.024260143,-0.08945212,0.21702221,3.945561408996582,-0.5071694254875183,10.404731750488281,-27.456592559814453,-65.14253997802734, 8.93148136138916
320,1466731115,0.9707684,0.02277493,-0.09816213,0.21784006,3.49080753326416,-0.7147577404975891,9.315485954284668,-21.900705337524414,-55.9688835144043, 9.338339805603027
321,1466747782,0.96978146,0.021826116,-0.10663092,0.21835186,3.340786933898926,-0.45240816473960876,9.138355255126953,-18.135162353515625,-55.183250427246094, 6.906580448150635
322,1466764449,0.9688265,0.020287046,-0.11480013,0.21859707,3.3748836517333984,-0.1981360763311386,9.566994667053223,-21.802316665649414,-52.299644470214844, 5.48108434677124
323,1466781116,0.96782714,0.018449761,-0.12319301,0.21861748,3.9222278594970703,0.11816798150539398,9.765840530395508,-24.286855697631836,-53.39860153198242, 4.333215236663818
324,1466797783,0.96673274,0.01658278,-0.13203016,0.21845104,4.372591972351074,0.31805872917175293,10.014432907104492,-25.301589965820312,-56.39633560180664, 3.3343636989593506
325,1466814450,0.96545357,0.015309716,-0.14159504,0.21821135,4.295425891876221,0.09948503226041794,9.735594749450684,-22.503448486328125,-62.27727127075195, 2.6904571056365967
326,1466831117,0.96402603,0.014307334,-0.15171993,0.21778496,4.270740509033203,-0.11935831606388092,9.427881240844727,-21.719161987304688,-66.54698944091797, 1.48915433883667
327,1466847784,0.9624579,0.013850065,-0.16244994,0.2170098,3.959761381149292,-0.1451246291399002,8.647038459777832,-19.364089965820312,-71.54155731201172, -1.103454828262329
328,1466864451,0.96079457,0.013511857,-0.17374407,0.21564908,3.705782175064087,-0.25728029012680054,8.708285331726074,-20.065614700317383,-75.60889434814453, -4.897650241851807
329,1466881118,0.9589899,0.013390977,-0.18501294,0.21431147,3.9812698364257812,-0.8084423542022705,9.101219177246094,-18.553930282592773,-75.93965148925781, -4.783287048339844
330,1466897785,0.9570331,0.013333236,-0.19632773,0.21299125,4.467824459075928,-0.9783688187599182,9.652046203613281,-18.158056259155273,-76.53820037841797, -4.513388633728027
331,1466914452,0.95491153,0.013134898,-0.20783365,0.21160544,4.912355422973633,-1.2048354148864746,9.5077486038208,-19.421871185302734,-77.82852172851562, -4.488163948059082
332,1466931119,0.9526407,0.013234118,-0.2191727,0.21039005,4.827436447143555,-1.2547085285186768,8.821507453918457,-16.94888687133789,-77.36675262451172, -3.5870614051818848
333,1466947786,0.95029104,0.012824388,-0.23026079,0.20919484,5.045974254608154,-1.1131792068481445,8.832714080810547,-19.861751556396484,-75.10786437988281, -2.5938403606414795
334,1466964453,0.9478956,0.011911996,-0.24103779,0.20797367,5.16795015335083,-0.7448216676712036,9.190801620483398,-22.71917152404785,-72.4327163696289, -1.9207611083984375
335,1466981120,0.9452509,0.012197348,-0.25189987,0.20711945,5.03927755355835,-0.8895241618156433,7.947323322296143,-14.402253150939941,-75.09622955322266, -1.1411590576171875
336,1466997787,0.9426105,0.012290637,-0.26256388,0.20589946,5.373260974884033,-0.20372672379016876,8.636015892028809,-15.993735313415527,-73.56463623046875, -3.203073024749756
337,1467014454,0.93987834,0.01300977,-0.2729628,0.20481932,5.678023815155029,-0.07312165200710297,8.057666778564453,-11.31513786315918,-72.90001678466797, -3.3064961433410645
338,1467031121,0.93717825,0.014148979,-0.28293046,0.20358567,6.28197717666626,-0.04153851419687271,7.971296310424805,-8.2992525100708,-70.66098022460938, -5.15614652633667
339,1467047788,0.9344899,0.015778823,-0.29259706,0.20215528,6.684042930603027,-0.08209765702486038,8.276518821716309,-5.117569446563721,-69.39725494384766, -7.409382343292236
340,1467064455,0.9318526,0.01857259,-0.30183896,0.2004974,6.253594398498535,0.43910348415374756,8.6282320022583,2.469188690185547,-68.20255279541016, -11.316367149353027
341,1467081122,0.9292592,0.021756962,-0.31066534,0.19872394,6.637410640716553,0.17934027314186096,7.952319145202637,5.265677452087402,-66.01773071289062, -12.966483116149902
342,1467097789,0.9267816,0.025151998,-0.3189211,0.19680652,7.338688373565674,0.5594102740287781,8.08953857421875,7.040848731994629,-62.434608459472656, -14.569254875183105
343,1467114456,0.92433333,0.02724264,-0.3271981,0.19444096,8.215986251831055,0.5891772508621216,8.21407413482666,-2.3211441040039062,-60.811912536621094, -14.580448150634766
344,1467131123,0.92185485,0.028364455,-0.33559027,0.1917247,8.50097942352295,0.0903693288564682,8.656607627868652,-9.449322700500488,-60.366004943847656, -14.541351318359375
345,1467147790,0.91926485,0.02932796,-0.34387788,0.18931568,8.856090545654297,-0.4627060294151306,8.97793960571289,-9.604097366333008,-59.68357849121094, -12.078471183776855
346,1467164457,0.9167051,0.028643489,-0.3520992,0.18670237,9.453722953796387,-0.8061003684997559,10.494867324829102,-20.43006134033203,-57.08510971069336, -9.51108169555664
347,1467181124,0.9144263,0.024821954,-0.3594395,0.18442291,9.612208366394043,-2.0394179821014404,10.260282516479492,-38.3193473815918,-46.777305603027344, -0.3282053470611572
348,1467197791,0.9116357,0.020577317,-0.36793682,0.18198766,8.402395248413086,-1.8390498161315918,8.597213745117188,-42.71697235107422,-54.82461929321289, 0.5889548659324646
349,1467214458,0.9085405,0.0156044075,-0.37752163,0.17829219,8.792945861816406,-2.2877211570739746,8.11756706237793,-51.762725830078125,-61.69663619995117, -4.921670436859131
350,1467231125,0.9053731,0.010716814,-0.3872052,0.17394519,9.795988082885742,-3.6970560550689697,6.464991092681885,-53.00351333618164,-62.684329986572266, -9.105559349060059
351,1467247792,0.90192264,0.010541094,-0.396414,0.17111596,10.960918426513672,-4.639184474945068,3.3199148178100586,-18.981433868408203,-65.96619415283203, -11.915730476379395
352,1467264459,0.8985125,0.014266546,-0.4044361,0.17000984,11.67703914642334,-3.8472115993499756,5.696069717407227,11.391782760620117,-62.84358596801758, -12.038646697998047
353,1467281126,0.89580256,0.019582221,-0.41055706,0.16910774,12.02155876159668,-5.048050880432129,9.02016544342041,23.99686050415039,-50.90896987915039, -16.249225616455078
354,1467297793,0.8958353,0.026500158,-0.40958503,0.17034407,6.142414569854736,-1.14523184299469,18.790401458740234,47.844852447509766,-1.0385397672653198, -11.827316284179688
355,1467314460,0.8966457,0.023265349,-0.40879083,0.16845013,7.5268683433532715,-0.1657722294330597,14.021117210388184,-23.902099609375,11.091076850891113, -3.427910089492798
356,1467331127,0.8979979,0.016981127,-0.40745583,0.16520005,10.535626411437988,-3.525094509124756,7.428159713745117,-46.021175384521484,19.096168518066406, -3.915639877319336
357,1467347794,0.90020883,0.017307382,-0.40237984,0.16557537,10.274992942810059,-3.0869903564453125,8.854046821594238,9.144646644592285,37.53384780883789, -1.4873629808425903
358,1467364461,0.9030366,0.018536935,-0.39517877,0.16737783,8.68570613861084,-1.0206258296966553,11.222513198852539,21.058269500732422,51.5278434753418, 3.855400323867798
359,1467381128,0.9066967,0.017478026,-0.3862383,0.16857003,7.532530784606934,0.2770216464996338,12.147724151611328,7.069339275360107,67.06893920898438, 5.0984110832214355
360,1467397795,0.9108975,0.014498588,-0.37611142,0.1691029,7.562103748321533,-0.3847002387046814,10.955857276916504,-5.394778251647949,77.94041442871094, 5.331405162811279
361,1467414462,0.9153922,0.012588714,-0.36437744,0.17066927,7.813320636749268,-0.6591687202453613,9.410463333129883,5.783512592315674,87.55040740966797, 8.539361000061035
362,1467431129,0.9201774,0.011117427,-0.35096422,0.173131,7.658438682556152,-0.08320145308971405,9.080649375915527,12.715789794921875,98.37642669677734, 12.592306137084961
363,1467447796,0.9249959,0.0096256295,-0.33659762,0.17604637,7.092511177062988,-0.2500656545162201,8.861577987670898,14.783968925476074,104.52592468261719, 15.406074523925781
364,1467464463,0.9298095,0.008904159,-0.3211493,0.17955087,7.04257869720459,-0.8839883804321289,8.317684173583984,22.332908630371094,110.48234558105469, 17.305070877075195
365,1467481130,0.9347795,0.010122195,-0.30389696,0.18366137,6.679834842681885,-0.39986804127693176,8.704296112060547,38.282859802246094,120.00248718261719, 16.584531784057617
366,1467497797,0.9397805,0.010608386,-0.2856235,0.18740161,6.3732590675354,-0.0877797082066536,9.125629425048828,34.074241638183594,127.52517700195312, 15.613969802856445
367,1467514464,0.9447378,0.010430589,-0.26630917,0.19089597,6.353829860687256,-0.18089842796325684,9.287320137023926,30.621788024902344,134.99546813964844, 15.305768013000488
368,1467531131,0.94961625,0.0087557845,-0.24609661,0.19387792,6.166624546051025,-0.05936885625123978,9.289817810058594,21.12375831604004,142.615966796875, 14.753116607666016
369,1467547798,0.9544632,0.006590904,-0.22462577,0.196214,5.7428717613220215,-0.3290734589099884,9.671321868896484,18.486495971679688,151.4018096923828, 11.327208518981934
370,1467564465,0.95910835,0.0038713864,-0.20219715,0.19802152,5.764086723327637,-0.8262293934822083,9.686426162719727,15.31501579284668,158.1066131591797, 8.93966293334961
371,1467581132,0.96331704,0.0011649193,-0.17933267,0.19964752,5.887297630310059,-1.2034995555877686,8.201685905456543,15.749460220336914,160.3700408935547, 8.29996109008789
372,1467597799,0.96708685,-0.0007373945,-0.1555435,0.20136794,5.725039482116699,-0.9898298978805542,8.06588077545166,22.473957061767578,164.899169921875, 8.520059585571289
373,1467614466,0.9702909,-0.003643698,-0.13180414,0.20285529,5.320272922515869,-0.3352320194244385,8.021915435791016,15.482280731201172,165.4091033935547, 8.82177734375
374,1467631133,0.97288036,-0.005913833,-0.107927755,0.20450135,5.05718469619751,-0.30219319462776184,7.472400665283203,20.03740692138672,164.9309844970703, 10.161234855651855
375,1467647800,0.9749054,-0.0074730925,-0.083824195,0.20610051,4.497663974761963,-0.185835599899292,7.486872673034668,25.04734230041504,165.09718322753906, 10.118341445922852
376,1467664467,0.97640693,-0.0071679703,-0.05911754,0.2075652,3.797764539718628,-0.10033729672431946,7.874129295349121,38.28647994995117,166.26287841796875, 8.902103424072266
377,1467681134,0.9773587,-0.005508019,-0.034460124,0.20869163,3.270709276199341,-0.10554276406764984,7.7406325340271,47.13818359375,163.8415069580078, 6.845497131347656
378,1467697801,0.9776935,-0.003116354,-0.010649782,0.2097439,3.07814359664917,-0.3218447268009186,7.804510116577148,50.79283905029297,157.0006103515625, 7.007494926452637
379,1467714468,0.97743535,-0.0027027274,0.010688348,0.21094705,3.0212643146514893,0.7044267654418945,6.442201137542725,33.930747985839844,143.23361206054688, 8.945554733276367
380,1467731135,0.97684115,-0.0046957256,0.029612197,0.21185501,2.4945263862609863,0.6965077519416809,6.028969764709473,14.252601623535156,130.58131408691406, 7.212841987609863
381,1467747802,0.9760603,-0.0070429407,0.04682166,0.21228456,1.6027740240097046,1.3048354387283325,5.727142333984375,9.451034545898438,119.68077850341797, 4.137500286102295
382,1467764469,0.9751659,-0.009905103,0.06247695,0.21225065,0.8749488592147827,1.2459635734558105,6.326029300689697,3.8403337001800537,110.08870697021484, 0.9379066228866577
383,1467781136,0.9742016,-0.013045468,0.076745264,0.21182865,0.13327056169509888,1.4231574535369873,7.233234882354736,0.0842624232172966,101.26739501953125, -1.7879974842071533
384,1467797803,0.973159,-0.01566089,0.08980621,0.21130873,-0.28749221563339233,0.8021841049194336,6.844073295593262,1.854536771774292,92.47140502929688, -2.1729185581207275
385,1467814470,0.9721483,-0.016685685,0.10181871,0.21043421,-0.6857923269271851,0.915313720703125,6.160270690917969,11.179906845092773,83.16321563720703, -3.7375874519348145
386,1467831137,0.9712478,-0.016355554,0.1126031,0.20911944,-1.365906834602356,1.303074598312378,5.829584121704102,18.76026153564453,72.95873260498047, -6.04766321182251
387,1467847804,0.970556,-0.014606318,0.12192328,0.20722568,-1.3570961952209473,1.2720328569412231,4.7920331954956055,26.576370239257812,61.02113723754883, -9.30803394317627
388,1467864471,0.9700796,-0.01145373,0.1297232,0.20490639,-1.5441107749938965,1.3751637935638428,3.9760804176330566,34.126556396484375,48.713340759277344, -11.457540512084961
389,1467881138,0.9698229,-0.008470156,0.13544501,0.20255049,-2.2444331645965576,1.2106493711471558,4.735031604766846,30.09376335144043,34.86491775512695, -12.354935646057129
390,1467897805,0.96981645,-0.0055113104,0.13884552,0.2003689,-2.3205502033233643,0.3209701180458069,4.171520233154297,26.526756286621094,19.135334014892578, -11.723776817321777
391,1467914472,0.9699992,-0.0021163016,0.14053895,0.19835863,-2.2731409072875977,0.02003500983119011,3.548464298248291,26.92399787902832,6.919727325439453, -10.501405715942383
392,1467931139,0.9704417,0.00062775717,0.13947187,0.19695204,-2.307828903198242,-0.40881192684173584,2.6121439933776855,18.24321174621582,-10.9089937210083, -7.503702163696289
393,1467947806,0.971283,0.0015234125,0.1338797,0.19668083,-2.3784027099609375,-0.3881160616874695,1.3469663858413696,-1.2932690382003784,-39.026241302490234, -2.2161765098571777
394,1467964473,0.9722619,0.0022110979,0.12114903,0.20006226,2.615147113800049,-5.449320316314697,-1.5486027002334595,-15.68293285369873,-86.56375885009766, 21.89287757873535
395,1467981140,0.9734578,0.0059338715,0.107123934,0.20216182,4.303182125091553,-0.44380781054496765,11.088044166564941,4.009921073913574,-99.55449676513672, 15.632255554199219
396,1467997807,0.97460204,0.008852827,0.091133825,0.20437072,2.888317346572876,0.8159762620925903,8.582375526428223,-4.153656005859375,-111.413330078125, 15.94600772857666
397,1468014474,0.97558445,0.014266835,0.0741007,0.20625378,2.1025664806365967,0.7753252983093262,8.03127670288086,11.313825607299805,-121.74539184570312, 15.623212814331055
398,1468031141,0.97632813,0.020189699,0.055972397,0.2079494,1.6810519695281982,0.7236444354057312,6.962771415710449,13.293682098388672,-129.65423583984375, 15.07633113861084
399,1468047808,0.97683996,0.026067303,0.03807922,0.20893608,0.7387497425079346,1.4904757738113403,7.969151973724365,13.631669044494629,-127.98281860351562, 10.600534439086914
400,1468064475,0.977024,0.030588087,0.021633578,0.20981117,-0.007545992732048035,1.0902225971221924,9.722468376159668,6.671372413635254,-116.23246002197266, 9.703510284423828
401,1468081142,0.9766618,0.03532979,0.007590246,0.21172187,1.2742074728012085,-1.50473952293396,6.769255638122559,11.580700874328613,-100.1213607788086, 16.9801082611084
402,1468097809,0.97608054,0.041971873,-0.004249424,0.21327727,1.8566820621490479,0.33088019490242004,6.069025993347168,27.673614501953125,-88.15066528320312, 14.480976104736328
403,1468114476,0.97554284,0.04650652,-0.014428582,0.2143485,2.0307514667510986,1.36980140209198,8.246768951416016,15.948592185974121,-74.03346252441406, 10.746432304382324
404,1468131143,0.9750414,0.04858493,-0.024033,0.21530503,2.3182215690612793,0.8072730302810669,8.279706954956055,0.2887301743030548,-66.57337188720703, 9.980345726013184
405,1468147810,0.9745435,0.0490456,-0.03316829,0.21623977,2.1927084922790527,0.6701234579086304,9.058035850524902,-9.862524032592773,-61.019161224365234, 9.9492826461792
406,1468164477,0.97393006,0.049031727,-0.04167381,0.21753062,2.303260564804077,0.4651171863079071,9.524262428283691,-11.977334022521973,-55.98689270019531, 12.412184715270996
407,1468181144,0.973087,0.05091506,-0.049224902,0.21928594,2.7994420528411865,0.4405536949634552,9.382665634155273,2.3789899349212646,-52.3311767578125, 15.004491806030273
408,1468197811,0.97233945,0.050397146,-0.05786785,0.22060722,3.3877456188201904,1.4919320344924927,9.263922691345215,-15.498285293579102,-56.117164611816406, 13.158681869506836
409,1468214478,0.97157365,0.049263902,-0.06653231,0.22179066,2.93506121635437,1.0744577646255493,9.632547378540039,-19.70205307006836,-55.35581588745117, 12.531115531921387
410,1468231145,0.9707878,0.046403676,-0.07562137,0.22293314,3.1028823852539062,0.7748900651931763,9.391829490661621,-31.899412155151367,-55.56980514526367, 13.232880592346191
411,1468247812,0.9699432,0.043274626,-0.084779985,0.22394171,3.2697525024414062,0.25389862060546875,9.499119758605957,-33.84642791748047,-55.682193756103516, 12.614673614501953
412,1468264479,0.9689929,0.040104605,-0.094535306,0.22473904,3.1978607177734375,0.19103668630123138,9.580377578735352,-35.117549896240234,-59.71080017089844, 11.588249206542969
413,1468281146,0.9680129,0.036419347,-0.10496914,0.22495872,3.3329973220825195,0.5652449131011963,9.422173500061035,-39.953704833984375,-63.60700988769531, 8.333342552185059
414,1468297813,0.9669646,0.03421619,-0.11513029,0.2248418,3.5860865116119385,0.3521703779697418,9.917542457580566,-29.894243240356445,-64.2125473022461, 5.079351425170898
415,1468314480,0.9658003,0.033366006,-0.12534377,0.22451156,3.8737032413482666,0.2009613811969757,9.364629745483398,-21.12000846862793,-66.78956604003906, 2.7993242740631104
416,1468331147,0.96452826,0.033120275,-0.1359135,0.22386628,4.216345310211182,0.27365604043006897,9.258671760559082,-17.9009952545166,-70.2442855834961, 0.4476606249809265
417,1468347814,0.9631215,0.03253466,-0.1467802,0.2231461,4.4327168464660645,0.20807558298110962,9.76677417755127,-20.652517318725586,-71.82186126708984, 0.5563123226165771
418,1468364481,0.9615319,0.03139036,-0.1581776,0.22237583,4.624085426330566,-0.1197517067193985,9.995491027832031,-25.177644729614258,-74.66659545898438, 1.1978105306625366
419,1468381148,0.9597184,0.029825564,-0.170382,0.22140734,4.495966911315918,-0.1025192141532898,9.66631031036377,-29.352848052978516,-79.6393814086914, 0.8791716694831848
420,1468397815,0.9577178,0.028243236,-0.18281911,0.22035569,4.488772869110107,-0.4399978816509247,9.5277099609375,-29.8765926361084,-81.38481903076172, 0.703285813331604
421,1468414482,0.95554096,0.027095104,-0.19508131,0.21943325,4.725627899169922,-0.31313106417655945,9.104781150817871,-26.547321319580078,-81.09115600585938, 1.2538954019546509
422,1468431149,0.95326227,0.025408534,-0.20735806,0.21828505,4.964772701263428,-0.21503975987434387,9.294112205505371,-30.384048461914062,-80.55487060546875, 0.665813148021698
423,1468447816,0.9508627,0.023057839,-0.2197045,0.21693,5.42578649520874,-0.34992653131484985,9.362122535705566,-35.11363983154297,-80.2272720336914, 0.46819356083869934
424,1468464483,0.94833237,0.021257682,-0.23170385,0.21570158,5.365699768066406,-0.7975366711616516,9.412025451660156,-30.7811222076416,-78.9581298828125, 0.6231279373168945
425,1468481150,0.9456675,0.019901356,-0.24356271,0.21446283,5.310912132263184,-0.8301977515220642,8.724431991577148,-27.66599464416504,-78.9240493774414, 0.0404498465359211
426,1468497817,0.94289666,0.019102314,-0.25526422,0.21312293,5.209632873535156,-0.4760105311870575,8.410017967224121,-23.9556827545166,-78.92059326171875, -1.4047878980636597
427,1468514484,0.9400359,0.018005513,-0.26690108,0.21159454,5.579765796661377,-0.21992632746696472,8.313673973083496,-26.10964584350586,-78.25880432128906, -1.9688953161239624
428,1468531151,0.9371218,0.016879803,-0.27821764,0.2100307,6.094494342803955,-0.3703089952468872,8.837699890136719,-25.89395523071289,-76.25625610351562, -2.0927205085754395
429,1468547818,0.9340728,0.015991805,-0.2896538,0.2082147,6.481319904327393,-0.2835485339164734,8.890576362609863,-25.006174087524414,-77.66693115234375, -3.9487640857696533
430,1468564485,0.9308911,0.016487464,-0.30078715,0.20663273,6.52880334854126,-0.7352903485298157,8.872127532958984,-15.214591026306152,-77.94847869873047, -5.033405303955078
431,1468581152,0.92751956,0.019029183,-0.31172842,0.20535538,6.353532314300537,-0.33992576599121094,7.981910705566406,-1.1970880031585693,-79.99407196044922, -7.065514087677002
432,1468597819,0.9242432,0.021798205,-0.32196882,0.20404758,6.702322483062744,-0.2678549587726593,7.54266881942749,1.1575318574905396,-75.6529312133789, -7.968952655792236
433,1468614486,0.9210105,0.024406737,-0.33173472,0.20272188,7.218145370483398,-0.36861827969551086,8.036681175231934,0.7492303252220154,-72.31971740722656, -7.856100082397461
434,1468631153,0.9176903,0.026792927,-0.3415994,0.20108917,7.900635242462158,-0.36708420515060425,7.925662994384766,-1.4897652864456177,-72.8899917602539, -9.151372909545898
435,1468647820,0.9143487,0.027923573,-0.35169825,0.19873364,8.662877082824707,-0.5297868251800537,8.2011137008667,-11.437061309814453,-72.81195831298828, -10.682817459106445
436,1468664487,0.91100377,0.029037865,-0.36152667,0.19628507,8.295259475708008,-0.9024012684822083,8.585434913635254,-11.401155471801758,-71.11067199707031, -11.266199111938477
437,1468681154,0.9077611,0.030065063,-0.370959,0.19353397,8.116124153137207,-0.5024467706680298,9.119307518005371,-12.184584617614746,-68.32835388183594, -13.15554141998291
438,1468697821,0.9047328,0.030271722,-0.37977666,0.19055714,8.512357711791992,-0.6750137209892273,8.8554105758667,-17.117694854736328,-62.92326736450195, -12.874809265136719
439,1468714488,0.9018939,0.02992958,-0.38789815,0.18768795,8.92448902130127,-0.9882144927978516,9.010459899902344,-19.387008666992188,-57.37612533569336, -11.158461570739746
440,1468731155,0.8998749,0.025199763,-0.39468512,0.18388548,9.841925621032715,-1.8405234813690186,11.240418434143066,-47.5322380065918,-41.46627426147461, -6.563129901885986
441,1468747822,0.898274,0.020165715,-0.4003203,0.18011385,9.626843452453613,-2.902167320251465,4.695558547973633,-47.940921783447266,-32.85988998413086, -6.264379024505615
442,1468764489,0.8959004,0.019591961,-0.4072869,0.17634116,10.470958709716797,-3.7566611766815186,2.467402935028076,-21.90200424194336,-48.695228576660156, -17.40403175354004
443,1468781156,0.8931131,0.024760474,-0.4140164,0.17414525,10.778261184692383,-2.5475337505340576,2.102781295776367,18.280719757080078,-55.06414031982422, -23.319156646728516
444,1468797823,0.8901605,0.031019226,-0.42059106,0.17249802,10.767630577087402,-1.6213622093200684,6.524672031402588,26.78801727294922,-55.70931625366211, -22.89597511291504
445,1468814490,0.8872592,0.036656108,-0.42708966,0.1703585,13.324793815612793,-3.133744478225708,6.526467800140381,21.63804817199707,-54.439754486083984, -24.207992553710938
446,1468831157,0.8873864,0.047518946,-0.4249256,0.17241143,6.968451976776123,-2.5188088417053223,18.69758415222168,75.24483489990234,2.284003496170044, -19.7474308013916
447,1468847824,0.88868564,0.050425608,-0.42169535,0.17282476,7.309144020080566,0.3650253713130951,16.373197555541992,22.78095817565918,20.915246963500977, -8.304780960083008
448,1468864491,0.89044577,0.047142394,-0.4187934,0.17174442,9.29918384552002,-2.5561695098876953,8.399871826171875,-19.96452522277832,26.926315307617188, 0.07295805960893631
449,1468881158,0.8928368,0.04923357,-0.41258505,0.17375909,9.921183586120605,-3.747673511505127,5.964738368988037,25.57382583618164,43.62034225463867, 1.7063015699386597
450,1468897825,0.8959879,0.05314358,-0.40327588,0.17818576,9.222874641418457,-1.1246873140335083,9.849933624267578,47.084495544433594,63.47719192504883, 9.357390403747559
451,1468914492,0.9000606,0.0527934,-0.3924903,0.18181069,7.725536346435547,1.4094761610031128,12.834547996520996,20.09290885925293,80.01908874511719, 14.541988372802734
452,1468931159,0.90444034,0.047339138,-0.38195062,0.18401173,7.589463710784912,0.5888065695762634,12.544498443603516,-15.798721313476562,85.10232543945312, 19.216171264648438
453,1468947826,0.90898484,0.042959638,-0.36992022,0.18724333,8.116499900817871,0.08367709070444107,10.060428619384766,-4.598667621612549,93.70157623291016, 22.119718551635742
454,1468964493,0.9138596,0.039125405,-0.35618418,0.19095272,7.66169548034668,0.90010005235672,9.5535249710083,2.1074914932250977,104.60786437988281, 22.792795181274414
455,1468981160,0.91884017,0.03523327,-0.34130737,0.19493832,7.523297309875488,0.02594979852437973,8.774663925170898,3.8600451946258545,112.15951538085938, 24.23080062866211
456,1468997827,0.92397434,0.032780796,-0.32471135,0.19939843,7.516623020172119,-0.11527710407972336,8.02627182006836,16.321943283081055,121.55587768554688, 23.22568702697754
457,1469014494,0.9292091,0.031915057,-0.3063028,0.20428063,7.245403289794922,0.16708096861839294,8.626836776733398,29.798866271972656,131.2205810546875, 21.814952850341797
458,1469031161,0.9345136,0.03028522,-0.2869017,0.20845768,7.113468647003174,1.0112261772155762,9.315869331359863,24.792814254760742,138.6294708251953, 18.59459686279297
459,1469047828,0.9397381,0.027790232,-0.26679787,0.21198805,7.019225597381592,0.6007887721061707,9.184423446655273,18.95179557800293,144.0931854248047, 16.11492347717285
460,1469064495,0.9448957,0.024738166,-0.24571605,0.21490459,6.859849452972412,0.567138671875,9.435751914978027,15.640066146850586,150.9929656982422, 13.077433586120605
461,1469081162,0.95004773,0.021181205,-0.22329512,0.21702565,6.220812797546387,0.3096258044242859,10.175509452819824,12.970988273620605,160.30783081054688, 8.539074897766113
462,1469097829,0.95505804,0.016776923,-0.19969068,0.21841799,6.389490127563477,-0.16739100217819214,10.381784439086914,8.081847190856934,168.98626708984375, 5.1104865074157715
463,1469114496,0.95957077,0.012223434,-0.17575766,0.21950828,6.465299606323242,-1.0258734226226807,8.681530952453613,7.223978519439697,170.6656036376953, 4.030579090118408
464,1469131163,0.9634928,0.00896473,-0.15167591,0.2204439,6.451521396636963,-1.0439832210540771,7.908745288848877,15.859528541564941,169.00254821777344, 2.31919002532959
465,1469147830,0.96683156,0.00632581,-0.12758699,0.22117575,5.7317070960998535,-0.17280060052871704,7.543338298797607,19.80569076538086,167.53826904296875, 1.1984550952911377
466,1469164497,0.96956116,0.0037178327,-0.10356375,0.22183771,4.953843116760254,-0.41273319721221924,7.461430549621582,19.86858367919922,166.56309509277344, 1.626599907875061
467,1469181164,0.9716069,0.0022675437,-0.07953399,0.22282116,4.176799774169922,-0.3230181634426117,7.441644668579102,27.840795516967773,164.4021453857422, 3.9755120277404785
468,1469197831,0.9729754,0.0016615362,-0.05564665,0.2240978,3.6912662982940674,-0.6100749969482422,8.00582504272461,33.433292388916016,161.82525634765625, 6.4999189376831055
469,1469214498,0.97370505,0.0006128882,-0.031876843,0.22557008,3.325976610183716,-0.3243148624897003,7.8316569328308105,30.379465103149414,161.5094757080078, 8.94896411895752
470,1469231165,0.9738603,-0.0005435981,-0.009264976,0.2269581,3.1773436069488525,-0.5450157523155212,7.052261829376221,27.849233627319336,153.8276824951172, 9.285988807678223
471,1469247832,0.9735909,-0.0019302386,0.012045524,0.22797394,3.223437786102295,0.3969087600708008,5.394430160522461,24.26096534729004,145.48011779785156, 7.460855007171631
472,1469264499,0.9730412,-0.005387324,0.03164347,0.22838761,2.1820762157440186,0.8175583481788635,6.168123722076416,7.756330490112305,137.33042907714844, 3.6615607738494873
473,1469281166,0.9722051,-0.00925606,0.049515374,0.22864823,1.3769739866256714,0.39518386125564575,5.654019355773926,2.301616668701172,126.52098083496094, 2.9245400428771973
474,1469297833,0.9712003,-0.01286184,0.066076316,0.22855769,0.7428165674209595,0.7863481640815735,6.304168701171875,2.1017842292785645,117.43854522705078, 0.8423082232475281
475,1469314500,0.9700726,-0.017299598,0.08082285,0.22831464,0.04887448251247406,0.5829035043716431,6.734187602996826,-6.258215427398682,106.70745086669922, -0.5307548642158508
476,1469331167,0.9688537,-0.020719636,0.09417175,0.22809036,-0.5193648934364319,-0.25597187876701355,6.541323184967041,-1.6934641599655151,95.83770751953125, 0.13162153959274292
477,1469347834,0.9677101,-0.021538032,0.10596539,0.22769442,-0.8675505518913269,-0.3082776665687561,5.45623779296875,13.325331687927246,81.36851501464844, 0.3275109827518463
478,1469364501,0.966763,-0.019595554,0.11624404,0.2268757,-1.7298189401626587,0.10169946402311325,5.079753875732422,29.665346145629883,66.87532806396484, -1.0119510889053345
479,1469381168,0.9661136,-0.015800895,0.12435121,0.22563626,-1.8455045223236084,0.3086097538471222,4.042461395263672,38.96625518798828,49.34775161743164, -3.1038289070129395
480,1469397835,0.9656816,-0.011042508,0.13054594,0.22426537,-2.290196180343628,0.42424026131629944,4.312788963317871,42.53486251831055,34.95002746582031, -3.7197988033294678
481,1469414502,0.9654927,-0.006734005,0.13432838,0.22301292,-2.608830690383911,0.44548115134239197,4.676863670349121,35.736690521240234,19.367828369140625, -3.911952495574951
482,1469431169,0.9655244,-0.0026344317,0.13599464,0.22194923,-2.5430643558502197,-0.48342734575271606,4.251978874206543,30.937889099121094,5.393457889556885, -3.300579786300659
483,1469447836,0.96576506,0.0014160443,0.13575028,0.22106141,-2.405780553817749,-0.23474493622779846,3.945667028427124,27.54676055908203,-7.447810649871826, -2.5373036861419678
484,1469464503,0.9662424,0.003417071,0.13281305,0.22073705,-2.5934109687805176,0.5765141248703003,3.6631228923797607,9.325213432312012,-22.46141242980957, -1.0421957969665527
485,1469481170,0.9669629,0.0058379285,0.12683381,0.22104725,-2.779919385910034,0.6528453826904297,1.0880939960479736,6.909387111663818,-43.5516242980957, 3.2560431957244873
486,1469497837,0.96797335,0.00836108,0.113683715,0.22368234,3.8741235733032227,-0.4145911633968353,-2.4275128841400146,-5.351285457611084,-91.59194946289062, 18.648561477661133
487,1469514504,0.9692474,0.011992686,0.09811818,0.22536325,4.887471675872803,2.558971405029297,10.91677474975586,-0.9519880414009094,-109.5951156616211, 12.907145500183105
488,1469531171,0.970273,0.015963271,0.081344895,0.2273739,2.5298566818237305,1.1048129796981812,9.51675796508789,-0.791446328163147,-117.87950134277344, 15.811001777648926
489,1469547838,0.97105753,0.021953007,0.06324084,0.22927283,1.84524667263031,0.553197979927063,7.6955485343933105,10.684876441955566,-129.74264526367188, 16.712984085083008
490,1469564505,0.97155833,0.030150728,0.044064753,0.23070295,1.9564851522445679,0.9679931402206421,6.986530780792236,23.986791610717773,-140.2989959716797, 15.154304504394531
491,1469581172,0.9717121,0.036575746,0.025299486,0.23194346,0.43921101093292236,1.4773222208023071,9.957110404968262,12.92176342010498,-134.64938354492188, 13.816346168518066
492,1469597839,0.9712457,0.042311326,0.008585088,0.23413235,1.62282395362854,-1.7029963731765747,7.640317916870117,11.571493148803711,-119.4980697631836, 20.503005981445312
493,1469614506,0.97057277,0.047653724,-0.006064351,0.23596895,1.502907633781433,0.0034742122516036034,7.636765480041504,12.392574310302734,-105.1488265991211, 17.874502182006836
494,1469631173,0.9698767,0.049601514,-0.019288797,0.2377119,2.113893508911133,0.9246816039085388,7.536491870880127,-7.929314613342285,-90.15458679199219, 16.96688461303711
495,1469647840,0.96918315,0.04772105,-0.031814132,0.23957233,2.5895047187805176,1.7186686992645264,8.495678901672363,-32.29877471923828,-79.1814956665039, 18.02330207824707
496,1469664507,0.9684583,0.04329057,-0.044251036,0.24136393,2.723025321960449,1.9442003965377808,8.823742866516113,-49.15960693359375,-74.40486145019531, 18.162212371826172
497,1469681174,0.96767354,0.036587927,-0.056430086,0.243074,2.9304018020629883,1.0630669593811035,9.942636489868164,-63.88234329223633,-68.9454574584961, 18.35271453857422
498,1469697841,0.9666578,0.0308552,-0.06840961,0.24482793,3.9246175289154053,0.25038275122642517,9.598681449890137,-57.02096939086914,-69.30426788330078, 18.63186264038086
499,1469714508,0.96553266,0.024795124,-0.08086503,0.24615572,3.7367045879364014,1.1405060291290283,10.08168888092041,-60.166229248046875,-72.03350830078125, 16.264925003051758
500,1469731175,0.96426034,0.018848136,-0.093294874,0.24727124,3.282724380493164,0.46935781836509705,9.279224395751953,-59.47209548950195,-72.15643310546875, 15.066703796386719
501,1469747842,0.96297276,0.013632851,-0.10497108,0.24794924,2.528733968734741,0.030105233192443848,9.15514087677002,-53.61861801147461,-68.46197509765625, 11.650757789611816
502,1469764509,0.9617352,0.009710366,-0.11509642,0.24844371,2.6207447052001953,-1.0255533456802368,8.564534187316895,-42.55034255981445,-60.38325119018555, 9.287222862243652
503,1469781176,0.9604905,0.0069057117,-0.12398278,0.24907537,3.4608078002929688,-1.0585558414459229,8.572747230529785,-32.914737701416016,-54.10078811645508, 9.262152671813965
504,1469797843,0.95916855,0.003073258,-0.1329633,0.24961388,4.003476619720459,-0.3735118806362152,9.103775024414062,-39.922874450683594,-53.028106689453125, 9.678366661071777
505,1469814510,0.9577181,-0.0017287604,-0.1423482,0.25002068,4.0417938232421875,-0.3139841556549072,9.30867862701416,-47.125675201416016,-54.14311981201172, 9.943238258361816
506,1469831177,0.9562103,-0.0044508493,-0.15150656,0.25037548,4.162457466125488,-0.4080662727355957,10.622541427612305,-33.09176254272461,-56.27655792236328, 7.682652473449707
507,1469847844,0.9546854,-0.0033971514,-0.16076048,0.2504406,4.2119951248168945,-1.1507530212402344,9.22057056427002,-8.73664379119873,-63.41407775878906, 1.8854931592941284
508,1469864511,0.95332986,0.0025968268,-0.16889024,0.25026345,4.603654384613037,-0.9880008101463318,8.92534065246582,25.368547439575195,-64.34432983398438, -5.43681001663208
509,1469881178,0.9520261,0.010545727,-0.1761739,0.24999626,4.698677062988281,-0.4649761915206909,9.200140953063965,39.53578186035156,-62.09394073486328, -8.411476135253906
510,1469897845,0.9506189,0.017706089,-0.18355602,0.24963512,5.020898342132568,-0.8965314030647278,9.37126636505127,34.092185974121094,-61.507843017578125, -7.9041032791137695
511,1469914512,0.9490711,0.022025203,-0.19160065,0.2491352,4.828887462615967,-0.9844693541526794,9.092843055725098,14.229762077331543,-61.14844512939453, -4.912405014038086
512,1469931179,0.9474386,0.023357706,-0.20042583,0.24828243,4.458197116851807,-0.928685188293457,9.404440879821777,-7.040936470031738,-61.288116455078125, -3.018651247024536
513,1469947846,0.94559944,0.022624988,-0.21020485,0.247273,4.289909839630127,-0.9436855912208557,9.129159927368164,-22.298742294311523,-64.29341125488281, -0.6812320947647095
514,1469964513,0.9435592,0.020765977,-0.22071746,0.24606635,4.745287895202637,-1.0177092552185059,9.233192443847656,-31.114694595336914,-67.4806137084961, 0.13163262605667114
515,1469981180,0.94116855,0.01788191,-0.23218133,0.24489588,5.129504680633545,-1.224941372871399,9.213515281677246,-39.260986328125,-72.45308685302734, 2.6644442081451416
516,1469997847,0.9385074,0.014780675,-0.24417129,0.24365194,5.3439555168151855,-0.9821394681930542,9.235215187072754,-41.62567138671875,-75.9403076171875, 3.071779727935791
517,1470014514,0.93568814,0.010696022,-0.2564743,0.2420626,5.338009834289551,-0.9904050230979919,8.99240779876709,-49.05463409423828,-76.6216049194336, 2.8075990676879883
518,1470031181,0.93284994,0.0072250864,-0.26812774,0.2405127,5.484573841094971,-1.057405948638916,8.923565864562988,-43.94989776611328,-73.50472259521484, 1.9813663959503174
519,1470047848,0.92984086,0.0052497033,-0.27982625,0.23888439,5.307880401611328,-0.7954358458518982,8.012737274169922,-34.56406021118164,-76.59729766845703, -0.9774690270423889
520,1470064515,0.92697585,0.0039940737,-0.29069218,0.23706122,6.237731456756592,-0.9368534684181213,8.429389953613281,-28.97894287109375,-72.1946029663086, -3.86476993560791
521,1470081182,0.9241761,0.003875496,-0.30087999,0.23527661,6.419689178466797,-0.5696818828582764,8.376838684082031,-20.554576873779297,-69.59870910644531, -6.006200790405273
522,1470097849,0.92143553,0.0042428584,-0.31077644,0.23314495,6.3638105392456055,-0.6023575663566589,8.46280288696289,-17.726293563842773,-68.42425537109375, -9.311767578125
523,1470114516,0.91882175,0.0047433134,-0.32027644,0.2305801,6.608409404754639,-0.46549805998802185,8.473332405090332,-17.189624786376953,-65.87567138671875, -12.548280715942383
524,1470131183,0.9162681,0.0057566413,-0.3292373,0.22808452,7.235356330871582,-0.4360905885696411,7.979167938232422,-12.96094036102295,-63.156497955322266, -13.346237182617188
525,1470147850,0.91375405,0.0059873187,-0.338093,0.22519119,8.193564414978027,-0.11110109090805054,8.329577445983887,-18.64453125,-61.19351577758789, -14.137333869934082
526,1470164517,0.91119635,0.005436914,-0.34701094,0.2219796,8.957843780517578,-0.483656108379364,9.148248672485352,-24.40800666809082,-60.4859504699707, -14.236517906188965
527,1470181184,0.90860337,0.0042759096,-0.35593256,0.21848077,8.738425254821777,-1.0109645128250122,9.685419082641602,-28.942333221435547,-59.67193603515625, -14.509176254272461
528,1470197851,0.90660137,0.003866567,-0.36262545,0.21578248,9.627802848815918,-2.436814308166504,10.923078536987305,-18.97027015686035,-45.41716003417969, -12.289316177368164
529,1470214518,0.9037765,0.003460994,-0.37124413,0.21296494,7.4469685554504395,-1.9199517965316772,5.080267906188965,-22.077085494995117,-59.49602508544922, -11.766838073730469
530,1470231185,0.90014815,0.0038527548,-0.38140616,0.21035185,8.44801139831543,-2.629916191101074,6.450601100921631,-18.826879501342773,-72.2874526977539, -11.309093475341797
531,1470247852,0.895762,0.005206231,-0.3924461,0.20873289,9.470850944519043,-2.780191421508789,4.935570240020752,-11.497928619384766,-81.0649185180664, -6.557223796844482
532,1470264519,0.89126223,0.006251358,-0.40342698,0.20702505,9.424674034118652,-2.6650447845458984,7.336337566375732,-13.5186767578125,-80.54170227050781, -6.105417728424072
533,1470281186,0.88796574,0.009492544,-0.41156432,0.20504087,11.844504356384277,-3.5792236328125,10.494491577148438,3.1841604709625244,-62.913124084472656, -15.726879119873047
534,1470297853,0.8875639,0.011315918,-0.4131638,0.20346561,5.410027503967285,-2.48764967918396,18.200342178344727,4.721700668334961,-12.790653228759766, -13.739656448364258
535,1470314520,0.88780576,0.010375485,-0.41353026,0.20170785,7.203005790710449,-3.2309608459472656,12.101690292358398,-11.00944709777832,0.27567607164382935, -8.021774291992188
536,1470331187,0.8890662,0.011334083,-0.4114791,0.20029482,8.24773120880127,-3.8474295139312744,7.982000350952148,4.848176956176758,15.253593444824219, -12.917974472045898
537,1470347854,0.8910424,0.015176815,-0.40702668,0.20035599,8.502063751220703,-2.4977803230285645,8.420195579528809,29.917987823486328,28.084760665893555, -13.263994216918945
538,1470364521,0.89363664,0.01887635,-0.40101567,0.2006089,8.08242416381836,-1.993155837059021,10.957178115844727,31.664997100830078,39.56528091430664, -12.719196319580078
539,1470381188,0.89673716,0.020147683,-0.3939351,0.20067815,8.111407279968262,-1.8069117069244385,10.805901527404785,17.64037322998047,50.81724548339844, -8.006958961486816
540,1470397855,0.9006297,0.020160947,-0.38485232,0.20086937,7.938368797302246,-1.950681447982788,9.973099708557129,12.859457969665527,67.02357482910156, -5.230724334716797
541,1470414522,0.9052377,0.019373156,-0.37367752,0.20133197,7.659200191497803,-1.7227996587753296,9.898191452026367,11.40443229675293,82.98747253417969, -2.720750570297241
542,1470431189,0.910063,0.018797634,-0.3610648,0.20264353,7.820444107055664,-2.203209400177002,9.455344200134277,16.86635398864746,92.2893295288086, 1.5154672861099243
543,1470447856,0.9149673,0.019240538,-0.34706143,0.20497061,8.200220108032227,-2.0311098098754883,8.09946346282959,27.692729949951172,99.88444519042969, 5.0371527671813965
544,1470464523,0.9199345,0.020229481,-0.33152172,0.20833814,8.033074378967285,-1.8093501329421997,8.288952827453613,35.776206970214844,109.07232666015625, 9.974583625793457
545,1470481190,0.9247396,0.02118781,-0.3152586,0.21217914,7.591039180755615,-0.733413577079773,8.477956771850586,37.729984283447266,113.39342498779297, 13.159775733947754
546,1470497857,0.9293911,0.02138793,-0.29841614,0.216155,7.316425323486328,-0.8202142715454102,8.140401840209961,34.063507080078125,117.87455749511719, 15.790419578552246
547,1470514524,0.9339576,0.021383839,-0.28052852,0.22038534,6.9690046310424805,-0.5725672245025635,8.275867462158203,34.84386444091797,124.72937774658203, 17.796628952026367
548,1470531191,0.93835014,0.020754986,-0.26194477,0.22461843,6.828670978546143,-0.6783491969108582,8.404655456542969,31.914325714111328,129.8202362060547, 19.171358108520508
549,1470547858,0.942604,0.019433254,-0.24266496,0.22854735,6.805722713470459,-0.4682004749774933,8.709190368652344,27.99041748046875,135.09945678710938, 18.563133239746094
550,1470564525,0.9467103,0.017075887,-0.22293414,0.23183672,6.356698036193848,-0.1597108542919159,8.939274787902832,20.935617446899414,139.33291625976562, 16.309457778930664
551,1470581192,0.9505534,0.014212288,-0.20280454,0.23476934,5.922314167022705,-0.2904621362686157,8.852774620056152,17.752687454223633,142.30343627929688, 15.129985809326172
552,1470597859,0.9538806,0.009288862,-0.18396334,0.23702991,6.054926872253418,-0.2916668951511383,6.9920854568481445,1.3186999559402466,136.43492126464844, 14.56510066986084
553,1470614526,0.95670503,0.0045826165,-0.16586234,0.23913291,6.101171016693115,-0.6521589159965515,5.454447269439697,1.366719126701355,130.60752868652344, 14.123502731323242
554,1470631193,0.9590924,0.00064475776,-0.14894618,0.24074195,5.389071941375732,0.4458925724029541,5.0729570388793945,3.9270095825195312,121.07386016845703, 10.755699157714844
555,1470647860,0.96127146,-0.003185112,-0.13257012,0.24160336,4.580389022827148,1.2740485668182373,6.363602638244629,2.9665687084198,117.15095520019531, 6.05573844909668
556,1470664527,0.9633018,-0.0050235786,-0.11545744,0.24226888,3.8088903427124023,0.48920926451683044,8.113008499145508,17.146541595458984,118.60368347167969, 3.2047910690307617
557,1470681194,0.96509093,-0.0047970857,-0.09800664,0.24284008,3.463679313659668,0.007232733070850372,7.97841739654541,31.288185119628906,117.22771453857422, 1.34328293800354
558,1470697861,0.9664893,-0.0041678697,-0.08126942,0.24346806,3.5357351303100586,-0.6156999468803406,7.687378883361816,32.78546905517578,111.56687927246094, 2.0584049224853516
559,1470714528,0.9673681,-0.0050016884,-0.06662212,0.24440795,3.9170992374420166,0.08752003312110901,7.754725456237793,19.726816177368164,99.84407806396484, 5.751273155212402
560,1470731195,0.9679377,-0.0054285293,-0.05303055,0.24546911,3.894789218902588,-0.7593615651130676,6.428477764129639,20.699779510498047,92.015625, 6.844242572784424
561,1470747862,0.9683995,-0.0019513748,-0.03839992,0.24642244,1.8189715147018433,0.6403623819351196,8.691122055053711,48.399532318115234,92.33499145507812, 4.915214538574219
562,1470764529,0.968682,0.00005030595,-0.024593884,0.2470841,1.130414366722107,1.0280201435089111,9.252432823181152,37.08868408203125,89.3031005859375, 3.631936550140381
563,1470781196,0.9688517,0.0010918396,-0.010599187,0.24741237,1.0819309949874878,0.8372881412506104,9.160956382751465,30.945146560668945,92.16773986816406, 1.7465945482254028
564,1470797863,0.9689453,-0.00029339475,0.0026150646,0.24726118,0.49314963817596436,1.522830605506897,9.352218627929688,13.407812118530273,91.08602905273438, -1.1495451927185059
565,1470814530,0.96892583,-0.0035259183,0.014745037,0.24688686,0.9509333372116089,0.844572901725769,8.4828519821167,-0.7556971907615662,86.99922180175781, -2.496690034866333
566,1470831197,0.9688139,-0.0070732045,0.026090588,0.24631077,0.6593008637428284,1.176428198814392,7.625827789306641,-4.174803256988525,82.32447052001953, -3.740222215652466
567,1470847864,0.9686592,-0.010063396,0.037129454,0.2453967,0.18596172332763672,1.2758468389511108,7.8365960121154785,-0.9379450678825378,79.36290740966797, -5.843718528747559
568,1470864531,0.96839345,-0.013112398,0.04776923,0.24445932,-0.09395401179790497,0.9487190246582031,7.885922431945801,-2.018707275390625,76.83145904541016, -5.867031574249268
569,1470881198,0.9680457,-0.015231805,0.05803273,0.24349095,-0.39418351650238037,0.5091243386268616,6.8914995193481445,3.5310142040252686,72.78955841064453, -5.671552658081055
570,1470897865,0.9676606,-0.015498278,0.06775905,0.24249066,-0.840369462966919,-0.2978244423866272,6.6481523513793945,14.968658447265625,66.12393951416016, -5.148326396942139
571,1470914532,0.9673892,-0.01312367,0.07674404,0.24103141,-0.886877715587616,-0.17037974298000336,6.233506202697754,31.534440994262695,56.773948669433594, -7.248874664306641
572,1470931199,0.9671841,-0.009377632,0.08482501,0.23931497,-0.984447717666626,-0.38832607865333557,6.4691901206970215,39.30188751220703,48.4659423828125, -8.435967445373535
573,1470947866,0.96701837,-0.004900287,0.091705084,0.23757458,-1.3058964014053345,-0.395440012216568,6.1936845779418945,42.210811614990234,39.24500274658203, -8.322484016418457
574,1470964533,0.9668822,-0.0008447003,0.09669981,0.23619343,-1.9141615629196167,-0.7703508138656616,5.561092853546143,36.10748291015625,27.354778289794922, -6.31914758682251
575,1470981200,0.96679133,0.002810144,0.09945552,0.23540492,-1.8399925231933594,-0.7229811549186707,4.778336048126221,29.42486572265625,13.067756652832031, -2.735241413116455
576,1470997867,0.96676075,0.0056268913,0.100051075,0.23522788,-2.408980369567871,-0.547294557094574,4.88327693939209,19.949317932128906,0.01661626063287258, 0.7037931084632874
577,1471014534,0.9669234,0.0073492425,0.09592558,0.23622775,-2.2004752159118652,-0.8998991847038269,0.7818276882171631,4.233351707458496,-29.705848693847656, 7.648791790008545
578,1471031201,0.9674102,0.011889945,0.084402986,0.2384379,2.738323926925659,-2.9325928688049316,-6.024946689605713,10.154129981994629,-83.64384460449219, 17.411741256713867
579,1471047868,0.96806264,0.01859175,0.070568785,0.23985328,3.8500890731811523,1.8012282848358154,9.825764656066895,21.21562385559082,-102.71260070800781, 13.315216064453125
580,1471064535,0.9683928,0.021114366,0.055991035,0.24214646,2.0793070793151855,0.3230348229408264,9.247583389282227,-8.223517417907715,-100.45108795166016, 17.74997901916504
581,1471081202,0.9684806,0.027759682,0.041305844,0.2440671,2.888500690460205,-0.040986791253089905,6.753630638122559,19.23226547241211,-107.96542358398438, 17.27617835998535
582,1471097869,0.9683061,0.03552092,0.02630546,0.24582393,2.1765964031219482,-0.259839802980423,6.932136535644531,26.2382869720459,-111.86473083496094, 17.00400733947754
583,1471114536,0.9679307,0.04376461,0.011626122,0.2471032,1.6639246940612793,0.27134862542152405,7.687760829925537,30.13875389099121,-110.60387420654297, 14.172096252441406
584,1471131203,0.9674712,0.050330903,-0.0021910255,0.24791434,1.2445367574691772,0.47894421219825745,9.946612358093262,20.508106231689453,-102.13849639892578, 10.80697250366211
585,1471147870,0.96674514,0.056547627,-0.014637801,0.24898192,1.7222687005996704,-0.5778458714485168,8.50661563873291,20.620439529418945,-92.33916473388672, 12.491334915161133
586,1471164537,0.96601397,0.06267468,-0.025651079,0.24946119,1.6922928094863892,0.6760113835334778,8.278368949890137,22.438085556030273,-82.87974548339844, 8.045395851135254
587,1471181204,0.96524614,0.067837365,-0.03543073,0.24988568,2.1987979412078857,0.6676310300827026,8.517596244812012,18.15721321105957,-73.05913543701172, 7.379415988922119
588,1471197871,0.96440566,0.07218447,-0.044737082,0.25041887,2.8768362998962402,1.3952322006225586,8.964847564697266,13.620845794677734,-68.4782485961914, 8.196955680847168
589,1471214538,0.9633482,0.07688624,-0.05353265,0.2513633,3.265350818634033,1.7136964797973633,9.597593307495117,17.083433151245117,-65.55393981933594, 10.935157775878906
590,1471231205,0.9623904,0.077197805,-0.06416026,0.25244567,3.784329414367676,1.290575385093689,10.331199645996094,-15.168996810913086,-69.9809341430664, 14.253864288330078
591,1471247872,0.9613096,0.07522051,-0.075487085,0.25402248,3.4114456176757812,1.6814002990722656,10.103137969970703,-31.24226951599121,-70.41190338134766, 19.128135681152344
592,1471264539,0.96023846,0.07162658,-0.086884275,0.2554662,2.8962128162384033,1.2287229299545288,8.967300415039062,-42.127113342285156,-68.10891723632812, 19.11749839782715
593,1471281206,0.95910907,0.06788446,-0.0976166,0.25685143,3.0165934562683105,0.9919129610061646,8.812098503112793,-41.94295883178711,-63.519004821777344, 18.610149383544922
594,1471297873,0.9578915,0.06392398,-0.10791498,0.25828746,3.455732583999634,0.4895920157432556,9.0943021774292,-42.53963851928711,-60.30425262451172, 19.0583553314209
595,1471314540,0.95653343,0.05991906,-0.11778407,0.2599631,3.952605962753296,0.863836407661438,9.828640937805176,-41.821800231933594,-57.39155960083008, 20.749189376831055
596,1471331207,0.9551156,0.054248787,-0.1286893,0.261248,3.9488556385040283,1.1984760761260986,8.824075698852539,-54.917057037353516,-61.433223724365234, 20.07514762878418
597,1471347874,0.95366883,0.048773266,-0.13973045,0.26193973,3.6274402141571045,1.4211714267730713,9.401521682739258,-54.40053176879883,-62.91617965698242, 16.12952423095703
598,1471364541,0.95216584,0.04441186,-0.15032145,0.26231897,3.8958771228790283,0.7103246450424194,9.570220947265625,-46.575443267822266,-62.13029098510742, 12.97567081451416
599,1471381208,0.9505834,0.041632146,-0.1605321,0.26246476,4.280450820922852,0.12663500010967255,9.713404655456543,-35.75846862792969,-62.64697265625, 9.845378875732422
600,1471397875,0.9488902,0.039646007,-0.17087759,0.2623675,4.634605407714844,-0.23594066500663757,9.335843086242676,-31.04775619506836,-65.15155029296875, 7.639270305633545
601,1471414542,0.94710284,0.038047377,-0.18159007,0.26186582,4.572028636932373,-0.19997142255306244,8.541036605834961,-29.629074096679688,-68.462158203125, 4.824023246765137
602,1471431209,0.94533974,0.036971655,-0.1920551,0.2609232,4.324365139007568,-0.18465948104858398,8.857815742492676,-26.334457397460938,-67.87391662597656, 1.201981544494629
603,1471447876,0.9436097,0.037011523,-0.20186393,0.25977352,3.9901669025421143,-0.42900052666664124,8.540483474731445,-18.1890811920166,-65.6213150024414, -1.8355002403259277
604,1471464543,0.94186765,0.037653383,-0.21157497,0.25827068,4.236283302307129,-0.6870667934417725,8.106558799743652,-14.595378875732422,-66.17479705810547, -4.959903240203857
605,1471481210,0.93991506,0.037685785,-0.22228147,0.25637984,4.546797275543213,-0.15135183930397034,8.433198928833008,-20.81780242919922,-71.94969177246094, -5.9488606452941895
606,1471497877,0.93751794,0.036839627,-0.23442486,0.25445628,5.470778942108154,-0.9437483549118042,8.870903968811035,-28.966747283935547,-80.37922668457031, -3.6521573066711426
607,1471514544,0.9348696,0.03579156,-0.24683169,0.2526106,5.7094011306762695,-0.34431469440460205,9.430349349975586,-30.534534454345703,-82.11019134521484, -2.3077030181884766
608,1471531211,0.9320822,0.034488056,-0.25931597,0.25057653,5.831686019897461,-0.5182878971099854,9.245229721069336,-32.600032806396484,-82.45018768310547, -2.814849615097046
609,1471547878,0.92928255,0.03392385,-0.2709679,0.24871634,5.862157344818115,-0.35389354825019836,8.738625526428223,-26.114952087402344,-78.37430572509766, -3.1817755699157715
610,1471564545,0.92647153,0.033905808,-0.282189,0.24671887,6.172563552856445,0.2019844800233841,8.076828956604004,-22.148284912109375,-76.61206817626953, -5.1528143882751465
611,1471581212,0.92364055,0.03393335,-0.29326874,0.24439776,6.325376987457275,0.3092501759529114,8.49392032623291,-22.253204345703125,-75.9029541015625, -7.292558193206787
612,1471597879,0.9208254,0.034473166,-0.30384487,0.2420136,6.687715530395508,0.42331087589263916,8.376416206359863,-18.300596237182617,-73.55169677734375, -8.8639554977417
613,1471614546,0.9179725,0.035400454,-0.3142963,0.2393561,7.412585735321045,0.2672188878059387,8.169873237609863,-16.220020294189453,-73.55194091796875, -11.363779067993164
614,1471631213,0.9150721,0.03703586,-0.32453066,0.23654109,7.6844024658203125,0.28417307138442993,8.236136436462402,-11.738615036010742,-73.48582458496094, -13.855059623718262
615,1471647880,0.9121281,0.039002527,-0.33461076,0.23353133,8.18172550201416,0.22375649213790894,9.21210765838623,-9.844846725463867,-73.19828033447266, -15.78159236907959
616,1471664547,0.9091906,0.041165926,-0.34430045,0.23051059,8.445669174194336,0.0007834956049919128,9.612594604492188,-8.029017448425293,-71.05591583251953, -16.411470413208008
617,1471681214,0.90631825,0.043310925,-0.35334983,0.2277178,8.363860130310059,-0.3939020335674286,8.975569725036621,-6.625270843505859,-66.81138610839844, -15.223673820495605
618,1471697881,0.9034641,0.044741213,-0.3621403,0.22495651,9.087301254272461,-0.41277405619621277,8.702332496643066,-10.610928535461426,-64.03074645996094, -13.3897705078125
619,1471714548,0.9005517,0.04542874,-0.37086463,0.22226673,8.906179428100586,-0.4278920590877533,8.740073204040527,-14.935554504394531,-62.593807220458984, -11.020209312438965
620,1471731215,0.89804965,0.042404346,-0.3790855,0.21909542,9.70983600616455,-0.9743544459342957,11.377157211303711,-38.51243209838867,-52.912559509277344, -5.310067176818848
621,1471747882,0.895849,0.036297597,-0.38661158,0.21602912,9.60448932647705,-2.4569735527038574,8.490242004394531,-56.316375732421875,-43.18402862548828, 2.728550434112549
622,1471764549,0.89291483,0.030761622,-0.39617553,0.21166416,9.584640502929688,-2.6483757495880127,5.807088375091553,-59.07613754272461,-58.862030029296875, -5.17104959487915
623,1471781216,0.8896254,0.028656304,-0.40595543,0.20723432,10.960859298706055,-4.160150051116943,4.920973777770996,-38.40645980834961,-66.14923858642578, -14.334324836730957
624,1471797883,0.88593036,0.031080514,-0.41499743,0.2047898,11.249883651733398,-4.5526227951049805,2.691624402999878,-3.9958302974700928,-68.80184936523438, -14.40251636505127
625,1471814550,0.8824746,0.03631919,-0.422587,0.20332175,12.286882400512695,-3.347945213317871,4.2892985343933105,17.97486686706543,-62.981529235839844, -17.137285232543945
626,1471831217,0.88060373,0.047937546,-0.42446175,0.20511365,10.793432235717773,-4.560946464538574,14.953575134277344,73.7799301147461,-31.76725196838379, -19.550067901611328
627,1471847884,0.880545,0.051267445,-0.4240937,0.20532085,5.780052661895752,-0.46507006883621216,17.337186813354492,21.555757522583008,-1.7855926752090454, -8.287694931030273
628,1471864551,0.8814118,0.04607991,-0.42436683,0.20224448,8.99259090423584,-2.123655080795288,9.714762687683105,-40.835655212402344,7.790555000305176, -4.417129993438721
629,1471881218,0.88301885,0.044986133,-0.42170408,0.20104738,10.05229377746582,-4.689910888671875,7.48537540435791,-6.68964147567749,22.61836051940918, -6.93326997756958
630,1471897885,0.88516015,0.048233926,-0.41563484,0.20350146,9.483747482299805,-2.7323861122131348,10.384723663330078,34.838836669921875,39.97602844238281, 0.8359748721122742
631,1471914552,0.88830566,0.049745962,-0.40743315,0.20600228,7.879195690155029,0.48306336998939514,12.830317497253418,27.07533073425293,58.24275207519531, 3.9523983001708984
632,1471931219,0.892275,0.045499135,-0.3987829,0.20675491,8.000260353088379,-0.28150781989097595,12.661745071411133,-12.665188789367676,70.7973403930664, 8.08480453491211
633,1471947886,0.89673847,0.04198713,-0.38798997,0.20871347,8.104342460632324,-1.154465913772583,10.721603393554688,-1.9744055271148682,84.58428955078125, 12.09345531463623
634,1471964553,0.90163904,0.04062451,-0.37466598,0.21218388,8.14959716796875,-0.637145459651947,9.567885398864746,18.814830780029297,98.68006134033203, 14.316065788269043
635,1471981220,0.90659314,0.039998308,-0.35993865,0.21664083,7.985992908477783,-1.0560120344161987,8.955544471740723,27.949892044067383,106.70475006103516, 18.058420181274414
636,1471997887,0.91157115,0.04034834,-0.34371054,0.22197591,7.604829788208008,-0.5534132719039917,8.601605415344238,38.43723678588867,114.89972686767578, 20.655569076538086
637,1472014554,0.9166363,0.03962136,-0.32661662,0.22700162,7.322685241699219,0.01887398771941662,8.637772560119629,32.25163269042969,122.08570861816406, 20.880680084228516
638,1472031221,0.92179877,0.03838679,-0.30837545,0.23177157,7.221775531768799,0.29425424337387085,8.291516304016113,30.233379364013672,130.25570678710938, 19.935348510742188
639,1472047888,0.92701775,0.036205273,-0.28933495,0.23582338,6.59099006652832,0.88755863904953,8.512216567993164,23.955394744873047,136.76417541503906, 17.081933975219727
640,1472064555,0.93219954,0.03317047,-0.26946968,0.23935322,6.140749931335449,0.3339962363243103,8.897825241088867,18.806415557861328,143.2021484375, 15.299582481384277
641,1472081222,0.93724895,0.029737718,-0.24876894,0.2424756,5.881312370300293,0.22995229065418243,9.422532081604004,16.895322799682617,148.87326049804688, 13.445990562438965
642,1472097889,0.9421261,0.025400586,-0.22727573,0.24515095,5.753367900848389,-0.41746821999549866,9.69393539428711,11.647830963134766,155.1016845703125, 12.226625442504883
643,1472114556,0.94664997,0.020195479,-0.20516321,0.24769782,5.621495723724365,-0.5857270359992981,9.559229850769043,6.928386211395264,160.00355529785156, 13.231694221496582
644,1472131223,0.95069,0.0145177515,-0.18258286,0.25028306,5.512378692626953,-0.40934035181999207,8.743782043457031,4.771694660186768,163.18203735351562, 14.903078079223633
645,1472147890,0.95422876,0.009042568,-0.15943275,0.25287738,5.1997833251953125,0.2880302369594574,7.647119045257568,7.138556003570557,165.9425048828125, 15.510388374328613
646,1472164557,0.9571905,0.0033471466,-0.13617492,0.25540525,4.854443550109863,-0.11974922567605972,6.630944728851318,5.836193084716797,166.4136505126953, 16.301921844482422
647,1472181224,0.9596429,-0.00120065,-0.112224564,0.2578565,4.3009538650512695,1.0871473550796509,7.100794315338135,14.54463005065918,168.4998321533203, 15.591606140136719
648,1472197891,0.9615563,-0.0061786417,-0.08827796,0.259958,3.7808151245117188,1.059249758720398,7.746204376220703,11.412060737609863,168.84361267089844, 14.560500144958496
649,1472214558,0.9630691,-0.010039443,-0.06407626,0.2613262,3.5284786224365234,0.553852379322052,8.616922378540039,18.779233932495117,168.33717346191406, 9.743169784545898
650,1472231225,0.96406305,-0.013072107,-0.040205378,0.26228848,3.643200397491455,-0.1027032881975174,7.117939472198486,23.446683883666992,164.4734344482422, 7.580721378326416
651,1472247892,0.96457195,-0.015879683,-0.017046055,0.26278967,3.4485325813293457,0.011214621365070343,6.377893924713135,23.48588752746582,159.2791290283203, 5.263077735900879
652,1472264559,0.96462035,-0.020278126,0.0038560005,0.26283357,2.46854829788208,0.5424456000328064,5.564145565032959,8.752805709838867,147.200439453125, 2.9944119453430176
653,1472281226,0.9643469,-0.025634455,0.022743896,0.26241353,1.6435531377792358,0.6770280003547668,6.148503303527832,-1.2770040035247803,135.6614990234375, 0.17572090029716492
654,1472297893,0.96374875,-0.03220174,0.039687052,0.26187155,1.067076563835144,0.565133810043335,5.553483486175537,-12.858853340148926,125.0340576171875, -0.5852954983711243
655,1472314560,0.96296376,-0.03802651,0.055824585,0.26103342,0.49351009726524353,-0.045803241431713104,6.36375617980957,-9.353416442871094,118.4823226928711, -2.196833372116089
656,1472331227,0.961969,-0.043160804,0.07095252,0.26022774,-0.04299665987491608,-0.6490973830223083,6.693871021270752,-6.660153388977051,110.63451385498047, -1.6056784391403198
657,1472347894,0.96093845,-0.046625134,0.0848444,0.25927752,-0.07136538624763489,-1.0774861574172974,5.58409309387207,2.2389931678771973,99.5322494506836, -2.0467822551727295
658,1472364561,0.960008,-0.047604974,0.097356595,0.2581473,-0.7501857280731201,-1.1599278450012207,4.996510028839111,16.34151840209961,85.98762512207031, -2.4090418815612793
659,1472381228,0.9592899,-0.046738405,0.10792205,0.25677064,-0.9185933470726013,-0.813969612121582,4.535844326019287,25.317079544067383,69.79344177246094, -3.8104233741760254
660,1472397895,0.9587318,-0.044513397,0.11665141,0.2554301,-1.4315752983093262,-0.5781926512718201,4.844667434692383,31.06607437133789,55.147640228271484, -3.4397952556610107
661,1472414562,0.9582604,-0.042762056,0.12276129,0.2546335,-1.7070057392120361,-0.5902050733566284,4.573028087615967,22.93866729736328,38.46639633178711, -1.194174885749817
662,1472431229,0.9579931,-0.040903844,0.12617308,0.25427675,-1.9400790929794312,-0.8712681531906128,4.158228397369385,18.612201690673828,20.189117431640625, 0.6456913948059082
663,1472447896,0.95802206,-0.037839215,0.1269802,0.25424019,-1.7906190156936646,-1.0790698528289795,3.344862222671509,21.818296432495117,0.5621932744979858, 2.5514962673187256
664,1472464563,0.95825297,-0.034394164,0.12580806,0.25444242,-2.3619468212127686,-0.17967738211154938,4.31412410736084,20.717432022094727,-13.393678665161133, 3.593552589416504
665,1472481230,0.9586368,-0.03041137,0.123438664,0.254664,-2.559539318084717,0.3869069218635559,5.461477279663086,22.187341690063477,-22.3771915435791, 3.633667469024658
666,1472497897,0.95917255,-0.025252134,0.12029584,0.25471464,-2.846081256866455,0.9680381417274475,6.084688186645508,28.761089324951172,-29.64568519592285, 3.071423292160034
667,1472514564,0.9597992,-0.020112947,0.11534489,0.2551014,-2.630035161972046,-0.3637504279613495,5.644207954406738,25.194263458251953,-41.68783187866211, 4.781552791595459
668,1472531231,0.9605858,-0.017126359,0.10386683,0.25728074,1.6613688468933105,-0.8425604701042175,-0.05015615373849869,-1.8549033403396606,-81.37862396240234, 13.728768348693848
669,1472547898,0.9615068,-0.012181814,0.089625224,0.25946873,5.935216903686523,1.658905029296875,8.71889591217041,6.204562664031982,-103.18221282958984, 14.632259368896484
670,1472564565,0.96217376,-0.007402632,0.07407333,0.26206884,2.5919065475463867,0.5513363480567932,9.189208030700684,2.4862916469573975,-111.36217498779297, 17.57721519470215
671,1472581232,0.9627769,-0.0010050663,0.0577633,0.26405185,2.27724289894104,1.2012206315994263,7.771616458892822,12.13433837890625,-119.19807434082031, 14.393111228942871
672,1472597899,0.9632722,0.0046618166,0.040444627,0.26542345,1.2447919845581055,0.8006258010864258,7.19003963470459,5.697352409362793,-124.47747039794922, 10.23691463470459
673,1472614566,0.96341157,0.010273155,0.023906764,0.26676086,0.36748260259628296,-0.9730187058448792,8.368362426757812,6.7676591873168945,-119.0949478149414, 10.614880561828613
674,1472631233,0.9631878,0.017371599,0.009142982,0.26811212,1.2278468608856201,-2.1063232421875,7.750090599060059,19.90620994567871,-110.00776672363281, 11.502309799194336
675,1472647900,0.9627138,0.02508696,-0.0038306531,0.26932958,1.080170750617981,-1.318165898323059,8.596152305603027,27.352479934692383,-99.28184509277344, 10.911696434020996
676,1472664567,0.9622267,0.031816315,-0.015372655,0.26994726,1.73548424243927,0.30861929059028625,7.881152629852295,23.47903823852539,-88.07962799072266, 6.750917911529541
677,1472681234,0.96177816,0.037064776,-0.025955666,0.2700658,2.111600637435913,0.7245256900787354,8.317874908447266,15.399303436279297,-79.08439636230469, 3.319769859313965
678,1472697901,0.9614033,0.04062065,-0.035828333,0.26975954,2.221224546432495,0.9252188205718994,8.685087203979492,5.4254374504089355,-71.33108520507812, 0.48838531970977783
679,1472714568,0.96096915,0.042650398,-0.04516762,0.26959088,2.2732467651367188,0.05206982046365738,9.517199516296387,-3.6296043395996094,-64.9437255859375, 1.7340376377105713
680,1472731235,0.9602882,0.04671783,-0.053392023,0.26983982,2.056863784790039,-0.40252652764320374,9.108369827270508,12.105299949645996,-61.30303955078125, 3.9904820919036865
681,1472747902,0.95942754,0.05358511,-0.060641002,0.2700929,3.105140209197998,1.344024658203125,9.983525276184082,32.46902847290039,-60.12002944946289, 3.01412034034729
682,1472764569,0.95849174,0.058649406,-0.068855,0.27039403,3.1351232528686523,-0.6476345062255859,10.0842866897583,18.821619033813477,-63.143646240234375, 4.564067363739014
683,1472781236,0.9574832,0.063029975,-0.07663305,0.2708892,2.7328569889068604,0.37027227878570557,8.964452743530273,15.261198997497559,-58.94763946533203, 6.12908935546875
684,1472797903,0.9564841,0.06586046,-0.08398424,0.2715647,2.8827321529388428,0.5264042019844055,8.5883207321167,5.945402145385742,-53.16374969482422, 7.928025245666504
685,1472814570,0.9554804,0.06646636,-0.09159092,0.27248976,3.0270748138427734,1.0060861110687256,9.52830696105957,-9.013093948364258,-50.575439453125, 10.978367805480957
686,1472831237,0.9543723,0.06581339,-0.10024472,0.27348357,3.7849924564361572,1.0565273761749268,9.908143997192383,-19.154706954956055,-55.12705612182617, 12.904280662536621
687,1472847904,0.9531857,0.06479014,-0.109585114,0.27428183,3.861238479614258,1.7555338144302368,9.794590950012207,-22.978885650634766,-59.07134246826172, 12.333046913146973
688,1472864571,0.95190537,0.06459241,-0.11900769,0.27484807,3.9013137817382812,2.0802114009857178,9.024391174316406,-17.869359970092773,-61.33450698852539, 10.402270317077637
689,1472881238,0.95056456,0.064859495,-0.12846321,0.2751681,3.6934995651245117,1.9523138999938965,9.303229331970215,-15.080571174621582,-62.580467224121094, 8.54190444946289
690,1472897905,0.9491623,0.065350324,-0.13816826,0.27519056,3.6663942337036133,1.2993818521499634,8.535178184509277,-14.343682289123535,-64.81940460205078, 6.623618125915527
