PacketCounter,SampleTimeFine,Quat_W,Quat_X,Quat_Y,Quat_Z,Acc_X,Acc_Y,Acc_Z,Gyr_X,Gyr_Y,Gyr_Z 
2,848695983,0.91204333,0.09879926,-0.21244198,0.3365773,4.929279327392578,0.4583761692047119,9.527288436889648,16.951656341552734,-45.23693084716797, 6.386292457580566
3,848712650,0.90948784,0.10538004,-0.2189778,0.33730668,4.99685525894165,0.4883674681186676,8.93502140045166,21.13578987121582,-49.70405197143555, 6.840129852294922
4,848729317,0.9066614,0.1118042,-0.22652973,0.33786026,5.113645076751709,0.7908207178115845,9.256195068359375,20.512178421020508,-51.95746612548828, 7.805487155914307
5,848745984,0.9037512,0.118904606,-0.2333767,0.33857217,5.1249237060546875,0.9134604334831238,9.44681453704834,23.41912841796875,-55.39463806152344, 9.646501541137695
6,848762651,0.9010425,0.12500188,-0.23958418,0.33925852,5.188754558563232,1.0507477521896362,9.570450782775879,17.76827049255371,-56.42914962768555, 11.186339378356934
7,848779318,0.89845717,0.13076688,-0.24549682,0.3397147,4.9577131271362305,1.3758995532989502,9.97887134552002,15.84695053100586,-59.20599365234375, 10.419739723205566
8,848795985,0.8960843,0.1365076,-0.25065082,0.33996004,5.22892951965332,1.7406328916549683,8.894018173217773,15.658217430114746,-61.98863220214844, 9.669878959655762
9,848812652,0.8933475,0.14298192,-0.25648823,0.34014755,6.185795307159424,1.2443939447402954,9.921942710876465,16.35675811767578,-66.55880737304688, 11.317681312561035
10,848829319,0.8901276,0.14997134,-0.26303765,0.34057766,5.659772872924805,1.0512386560440063,9.341913223266602,21.577518463134766,-70.80030822753906, 12.026212692260742
11,848845986,0.8865996,0.15663259,-0.27008998,0.3412609,5.87117862701416,0.8995625972747803,9.287312507629395,21.985076904296875,-73.6306381225586, 13.785826683044434
12,848862653,0.8829833,0.16269574,-0.2771375,0.34214818,5.7766547203063965,0.5963665246963501,9.685983657836914,21.418222427368164,-72.02291870117188, 14.68517017364502
13,848879320,0.87947863,0.16755636,-0.28434554,0.34291404,6.213133811950684,1.2907685041427612,9.814706802368164,16.218685150146484,-71.67848205566406, 14.351648330688477
14,848895987,0.8758604,0.17188147,-0.29201597,0.34358734,6.887694358825684,1.038157343864441,9.024950981140137,12.126359939575195,-74.13111877441406, 15.57673168182373
15,848912654,0.8719081,0.17623763,-0.30030358,0.34428856,6.893535137176514,1.4299683570861816,9.299067497253418,11.892603874206543,-76.63199615478516, 16.533124923706055
16,848929321,0.8677195,0.18084997,-0.30878288,0.3449774,6.952784061431885,1.0576428174972534,8.874935150146484,13.060197830200195,-78.34577178955078, 16.854488372802734
17,848945988,0.8632053,0.18595396,-0.3172965,0.34586272,7.283865451812744,1.0895390510559082,9.322022438049316,17.140380859375,-79.49600982666016, 17.4035587310791
18,848962655,0.8589869,0.19011894,-0.325362,0.34660643,6.638914585113525,1.1736266613006592,9.330422401428223,12.303670883178711,-74.08777618408203, 17.036174774169922
19,848979322,0.8550434,0.19405514,-0.33256495,0.34733856,7.1017022132873535,0.8650192022323608,8.413843154907227,12.807538032531738,-68.8507308959961, 15.683857917785645
20,848995989,0.8509617,0.19914553,-0.3389873,0.34827155,7.386870384216309,1.0557022094726562,8.658507347106934,22.427162170410156,-66.643798828125, 13.156618118286133
21,849012656,0.8468667,0.20487976,-0.3446561,0.3493612,7.5509772300720215,1.3267345428466797,8.886212348937988,28.509180068969727,-63.41487121582031, 11.458303451538086
22,849029323,0.8428992,0.21089233,-0.34971204,0.35035267,7.761009216308594,2.1347689628601074,8.600156784057617,31.143264770507812,-60.42747497558594, 9.178393363952637
23,849045990,0.8389561,0.21705666,-0.35425133,0.3514903,7.887716770172119,1.8567839860916138,8.468610763549805,33.009681701660156,-57.34677505493164, 9.536149024963379
24,849062657,0.83516735,0.22707401,-0.3545629,0.35386214,8.472454071044922,3.0725107192993164,9.06998062133789,68.01759338378906,-39.84100341796875, 0.9349672198295593
25,849079324,0.830387,0.23832998,-0.3564597,0.3557987,7.6870341300964355,3.5935418605804443,6.380092144012451,71.07955169677734,-54.995941162109375, 1.3093650341033936
26,849095991,0.82465506,0.24917044,-0.3619669,0.35614356,8.584428787231445,4.32485294342041,3.67252779006958,56.60545349121094,-78.32295989990234, 2.5950489044189453
27,849112658,0.8189743,0.2590516,-0.3698748,0.35407102,9.68623161315918,4.959082126617432,3.5609755516052246,37.976959228515625,-90.78733825683594, -3.6109378337860107
28,849129325,0.81294215,0.2690844,-0.3783179,0.3515597,10.460866928100586,5.1164116859436035,6.720562934875488,35.93964385986328,-93.19775390625, -3.5669116973876953
29,849145992,0.8099382,0.27249336,-0.38700104,0.3463778,11.871742248535156,8.743855476379395,10.430261611938477,-14.699803352355957,-74.96028900146484, -7.2913055419921875
30,849162659,0.81002164,0.2707013,-0.3927418,0.3410862,8.106058120727539,5.032245635986328,15.10994815826416,-43.85725021362305,-39.24872589111328, -4.6929826736450195
31,849179326,0.8078108,0.277048,-0.39342576,0.34044483,9.274248123168945,3.6893420219421387,8.654109954833984,30.835134506225586,-31.90932846069336, -4.298084259033203
32,849195993,0.80715364,0.2813873,-0.39237848,0.33965194,9.283685684204102,4.625970363616943,8.113479614257812,20.754125595092773,-14.0662202835083, -6.892251968383789
33,849212660,0.8077175,0.2848277,-0.3896712,0.33855876,9.797369003295898,3.570533275604248,9.977225303649902,16.526931762695312,-0.1828877478837967, -12.128348350524902
34,849229327,0.8087657,0.29010445,-0.38391203,0.33815536,9.953635215759277,3.413316249847412,10.918476104736328,35.224510192871094,14.475789070129395, -20.7639217376709
35,849245994,0.81115305,0.29445633,-0.37604198,0.3375186,9.291154861450195,4.047732353210449,10.44041633605957,32.27874755859375,30.629846572875977, -27.453041076660156
36,849262661,0.81545645,0.2958629,-0.36699918,0.3358686,8.514138221740723,3.252453327178955,9.057394027709961,12.430622100830078,46.270694732666016, -32.5945930480957
37,849279328,0.8213815,0.29491478,-0.3568184,0.3332245,8.500738143920898,2.9790189266204834,8.474684715270996,-3.5661070346832275,59.9192008972168, -38.834720611572266
38,849295995,0.8287647,0.2912981,-0.3457922,0.32973123,8.471087455749512,2.114759683609009,8.589978218078613,-21.388492584228516,72.6826171875, -42.80609893798828
39,849312662,0.83641785,0.28742245,-0.33333033,0.3266262,8.51272201538086,1.6450798511505127,8.658462524414062,-18.724374771118164,82.95549774169922, -44.343017578125
40,849329329,0.84433955,0.2827379,-0.31978473,0.32386374,8.420052528381348,1.7485055923461914,8.411908149719238,-20.140413284301758,92.49581909179688, -44.188053131103516
41,849345996,0.8521346,0.277878,-0.30518848,0.32173076,7.911771297454834,1.3163628578186035,8.346442222595215,-16.736797332763672,100.27906799316406, -42.71283721923828
42,849362663,0.85956216,0.27304205,-0.28951344,0.32059833,7.556405067443848,1.3726913928985596,7.932580947875977,-10.926506042480469,108.049560546875, -38.91797637939453
43,849379330,0.8668523,0.26751152,-0.2728205,0.3202715,7.0289411544799805,1.5912076234817505,8.704827308654785,-10.541096687316895,117.29808044433594, -35.03279113769531
44,849395997,0.87388194,0.26167288,-0.2548007,0.32083422,6.605403900146484,2.2526299953460693,9.199920654296875,-6.947213649749756,127.32807159423828, -31.52477264404297
45,849412664,0.881001,0.25426075,-0.23587722,0.32179323,6.301563739776611,2.55791974067688,9.189294815063477,-13.64636516571045,137.3218536376953, -28.53944206237793
46,849429331,0.88822883,0.24487136,-0.21629277,0.32296297,6.1271586418151855,2.655261278152466,9.047903060913086,-23.873905181884766,146.50839233398438, -25.710100173950195
47,849445998,0.89545643,0.23368718,-0.19620894,0.32411462,5.996603965759277,3.0956945419311523,8.66258716583252,-33.67644119262695,153.8525390625, -24.23273277282715
48,849462665,0.90245134,0.22109547,-0.17567736,0.3253249,5.741417407989502,2.8695197105407715,7.99223518371582,-40.955997467041016,159.9684600830078, -22.36520004272461
49,849479332,0.90889055,0.2081475,-0.15467577,0.32660094,5.586002349853516,2.4750380516052246,7.2928643226623535,-41.276023864746094,163.6489715576172, -21.19920539855957
50,849495999,0.9146251,0.1954956,-0.13313082,0.32790065,5.748164653778076,2.5847480297088623,7.947282791137695,-37.24623107910156,166.2922821044922, -20.789501190185547
51,849512666,0.91950506,0.18347749,-0.111077756,0.32940575,5.469897747039795,2.345428943634033,8.137152671813965,-30.84531593322754,168.19729614257812, -19.039457321166992
52,849529333,0.9235757,0.17214859,-0.08884733,0.33087617,5.057320594787598,2.4446356296539307,7.574057102203369,-25.119516372680664,167.7164764404297, -18.376384735107422
53,849546000,0.92684114,0.16188002,-0.0665646,0.33215925,4.6598663330078125,2.070754051208496,7.070471286773682,-17.509111404418945,165.54347229003906, -18.602766036987305
54,849562667,0.9294433,0.1524859,-0.044319272,0.33304548,3.942539691925049,1.8514776229858398,7.016475200653076,-11.507976531982422,163.16497802734375, -20.137374877929688
55,849579334,0.9315699,0.14313568,-0.022492975,0.3334425,3.5385630130767822,2.3676040172576904,7.467195987701416,-11.846482276916504,160.2325439453125, -21.883852005004883
56,849596001,0.93355995,0.13146466,-0.002292635,0.33343327,3.4242289066314697,2.999159574508667,7.594080924987793,-30.4436092376709,155.16354370117188, -22.3221435546875
57,849612668,0.93539673,0.1181285,0.01644643,0.33287895,2.9067866802215576,2.8891332149505615,8.198183059692383,-44.524410247802734,149.5556640625, -24.228849411010742
58,849629335,0.93679476,0.10499767,0.033970438,0.33201975,2.257012128829956,2.044358015060425,7.603757858276367,-45.725013732910156,141.45773315429688, -24.270652770996094
59,849646002,0.9373679,0.09370861,0.051002942,0.33160052,1.356225848197937,0.44494375586509705,7.651688098907471,-34.52094268798828,134.91415405273438, -18.848739624023438
60,849662669,0.9370691,0.08604698,0.06805292,0.33146104,1.1442031860351562,0.9019242525100708,7.2411675453186035,-10.440397262573242,127.44963836669922, -13.844766616821289
61,849679336,0.9360979,0.08072362,0.084749475,0.33169553,0.4491863250732422,0.7303099036216736,6.894296646118164,4.14093542098999,120.58204650878906, -8.640491485595703
62,849696003,0.9347083,0.07789578,0.10049929,0.3318924,0.07686465978622437,1.4558204412460327,5.909372806549072,18.402542114257812,109.14317321777344, -5.9662628173828125
63,849712670,0.9331733,0.07652356,0.114703916,0.33192614,-0.5000782012939453,1.3772127628326416,5.590364933013916,24.395654678344727,95.98233032226562, -4.8737406730651855
64,849729337,0.9316758,0.075455226,0.12678951,0.3319805,-0.9660657048225403,1.2104140520095825,5.152549743652344,21.45587158203125,81.6875228881836, -3.483325481414795
65,849746004,0.93038666,0.07364819,0.13627598,0.33224353,-1.1869909763336182,1.2698016166687012,4.575883865356445,10.498563766479492,66.61312103271484, -1.9124412536621094
66,849762671,0.9294135,0.07066475,0.14292185,0.33282217,-1.760003685951233,1.0675877332687378,4.4897661209106445,-3.9948363304138184,50.93135070800781, -0.2687053084373474
67,849779338,0.92879754,0.06751471,0.14661735,0.33358714,-1.890733242034912,1.47792387008667,3.634563446044922,-12.167222023010254,32.07908248901367, 1.4043564796447754
68,849796005,0.92857337,0.06393209,0.14711103,0.33469814,-2.0091516971588135,1.368893027305603,2.947598695755005,-22.876537322998047,12.246773719787598, 3.7881336212158203
69,849812672,0.9286992,0.05976087,0.14467897,0.33617663,-2.1928367614746094,1.3704594373703003,2.9152886867523193,-33.96943664550781,-5.43549919128418, 6.045115947723389
70,849829339,0.9292903,0.056356248,0.139153,0.33746114,-1.814129114151001,3.230891704559326,0.9018966555595398,-36.300472259521484,-27.68320655822754, 5.7926177978515625
71,849846006,0.93052405,0.05881338,0.12925544,0.3375783,-0.6261470913887024,3.5552945137023926,-3.892193555831909,-8.451265335083008,-70.46142578125, 4.12970495223999
72,849862673,0.931472,0.06510098,0.116389774,0.33848995,4.293720245361328,1.2034248113632202,7.050878047943115,8.120987892150879,-97.92169189453125, 14.461387634277344
73,849879340,0.933143,0.067150116,0.10108546,0.33840334,1.7793521881103516,3.5734143257141113,12.112772941589355,-24.17006492614746,-104.07174682617188, 3.9942498207092285
74,849896007,0.9347425,0.068607,0.08355015,0.33848047,2.6612629890441895,-0.32446473836898804,8.61031436920166,-33.334716796875,-116.48617553710938, 5.778902530670166
75,849912674,0.9359471,0.07140912,0.065059096,0.3386313,0.9379886984825134,0.14780761301517487,7.91937780380249,-26.5390567779541,-125.1173324584961, 8.377534866333008
76,849929341,0.9370466,0.07383504,0.04674053,0.33809397,0.3789864778518677,1.003609538078308,7.585607528686523,-28.048654556274414,-123.27747344970703, 3.9563286304473877
77,849946008,0.93786186,0.07612339,0.029498322,0.33726898,0.49626725912094116,2.268928050994873,7.8743791580200195,-26.15070343017578,-116.02877044677734, 2.1945347785949707
78,849962675,0.9383603,0.07801772,0.013847736,0.33645466,0.7580099105834961,2.718899726867676,7.805450439453125,-24.918167114257812,-104.74820709228516, 2.1130125522613525
79,849979342,0.9385887,0.07923447,0.000019798035,0.33581725,0.8030060529708862,3.1009910106658936,8.492233276367188,-25.071563720703125,-91.26716613769531, 2.8698463439941406
80,849996009,0.93860716,0.079842955,-0.012318493,0.33539551,1.9046592712402344,2.2073733806610107,7.242269992828369,-25.592912673950195,-80.11995697021484, 3.9790894985198975
81,850012676,0.93827075,0.081498675,-0.023185996,0.33536297,2.1471245288848877,1.1299071311950684,7.9192423820495605,-15.296972274780273,-72.7524642944336, 6.437948703765869
82,850029343,0.9377942,0.08300292,-0.03312962,0.33549234,1.9479589462280273,1.772432804107666,9.140007972717285,-14.013204574584961,-66.270751953125, 7.31889009475708
83,850046010,0.9372089,0.084014244,-0.043210566,0.33572915,1.9437994956970215,0.8927154541015625,8.456585884094238,-17.44101333618164,-65.92947387695312, 8.474299430847168
84,850062677,0.9365275,0.08445981,-0.05355022,0.33602875,1.971389651298523,0.7253871560096741,9.479911804199219,-21.56160545349121,-66.24082946777344, 9.430458068847656
85,850079344,0.9359978,0.08327737,-0.06431429,0.3359118,2.0720667839050293,0.903289258480072,8.89932918548584,-33.198829650878906,-65.38557434082031, 7.257324695587158
86,850096011,0.9354727,0.08108433,-0.075208195,0.33564842,2.918534278869629,0.5732693076133728,9.312215805053711,-40.03279495239258,-63.95524215698242, 6.8481221199035645
87,850112678,0.9347733,0.081386715,-0.08576251,0.33499295,3.108795642852783,2.6467485427856445,9.997902870178223,-23.24649429321289,-67.77253723144531, 3.2561569213867188
88,850129345,0.9340326,0.081799105,-0.096595354,0.3340081,2.9359071254730225,2.588078737258911,9.931591987609863,-23.470582962036133,-69.9732666015625, 1.375229835510254
89,850146012,0.9331595,0.08278125,-0.10757988,0.3328477,3.082064390182495,2.199585437774658,8.962562561035156,-20.315977096557617,-72.42498779296875, 0.3187628388404846
90,850162679,0.9319824,0.08464669,-0.1182569,0.33205298,3.5041630268096924,1.0872950553894043,9.310423851013184,-13.5908842086792,-72.45840454101562, 2.5815727710723877
91,850179346,0.9313215,0.08734329,-0.12865762,0.3293308,3.772934675216675,0.8161459565162659,9.341704368591309,-4.676440238952637,-71.9486083984375, 4.070260047912598
92,850196013,0.9306503,0.09030469,-0.13804054,0.3266189,3.9538018703460693,1.0141851902008057,9.958667755126953,-0.31413179636001587,-66.00223541259766, 3.2363877296447754
93,850212680,0.92996895,0.09331152,-0.14590031,0.3242899,5.009136199951172,0.49886274337768555,9.583427429199219,3.999410390853882,-56.11430358886719, 4.462058067321777
94,850229347,0.92915493,0.0956199,-0.15327093,0.32254636,5.17987585067749,0.2673811614513397,10.283568382263184,1.2949838638305664,-51.14590072631836, 7.984750747680664
95,850246014,0.92809516,0.09859044,-0.16160086,0.32063165,4.86179256439209,0.2283264845609665,10.1521635055542,3.442178249359131,-59.086669921875, 6.629513263702393
96,850262681,0.92667073,0.10265655,-0.17073663,0.31873548,5.0252299308776855,0.026359520852565765,9.256732940673828,8.832548141479492,-67.0670166015625, 5.733757972717285
97,850279348,0.924914,0.10739516,-0.18020879,0.31705722,5.319265842437744,0.5113734006881714,9.750388145446777,12.46658992767334,-70.97879028320312, 5.452845096588135
98,850296015,0.9223714,0.11326008,-0.18995073,0.31673697,5.35495138168335,0.5672479271888733,10.003761291503906,16.64679718017578,-76.05245971679688, 3.7283599376678467
99,850312682,0.91953355,0.11962457,-0.1999886,0.31646866,5.659895896911621,1.011488437652588,10.121880531311035,19.511083602905273,-79.33853149414062, 4.257296085357666
100,850329349,0.91634667,0.12661615,-0.21010795,0.31643623,5.845344543457031,1.109226942062378,9.603826522827148,23.927614212036133,-81.48311614990234, 5.703498363494873
101,850346016,0.9128804,0.13467467,-0.2200821,0.31634793,5.901659965515137,1.4258099794387817,9.814815521240234,31.138710021972656,-83.31157684326172, 4.278445720672607
102,850362683,0.90897065,0.1437665,-0.23074293,0.31600845,5.9897050857543945,1.6510848999023438,9.108305931091309,36.157814025878906,-90.76942443847656, 2.7336647510528564
103,850379350,0.904719,0.15279111,-0.24195808,0.31558645,6.34999942779541,1.3633782863616943,10.017236709594727,34.72344207763672,-94.69717407226562, 3.6165215969085693
104,850396017,0.90020347,0.1614676,-0.25311005,0.3154318,6.225006580352783,0.7726255059242249,8.948580741882324,33.434688568115234,-93.72930145263672, 6.3532280921936035
105,850412684,0.89533186,0.17016517,-0.26401347,0.31578735,6.2187700271606445,0.7181069850921631,8.107352256774902,35.43917465209961,-92.30096435546875, 9.932917594909668
106,850429351,0.8903034,0.17853156,-0.27428612,0.31662866,6.075013637542725,1.42095947265625,8.839920997619629,35.88762283325195,-87.41252899169922, 13.084827423095703
107,850446018,0.8854421,0.18492527,-0.2847333,0.31736743,6.402411460876465,2.0656144618988037,8.974852561950684,23.057558059692383,-84.056640625, 16.01904296875
108,850462685,0.88058573,0.19002414,-0.29530397,0.31820625,6.71314811706543,1.1515408754348755,8.365926742553711,15.089898109436035,-81.91228485107422, 19.333005905151367
109,850479352,0.87554646,0.19541684,-0.3051896,0.3195153,6.791411399841309,1.2419657707214355,8.24367904663086,19.60356330871582,-78.2034912109375, 21.068889617919922
110,850496019,0.87071234,0.20029284,-0.31423303,0.32093695,6.939067840576172,1.2222821712493896,8.674428939819336,18.340707778930664,-71.46342468261719, 21.232990264892578
111,850512686,0.8659649,0.20469436,-0.32287827,0.32242015,7.607324123382568,1.4752267599105835,7.906918048858643,16.435279846191406,-67.83897399902344, 21.8708553314209
112,850529353,0.86110693,0.20932859,-0.33093026,0.32428664,8.038125038146973,0.793548583984375,7.521249771118164,20.164464950561523,-64.54825592041016, 23.035470962524414
113,850546020,0.8562189,0.2146192,-0.3383937,0.3260639,8.646334648132324,1.6224846839904785,7.899967670440674,25.25464630126953,-62.717933654785156, 20.183998107910156
114,850562687,0.8513717,0.2198561,-0.34550712,0.3278024,8.679744720458984,1.3919540643692017,8.163094520568848,25.586076736450195,-60.4989128112793, 19.45722770690918
115,850579354,0.8466503,0.2257049,-0.35160044,0.32957214,8.795488357543945,1.9550559520721436,8.570096969604492,31.378555297851562,-55.590362548828125, 16.333513259887695
116,850596021,0.8423761,0.23045668,-0.35727677,0.33112767,9.656278610229492,2.6908533573150635,9.484107971191406,24.733448028564453,-49.98973846435547, 16.079774856567383
117,850612688,0.83808744,0.23456027,-0.36322767,0.33265108,9.630035400390625,3.5843729972839355,8.273759841918945,20.285715103149414,-50.27454376220703, 17.98830795288086
118,850629355,0.83357096,0.2383735,-0.37000304,0.33381948,10.090832710266113,4.988531589508057,6.7245283126831055,16.144744873046875,-55.53510284423828, 18.59921646118164
119,850646022,0.8292389,0.24099302,-0.3779576,0.33381626,10.39091682434082,5.159786701202393,4.5685882568359375,3.177319049835205,-60.94429016113281, 16.58095359802246
120,850662689,0.82518953,0.24393412,-0.3855748,0.33300254,10.456149101257324,4.549588203430176,3.7704243659973145,3.048201084136963,-60.1904411315918, 10.076188087463379
121,850679356,0.82079816,0.24961615,-0.39179695,0.33238152,11.298924446105957,3.204437494277954,3.383774757385254,22.736705780029297,-58.92710876464844, 2.471653699874878
122,850696023,0.8195888,0.252113,-0.39502385,0.32965097,9.335652351379395,5.008540630340576,10.279501914978027,0.37123823165893555,-29.54904556274414, -13.221708297729492
123,850712690,0.8188608,0.2555044,-0.39689443,0.32658756,8.363530158996582,3.0590381622314453,9.448590278625488,6.658256530761719,-23.451391220092773, -20.798458099365234
124,850729357,0.8178617,0.2617357,-0.396684,0.3244049,9.802568435668945,3.984844207763672,6.732144832611084,30.182241439819336,-17.54498291015625, -26.57023048400879
125,850746024,0.8181114,0.26602426,-0.3960654,0.321025,9.552803993225098,4.761411666870117,6.599853515625,14.572469711303711,-9.696935653686523, -31.44095230102539
126,850762691,0.82013226,0.26826718,-0.39414367,0.3163335,9.655912399291992,3.9676871299743652,8.445470809936523,-0.9809847474098206,4.529163837432861, -39.41856384277344
127,850779358,0.822949,0.27126008,-0.389651,0.3120016,8.722881317138672,2.206631660461426,10.869145393371582,8.289785385131836,20.068199157714844, -45.82496643066406
128,850796025,0.82587916,0.27599382,-0.38237044,0.30910206,8.058341026306152,1.865341305732727,10.719690322875977,27.800718307495117,34.77680969238281, -47.842769622802734
129,850812692,0.8297888,0.279687,-0.37338078,0.3062883,8.088508605957031,2.7045719623565674,9.718165397644043,23.964017868041992,49.12360382080078, -49.980716705322266
130,850829359,0.8352147,0.28066868,-0.36314756,0.3029284,7.696201324462891,2.0516932010650635,9.62910270690918,6.830617904663086,64.53255462646484, -51.724281311035156
131,850846026,0.8409984,0.28128052,-0.35105553,0.3006043,7.503366947174072,1.516825556755066,9.62755012512207,10.540059089660645,78.63966369628906, -49.225868225097656
132,850862693,0.8474252,0.28062645,-0.33743453,0.2987595,7.199743747711182,1.700600028038025,9.332021713256836,6.3896589279174805,92.36328125, -47.75346755981445
133,850879360,0.8544349,0.27805927,-0.32265818,0.29751614,6.794497966766357,1.389892816543579,8.94251537322998,-2.0239181518554688,105.35294342041016, -43.29823684692383
134,850896027,0.8618437,0.27403805,-0.30670518,0.29674998,6.771477699279785,2.0467188358306885,8.789389610290527,-7.764870643615723,116.88214874267578, -40.408687591552734
135,850912694,0.86957043,0.26822564,-0.28971085,0.29659718,6.591065883636475,1.6154791116714478,8.86281681060791,-15.490593910217285,128.4124755859375, -35.65806579589844
136,850929361,0.87689745,0.2625898,-0.27132124,0.29746008,6.588578701019287,2.0609054565429688,8.989082336425781,-8.738656044006348,137.36863708496094, -31.762786865234375
137,850946028,0.88425505,0.25583485,-0.2519089,0.2986365,6.894604682922363,2.740478754043579,9.48391056060791,-12.793442726135254,146.3721466064453, -29.74532127380371
138,850962695,0.89140713,0.24810606,-0.2316107,0.3003221,6.721736907958984,2.436112880706787,9.795514106750488,-15.607651710510254,154.24801635742188, -26.138294219970703
139,850979362,0.8982359,0.23953252,-0.21069245,0.30233327,6.150638103485107,2.403780698776245,9.268465995788574,-18.370906829833984,159.79969787597656, -23.2369384765625
140,850996029,0.9047178,0.2301181,-0.18933609,0.3044397,5.922773838043213,2.585486888885498,8.309860229492188,-21.892343521118164,163.9011993408203, -21.473793029785156
141,851012696,0.9107178,0.22011246,-0.1676529,0.30665347,5.759128093719482,2.4658992290496826,7.869810104370117,-23.966360092163086,166.7607879638672, -19.587732315063477
142,851029363,0.9163252,0.20909631,-0.1459276,0.30875877,5.5449137687683105,2.613025188446045,7.993036270141602,-29.724225997924805,168.62242126464844, -18.385345458984375
143,851046030,0.92135423,0.19725268,-0.12453092,0.31094995,5.303188800811768,2.4252376556396484,7.319208145141602,-34.716888427734375,167.94834899902344, -15.360593795776367
144,851062697,0.9265821,0.18462844,-0.103763096,0.31079128,5.05668830871582,2.2962093353271484,7.343548774719238,-37.37192153930664,167.73452758789062, -13.273699760437012
145,851079364,0.9308576,0.17317627,-0.0829571,0.31085747,4.991995811462402,2.392923593521118,7.463311195373535,-29.697362899780273,164.65756225585938, -11.854784965515137
146,851096031,0.93437016,0.16217189,-0.06235921,0.31106937,4.415986061096191,2.125527858734131,7.908121109008789,-27.629497528076172,161.48330688476562, -11.463772773742676
147,851112698,0.937149,0.15211722,-0.04199956,0.31120503,4.1154465675354,2.342742919921875,8.068266868591309,-22.013099670410156,157.3590850830078, -11.219749450683594
148,851129365,0.93878096,0.14239603,-0.022007972,0.3129367,3.6336824893951416,2.408463954925537,8.095776557922363,-21.53569793701172,152.4374237060547, -10.22661304473877
149,851146032,0.94001263,0.13226937,-0.0028329676,0.31444085,2.968853235244751,2.866260051727295,8.649937629699707,-25.56180763244629,147.89767456054688, -10.009075164794922
150,851162699,0.940947,0.12173224,0.015410057,0.31553507,2.3099849224090576,2.6883208751678467,7.830474376678467,-29.997955322265625,142.50149536132812, -11.189979553222656
151,851179366,0.94149,0.11162083,0.03290377,0.31631416,1.9096616506576538,2.42266845703125,7.7098894119262695,-28.544801712036133,136.6114959716797, -11.73410415649414
152,851196033,0.94152164,0.10342944,0.049719382,0.31680825,1.4451498985290527,1.983380675315857,7.2322468757629395,-17.159425735473633,128.041015625, -11.53692626953125
153,851212700,0.94105685,0.09752285,0.06560639,0.31717083,0.6163853406906128,1.8499971628189087,6.655545711517334,-4.002743244171143,117.21435546875, -9.891069412231445
154,851229367,0.94020224,0.09378125,0.08062991,0.31737056,0.09104105085134506,2.1022934913635254,6.415813446044922,8.446486473083496,107.01980590820312, -8.558487892150879
155,851246034,0.93905896,0.09254377,0.09466993,0.31724063,-0.09926435351371765,1.8815364837646484,5.421295642852783,22.82920265197754,95.17194366455078, -8.05571174621582
156,851262701,0.9377666,0.09278039,0.10741798,0.316934,-0.6576654314994812,1.8819103240966797,5.429925441741943,29.71211814880371,83.6178970336914, -7.1122565269470215
157,851279368,0.93656063,0.093672864,0.11830994,0.31635797,-0.9744288325309753,2.0681755542755127,4.908730983734131,30.016298294067383,69.9786148071289, -7.384190082550049
158,851296035,0.935594,0.09448498,0.1271368,0.31555146,-1.2776134014129639,1.8238613605499268,4.700648784637451,25.00122833251953,56.489253997802734, -8.13680648803711
159,851312702,0.93496126,0.094874844,0.133575,0.31464908,-1.5107539892196655,1.6978886127471924,4.489467620849609,16.94346809387207,41.64900588989258, -8.298920631408691
160,851329369,0.9346855,0.09489861,0.1373045,0.3138547,-1.5220279693603516,1.6835315227508545,4.079281330108643,8.376852035522461,24.723684310913086, -6.942787170410156
161,851346036,0.9346688,0.09500126,0.13870929,0.31325558,-1.7721034288406372,1.4733922481536865,4.451262950897217,3.488009214401245,9.44882869720459, -4.6473493576049805
162,851362703,0.9348976,0.094964534,0.13804547,0.31287673,-1.882789969444275,1.854528784751892,4.922428131103516,-2.2423019409179688,-3.69046950340271, -2.525552988052368
163,851379370,0.9353886,0.09400181,0.1356339,0.31275484,-2.243290424346924,2.137599229812622,5.787816047668457,-12.391694068908691,-13.06871509552002, -1.159168004989624
164,851396037,0.9361235,0.092102095,0.13215788,0.31260934,-2.280721426010132,2.486299991607666,7.219547748565674,-20.86762046813965,-18.207067489624023, -2.0012664794921875
165,851412704,0.9369814,0.0891502,0.12816557,0.31255692,-2.342067241668701,2.9891843795776367,8.60035228729248,-28.93655776977539,-19.371673583984375, -2.2772860527038574
166,851429371,0.9379386,0.08575948,0.12335648,0.31257,-2.480349063873291,3.000119209289551,7.742105484008789,-33.67256546020508,-23.777843475341797, -1.9399816989898682
167,851446038,0.93905115,0.08147158,0.116141334,0.31314006,-1.8647739887237549,4.834062099456787,3.9358272552490234,-45.24520492553711,-37.22890853881836, 1.994338035583496
168,851462705,0.9402441,0.079985715,0.104042746,0.31419513,1.565073013305664,2.397233247756958,-1.6931889057159424,-38.30725860595703,-74.64823913574219, 9.927136421203613
169,851479372,0.9410197,0.08337941,0.08974466,0.31539786,4.81007194519043,-0.6151397228240967,9.795293807983398,-11.537103652954102,-98.94925689697266, 16.476747512817383
170,851496039,0.9425892,0.083192885,0.0726737,0.31515577,3.14888334274292,1.0382356643676758,10.60366439819336,-40.12295150756836,-110.08810424804688, 4.763378620147705
171,851512706,0.94395924,0.084091075,0.05385325,0.3145944,2.719111919403076,-0.7214802503585815,8.287371635437012,-36.54316711425781,-123.61680603027344, 4.663020610809326
172,851529373,0.94476926,0.086469844,0.035280697,0.31414863,0.21645668148994446,0.11183089017868042,8.590505599975586,-25.985483169555664,-124.7519760131836, 7.032414436340332
173,851546040,0.945325,0.08863457,0.017159605,0.31338492,0.22563710808753967,2.275916337966919,7.513961315155029,-26.08796501159668,-121.46627044677734, 5.2209014892578125
174,851562707,0.9455749,0.09004058,0.000384004,0.31269944,0.5575867295265198,3.075896739959717,8.489293098449707,-27.990318298339844,-110.99986267089844, 5.5064544677734375
175,851579374,0.945409,0.091862276,-0.014197682,0.3123487,0.8445438742637634,3.221029043197632,8.767468452453613,-20.39599609375,-97.41661834716797, 7.250076770782471
176,851596041,0.94494337,0.09447785,-0.026820287,0.3121486,1.3706824779510498,3.002896785736084,8.022311210632324,-10.911623001098633,-86.31645202636719, 7.58884334564209
177,851612708,0.9444564,0.09640454,-0.037982073,0.31187463,2.0746946334838867,2.6787109375,8.068629264831543,-12.33372974395752,-75.37397003173828, 6.362062931060791
178,851629375,0.94400424,0.09701905,-0.048041195,0.31166527,2.568774700164795,1.8402169942855835,8.3982515335083,-18.560163497924805,-65.29513549804688, 6.342071056365967
179,851646042,0.9434739,0.09680562,-0.057822242,0.31167725,2.242490530014038,1.0729693174362183,8.817662239074707,-23.229103088378906,-61.527244567871094, 8.050585746765137
180,851662709,0.9430119,0.09502038,-0.067961864,0.31157818,2.1390867233276367,0.79286789894104,9.25688362121582,-34.25776290893555,-60.498592376708984, 8.061330795288086
181,851679376,0.94245046,0.093187444,-0.07828587,0.3114078,2.1891021728515625,0.7449923157691956,8.438952445983887,-34.89019012451172,-61.672325134277344, 7.97196102142334
182,851696043,0.94193375,0.0902491,-0.08891825,0.31098166,2.655155897140503,1.6652510166168213,8.440328598022461,-42.84845733642578,-61.42945861816406, 7.028706073760986
183,851712710,0.9411231,0.08883928,-0.09977303,0.31054878,3.1275222301483154,1.2305964231491089,9.264728546142578,-33.26792526245117,-66.29073333740234, 6.846261501312256
184,851729377,0.9401702,0.08875751,-0.11075546,0.30973428,2.823042631149292,1.151661992073059,9.411781311035156,-25.120634078979492,-70.2472915649414, 3.867715358734131
185,851746044,0.9390649,0.08960269,-0.12177326,0.30870682,3.023142099380493,0.7832301259040833,9.562524795532227,-19.27096939086914,-72.69173431396484, 2.152822256088257
186,851762711,0.9377457,0.09116755,-0.13278106,0.3077193,3.3932178020477295,0.30875861644744873,9.024818420410156,-14.419371604919434,-74.30850982666016, 2.2695040702819824
187,851779378,0.93648094,0.0926737,-0.14354363,0.30628455,4.047445297241211,0.40648353099823,9.6449556350708,-13.234859466552734,-72.42534637451172, 3.3788211345672607
188,851796045,0.93501145,0.09441217,-0.15356778,0.30538002,4.551149368286133,0.6648821234703064,9.457938194274902,-10.373637199401855,-68.24593353271484, 3.8740177154541016
189,851812712,0.93335456,0.09670104,-0.1629664,0.304861,5.046421527862549,0.6930667161941528,9.765581130981445,-5.281264781951904,-65.3611068725586, 4.8861002922058105
190,851829379,0.9313595,0.100152515,-0.17209508,0.30483162,5.055691719055176,0.7872512340545654,10.172981262207031,2.9860453605651855,-66.18531036376953, 5.886575222015381
191,851846046,0.92909116,0.10420069,-0.18127988,0.3050729,5.193012237548828,1.0407100915908813,9.733068466186523,6.370617866516113,-68.07005310058594, 5.639286518096924
192,851862713,0.9264591,0.10939355,-0.19061142,0.30557144,5.262506484985352,1.0341821908950806,9.797432899475098,13.687512397766113,-71.6904067993164, 6.281280994415283
193,851879380,0.92354727,0.11508095,-0.2002104,0.30615765,5.250210285186768,0.937990128993988,10.314508438110352,16.071372985839844,-74.81322479248047, 6.057906627655029
194,851896047,0.9206543,0.12064424,-0.21015659,0.3060635,5.530123233795166,0.9928063154220581,10.190342903137207,15.547933578491211,-76.88278198242188, 6.067749500274658
195,851912714,0.9176733,0.12599136,-0.22025774,0.3057587,5.362456321716309,1.0114773511886597,9.51026725769043,13.634727478027344,-77.70925903320312, 5.358096599578857
196,851929381,0.91450244,0.13152339,-0.23046437,0.3054065,5.440457820892334,0.6365764141082764,9.412735939025879,14.682656288146973,-79.09671020507812, 5.2693772315979
197,851946048,0.91116685,0.13694225,-0.2408314,0.30499512,5.60069465637207,0.6481614112854004,9.310769081115723,13.718119621276855,-80.19416046142578, 5.556914329528809
198,851962715,0.9075751,0.14249097,-0.25128412,0.30472973,5.923882961273193,0.5370854139328003,9.082244873046875,14.864117622375488,-81.30653381347656, 6.863183975219727
199,851979382,0.90403247,0.14732483,-0.26138833,0.30446178,6.143886089324951,0.5758523941040039,9.017104148864746,11.114598274230957,-77.56076049804688, 7.620552062988281
200,851996049,0.9003606,0.15202649,-0.27137432,0.30429417,6.487401962280273,0.7179033756256104,8.409255027770996,10.884920120239258,-76.69111633300781, 8.616405487060547
201,852012716,0.8965427,0.1568517,-0.28106236,0.30432335,6.3490729331970215,0.6982107758522034,8.525344848632812,12.817008018493652,-75.16266632080078, 9.582300186157227
202,852029383,0.89260674,0.16198052,-0.29035193,0.304486,6.455763339996338,1.199745535850525,9.107081413269043,15.93465518951416,-73.4399642944336, 9.619819641113281
203,852046050,0.88892347,0.16608696,-0.29926458,0.30441937,6.499538421630859,1.1933233737945557,8.401885986328125,9.7200288772583,-68.7779541015625, 9.304161071777344
204,852062717,0.88500285,0.17075661,-0.30802068,0.3045248,6.798306941986084,1.3442833423614502,8.187747955322266,14.12324333190918,-69.31932067871094, 9.515423774719238
205,852079384,0.8809417,0.1755083,-0.31657106,0.30483022,6.856887340545654,1.0710246562957764,8.232619285583496,15.644123077392578,-68.32199096679688, 10.613520622253418
206,852096051,0.87683094,0.18057318,-0.324653,0.30522385,7.293691635131836,1.3729166984558105,8.674156188964844,18.788623809814453,-66.173095703125, 9.996659278869629
207,852112718,0.87263745,0.18612479,-0.3323416,0.30563137,8.00023078918457,1.3198906183242798,8.965249061584473,22.688758850097656,-65.03087615966797, 8.67954158782959
208,852129385,0.86814463,0.19243506,-0.33964187,0.30649188,8.590957641601562,0.9410861134529114,8.90758991241455,29.487085342407227,-64.43572235107422, 9.7875394821167
209,852146052,0.8632136,0.20077239,-0.3459986,0.30795744,9.104735374450684,1.744892954826355,8.604292869567871,45.5950813293457,-63.32272720336914, 8.311507225036621
210,852162719,0.8581454,0.2100829,-0.351531,0.3096413,8.669432640075684,1.8434102535247803,8.778218269348145,53.82425308227539,-60.52401351928711, 6.434744358062744
211,852179386,0.85322315,0.21937893,-0.35648036,0.31113523,8.646833419799805,2.436018228530884,9.10011100769043,54.312156677246094,-57.0171012878418, 4.189964771270752
212,852196053,0.8484079,0.22840863,-0.36111245,0.31246063,9.064751625061035,2.881282329559326,9.124923706054688,52.84346389770508,-54.64436721801758, 3.160806179046631
213,852212720,0.8439393,0.23940808,-0.36222455,0.31502986,9.976970672607422,3.714385747909546,10.150259017944336,74.42032623291016,-35.5938835144043, -0.724664568901062
214,852229387,0.83854365,0.25025406,-0.36541784,0.3173127,8.794517517089844,4.93354606628418,4.3822221755981445,69.80607604980469,-50.20037841796875, 3.470041036605835
215,852246054,0.83306074,0.25776425,-0.37219933,0.31786034,10.713301658630371,5.5704216957092285,2.4315621852874756,38.42742156982422,-66.71807098388672, 8.30077075958252
216,852262721,0.828337,0.26250383,-0.37990683,0.31720752,10.037884712219238,4.3939290046691895,4.052789688110352,15.981185913085938,-65.9317626953125, 8.594527244567871
217,852279388,0.82520014,0.2639223,-0.38738033,0.31516087,10.63141918182373,4.115746974945068,6.747642517089844,-9.006372451782227,-55.60675048828125, 5.519298553466797
218,852296055,0.8245542,0.2624079,-0.3917121,0.31275284,8.095837593078613,2.8987298011779785,14.576074600219727,-24.364748001098633,-25.43331527709961, 0.24623514711856842
219,852312722,0.82128006,0.2712286,-0.39111987,0.3145783,8.426055908203125,2.3981783390045166,11.143218994140625,61.0218620300293,-19.56039810180664, -6.779421806335449
220,852329389,0.81927305,0.27916372,-0.3881619,0.3165276,8.601302146911621,4.9222846031188965,9.310417175292969,59.152095794677734,-0.8720722794532776, -10.846476554870605
221,852346056,0.82004887,0.28129134,-0.38553065,0.31585005,8.517313957214355,4.958316326141357,9.814736366271973,13.337257385253906,12.162182807922363, -15.480077743530273
222,852362723,0.8232026,0.28005943,-0.38137195,0.31378284,8.732452392578125,2.9571545124053955,10.584407806396484,-10.603130340576172,31.510839462280273, -22.434844970703125
223,852379390,0.82660085,0.2808188,-0.3742405,0.3127556,8.349564552307129,1.7709108591079712,10.648907661437988,9.367834091186523,46.49094009399414, -28.009855270385742
224,852396057,0.8306169,0.28210554,-0.36457923,0.31236887,7.910589694976807,2.782212018966675,10.387969970703125,18.325668334960938,62.369598388671875, -31.971105575561523
225,852412724,0.83600336,0.2815868,-0.3533543,0.31136507,7.707491874694824,3.4190800189971924,9.927205085754395,7.204995155334473,77.23530578613281, -36.940673828125
226,852429391,0.84237295,0.27913484,-0.34111044,0.31005695,7.768493175506592,2.9178802967071533,8.76060962677002,-4.355109691619873,88.87505340576172, -38.0510368347168
227,852446058,0.8496483,0.2747297,-0.32777077,0.30852544,7.711101531982422,3.1815690994262695,8.786736488342285,-15.579863548278809,100.98577880859375, -38.8058967590332
228,852462725,0.85743517,0.26908997,-0.31317198,0.30711386,7.067519187927246,2.4470129013061523,9.053242683410645,-20.8106689453125,112.25894927978516, -38.79283142089844
229,852479392,0.86506426,0.2636245,-0.29711995,0.306408,6.607000350952148,2.1998040676116943,8.665067672729492,-14.872308731079102,121.33526611328125, -37.389163970947266
230,852496059,0.8725328,0.2580518,-0.2799228,0.3061686,6.39480447769165,2.4337286949157715,8.291045188903809,-11.819910049438477,128.82054138183594, -36.16291427612305
231,852512726,0.8797989,0.25254753,-0.26162577,0.30614695,6.228887557983398,2.883187770843506,8.359394073486328,-8.296464920043945,135.2298583984375, -36.53951644897461
232,852529393,0.88689876,0.24668798,-0.24221383,0.30641192,6.0730695724487305,2.9510324001312256,8.934229850769043,-7.291507720947266,142.89047241210938, -35.76856231689453
233,852546060,0.8939257,0.23993906,-0.221638,0.3069246,5.841649532318115,3.0663864612579346,9.82801628112793,-9.719076156616211,152.13116455078125, -34.61418151855469
234,852562727,0.9007955,0.23222797,-0.20020568,0.30749878,5.742663383483887,3.177302837371826,9.450145721435547,-13.459165573120117,159.24867248535156, -33.86841583251953
235,852579394,0.907679,0.22223549,-0.1783929,0.30806884,5.59389591217041,2.999189853668213,8.791786193847656,-26.81194496154785,166.43240356445312, -31.413040161132812
236,852596061,0.91429526,0.21048205,-0.15676853,0.30852082,5.757870197296143,2.9571290016174316,8.047464370727539,-37.9420051574707,168.50196838378906, -29.169143676757812
237,852612728,0.92037266,0.19793828,-0.13538648,0.30887717,5.41602897644043,2.483665943145752,7.313518524169922,-42.7633171081543,168.00369262695312, -27.46846580505371
238,852629395,0.92586493,0.18500224,-0.11436041,0.30898225,5.227969646453857,2.659623384475708,7.417942523956299,-44.5860595703125,166.4536590576172, -24.85968017578125
239,852646062,0.93067956,0.17200074,-0.09355605,0.30902863,4.873617172241211,2.0499181747436523,7.090476036071777,-44.54020309448242,164.86119079589844, -22.740537643432617
240,852662729,0.93462425,0.1604182,-0.07266047,0.30897284,4.503994941711426,2.0783817768096924,7.140052318572998,-34.26039505004883,162.01231384277344, -21.907440185546875
241,852679396,0.9376232,0.15022382,-0.051969837,0.30918396,3.8885490894317627,2.0053415298461914,7.417437553405762,-25.633949279785156,156.67079162597656, -22.30657196044922
242,852696063,0.9398844,0.14161214,-0.031897675,0.3091053,3.424309253692627,1.7958229780197144,6.794522285461426,-16.08637046813965,148.8512725830078, -22.572938919067383
243,852712730,0.94159657,0.13382035,-0.01279251,0.3087465,2.78448486328125,2.0233585834503174,7.2202959060668945,-12.368724822998047,140.5617218017578, -22.49128532409668
244,852729397,0.9429537,0.1260417,0.0050674565,0.30810082,2.0030789375305176,2.067920446395874,7.361640930175781,-14.630157470703125,132.25506591796875, -22.47995376586914
245,852746064,0.9439009,0.11841413,0.022026323,0.30748037,1.4211238622665405,1.5587610006332397,7.502434253692627,-15.210540771484375,126.18497467041016, -20.68548583984375
246,852762731,0.9441987,0.11274541,0.038333394,0.30709606,1.029651165008545,1.303215503692627,7.357323169708252,-3.366612672805786,118.14674377441406, -16.9724063873291
247,852779398,0.9439995,0.10829438,0.053883646,0.30697566,0.7800577282905579,1.6588594913482666,7.471542835235596,3.28067684173584,111.03564453125, -13.317296981811523
248,852796065,0.9433265,0.105457455,0.06857352,0.30710214,0.24455158412456512,1.618009328842163,6.7105841636657715,12.213435173034668,102.44158172607422, -9.490248680114746
249,852812732,0.94240046,0.103695646,0.08199683,0.30725482,-0.15853053331375122,2.081491231918335,5.733474254608154,16.68888282775879,92.11727905273438, -7.372626781463623
250,852829399,0.94133973,0.10343419,0.0940321,0.3071466,-0.8067843914031982,2.195753574371338,5.429944038391113,23.699533462524414,79.85384368896484, -6.953994274139404
251,852846066,0.94040674,0.10345352,0.104083076,0.30675608,-0.9995707869529724,2.48468017578125,4.741717338562012,21.390302658081055,66.12225341796875, -7.464244365692139
252,852862733,0.9397684,0.10277399,0.1119542,0.3061688,-1.2751425504684448,2.358654022216797,4.806399822235107,12.161134719848633,53.132144927978516, -8.315225601196289
253,852879400,0.9394109,0.101822644,0.11748951,0.30550915,-1.4894189834594727,2.2367773056030273,4.336287975311279,5.308138847351074,38.31897735595703, -7.934729099273682
254,852896067,0.9394067,0.100732446,0.12036892,0.30476132,-1.6167852878570557,2.1354336738586426,3.7657370567321777,-1.3794639110565186,21.075668334960938, -7.498682022094727
255,852912734,0.93981105,0.099173754,0.12042128,0.3040042,-1.9092607498168945,2.040451765060425,3.8372037410736084,-10.642095565795898,3.4130284786224365, -6.840412616729736
256,852929401,0.9405282,0.09717194,0.117919594,0.30341288,-1.960211157798767,1.7638258934020996,4.437814712524414,-19.227684020996094,-12.359918594360352, -5.038245677947998
257,852946068,0.9414036,0.09465364,0.113793634,0.3030694,-2.1951537132263184,1.7319324016571045,6.159328937530518,-26.27939224243164,-21.79571533203125, -3.0860865116119385
258,852962735,0.942456,0.09057596,0.10827556,0.30306625,-2.200958013534546,2.18485426902771,7.328188896179199,-39.65390396118164,-27.51910972595215, -1.5499907732009888
259,852979402,0.94362134,0.08534926,0.10154413,0.3032874,-1.7115141153335571,3.1335463523864746,7.636072635650635,-49.87299728393555,-32.97055435180664, -0.4187088906764984
260,852996069,0.94503886,0.08028414,0.0913795,0.30348983,-1.5269817113876343,3.359912395477295,1.1035988330841064,-56.164459228515625,-55.787837982177734, 1.0652492046356201
261,853012736,0.945845,0.08164587,0.07781223,0.30439544,4.056329250335693,-2.3291616439819336,3.9622092247009277,-21.7252254486084,-90.58586120605469, 12.834250450134277
262,853029403,0.9466168,0.08568738,0.062981196,0.3043154,3.7035393714904785,0.31825658679008484,10.841095924377441,-6.2672882080078125,-104.7635726928711, 8.6334228515625
263,853046070,0.9477094,0.08741085,0.045663472,0.30351514,3.220688819885254,-0.5737743973731995,9.331117630004883,-26.355411529541016,-116.47575378417969, 3.722231149673462
264,853062737,0.94850427,0.090025075,0.02751896,0.3024536,1.4892863035202026,0.24998097121715546,8.444995880126953,-21.917753219604492,-123.63968658447266, 3.408324718475342
265,853079404,0.9490063,0.092778794,0.009642612,0.30114177,0.47031110525131226,0.5181612968444824,7.451925277709961,-20.166072845458984,-122.21847534179688, 2.246976375579834
266,853096071,0.94920784,0.09593806,-0.006768396,0.29959106,0.5758508443832397,2.2291252613067627,8.155889511108398,-14.242714881896973,-113.61978912353516, 0.40955960750579834
267,853112738,0.9494095,0.09785304,-0.022036666,0.297592,1.0915647745132446,4.013387203216553,7.705076694488525,-20.057048797607422,-103.89238739013672, -3.2008562088012695
268,853129405,0.9494114,0.098471835,-0.03590993,0.29602683,0.7359689474105835,3.4577832221984863,8.133795738220215,-25.56129264831543,-91.8581314086914, -0.6835479736328125
269,853146072,0.9491135,0.099372156,-0.04787971,0.2949855,1.4915167093276978,2.58953857421875,8.03557300567627,-19.589889526367188,-79.73578643798828, 2.0118932723999023
270,853162739,0.9485528,0.10103644,-0.058300205,0.29434747,2.456968069076538,1.6760445833206177,7.719872951507568,-11.19095516204834,-70.9750747680664, 3.8829877376556396
271,853179406,0.9478487,0.1023915,-0.0681188,0.29403874,2.6134226322174072,1.273067593574524,7.909763336181641,-11.766586303710938,-66.20999908447266, 6.032957077026367
272,853196073,0.9470294,0.10296114,-0.07763876,0.29411998,2.3540124893188477,0.7477816939353943,9.430218696594238,-16.01042938232422,-62.415035247802734, 8.968120574951172
273,853212740,0.9461467,0.10329087,-0.08721916,0.29416022,2.639082431793213,0.20327620208263397,9.09699821472168,-17.63791275024414,-62.3749885559082, 9.00184154510498
274,853229407,0.9450763,0.10449974,-0.096552126,0.29425916,2.6538336277008057,0.7767650485038757,8.923263549804688,-11.200275421142578,-62.5969352722168, 9.055161476135254
275,853246074,0.9441271,0.10506816,-0.10578282,0.29393023,3.0005836486816406,2.044694662094116,9.78499698638916,-15.500495910644531,-60.85109329223633, 6.381384372711182
276,853262741,0.9430988,0.10615603,-0.114726275,0.29348525,3.2457077503204346,1.6845221519470215,8.932971000671387,-11.592270851135254,-60.16716384887695, 5.213912010192871
277,853279408,0.9419859,0.10704261,-0.12391655,0.2930004,3.2466673851013184,1.4502934217453003,9.399601936340332,-13.374319076538086,-61.43626022338867, 5.473106861114502
278,853296075,0.9405177,0.1089765,-0.13320261,0.29292932,3.564573287963867,1.2305827140808105,9.653390884399414,-6.965682506561279,-64.47254943847656, 5.724978446960449
279,853312742,0.9388705,0.11084994,-0.14294134,0.29292065,3.722222328186035,0.9521939754486084,9.535472869873047,-8.28129768371582,-67.44136047363281, 6.444241523742676
280,853329409,0.93701684,0.112731226,-0.15293932,0.2930884,4.12669563293457,1.1041958332061768,10.268805503845215,-8.545390129089355,-69.21109008789062, 7.992408275604248
281,853346076,0.9350726,0.114623435,-0.16270593,0.2933046,4.389263153076172,1.2237040996551514,10.048380851745605,-7.983943939208984,-67.80204772949219, 8.197755813598633
282,853362743,0.93294764,0.11722495,-0.17213218,0.2936625,4.630779266357422,1.4187451601028442,9.591588020324707,-2.6080424785614014,-67.15400695800781, 8.165824890136719
283,853379410,0.930657,0.120549455,-0.18092449,0.2942985,4.732371807098389,1.3585134744644165,9.420141220092773,3.46728777885437,-64.56951141357422, 8.426417350769043
284,853396077,0.9280242,0.12525308,-0.1896319,0.2951658,5.562600612640381,1.5594805479049683,9.632258415222168,12.9576997756958,-67.04472351074219, 8.8396577835083
285,853412744,0.925269,0.13007787,-0.19901176,0.295553,5.552440643310547,1.4435774087905884,10.576629638671875,13.647468566894531,-71.62714385986328, 10.176714897155762
286,853429411,0.9222283,0.13494995,-0.2089406,0.2960194,5.391786098480225,1.4799978733062744,10.482719421386719,13.203325271606445,-75.529052734375, 11.687673568725586
287,853446078,0.9190363,0.13934751,-0.21923786,0.29646158,5.160312175750732,1.1252033710479736,9.50974178314209,9.556876182556152,-77.14627075195312, 12.86850357055664
288,853462745,0.91569996,0.14421959,-0.22911453,0.29698706,5.057927131652832,0.8544628024101257,9.333076477050781,13.691040992736816,-75.6009292602539, 12.569245338439941
289,853479412,0.9121345,0.14984736,-0.23880085,0.2975409,5.427394866943359,1.084733486175537,9.095653533935547,19.131528854370117,-76.29446411132812, 11.830646514892578
290,853496079,0.9084004,0.15526688,-0.24859811,0.29816088,5.870858192443848,1.3684319257736206,9.113951683044434,17.89588737487793,-76.78218078613281, 13.041723251342773
291,853512746,0.90454113,0.16065146,-0.25841042,0.2986982,5.976412773132324,1.582964301109314,9.583667755126953,17.64743995666504,-77.11146545410156, 12.857438087463379
292,853529413,0.9007043,0.16570418,-0.26822418,0.29888052,5.913884162902832,1.591308832168579,9.149513244628906,14.929924964904785,-76.81085205078125, 11.198278427124023
293,853546080,0.896844,0.17055775,-0.27808505,0.29874685,5.952349662780762,1.3290690183639526,8.307950973510742,13.047977447509766,-77.11904907226562, 9.715564727783203
294,853562747,0.89329356,0.17412947,-0.28766948,0.29824808,6.464546203613281,2.0046610832214355,9.57215690612793,4.658276081085205,-72.6285171508789, 8.954965591430664
295,853579414,0.8898822,0.176214,-0.29738632,0.29769096,6.20074987411499,1.3018159866333008,8.129958152770996,-5.032076835632324,-70.22002410888672, 11.425472259521484
296,853596081,0.88618165,0.17896076,-0.30706117,0.29726887,6.514547348022461,1.1978495121002197,8.490455627441406,-0.2591925263404846,-71.76313781738281, 11.439708709716797
297,853612748,0.8821313,0.18285073,-0.31658298,0.29696047,7.060719013214111,1.0654704570770264,8.701689720153809,7.7033820152282715,-73.7896499633789, 10.243816375732422
298,853629415,0.877935,0.18771198,-0.32557344,0.29664147,7.55499792098999,1.0497456789016724,8.381510734558105,14.856471061706543,-72.9028549194336, 7.687604904174805
299,853646082,0.87328666,0.19441135,-0.3340648,0.29660672,7.752490520477295,0.7388242483139038,8.491813659667969,28.20612144470215,-74.29505920410156, 5.555896759033203
300,853662749,0.8681746,0.20312718,-0.34170997,0.29706365,7.690213680267334,0.9142606258392334,8.569475173950195,43.813682556152344,-73.75120544433594, 3.670426845550537
301,853679416,0.8628842,0.21259645,-0.34866676,0.29776716,7.711422920227051,1.304502248764038,8.772136688232422,50.56829071044922,-71.28438568115234, 2.756314516067505
302,853696083,0.8575701,0.22201107,-0.35502794,0.29873046,7.769289016723633,1.65569007396698,8.586627006530762,52.13856887817383,-67.35856628417969, 3.5961856842041016
303,853712750,0.8523712,0.23120028,-0.36076432,0.2997654,8.248834609985352,1.8884458541870117,7.914383411407471,52.1033935546875,-62.8642692565918, 3.375276565551758
304,853729417,0.8473876,0.24042065,-0.3653404,0.30109558,8.555624961853027,2.5608103275299072,8.660728454589844,55.07365417480469,-55.14929962158203, 2.7376015186309814
305,853746084,0.8424058,0.2508667,-0.36835384,0.30287594,8.216357231140137,3.954498767852783,7.909848213195801,66.57756805419922,-47.87650680541992, -0.29397672414779663
306,853762751,0.83697754,0.2611716,-0.3724316,0.30422488,8.758319854736328,5.726562976837158,5.762692451477051,63.19217300415039,-55.65839385986328, 0.3757028579711914
307,853779418,0.8320654,0.26734334,-0.37891632,0.3043309,9.77522087097168,5.659310340881348,4.5653228759765625,30.1900577545166,-61.748291015625, 7.132877826690674
308,853796085,0.8274956,0.27151018,-0.38636315,0.3037383,9.75026798248291,4.208502769470215,3.561159610748291,14.185967445373535,-63.381534576416016, 9.485325813293457
309,853812752,0.82272273,0.27661875,-0.39304027,0.30352762,9.978763580322266,3.791445016860962,4.9438323974609375,22.497346878051758,-60.70944595336914, 8.181721687316895
310,853829419,0.8215022,0.2735889,-0.40021035,0.30019182,10.203950881958008,5.1404924392700195,9.070984840393066,-39.794368743896484,-42.81380844116211, 6.049248695373535
311,853846086,0.8221095,0.26995137,-0.40344006,0.29748684,7.051336765289307,1.136671781539917,14.377367973327637,-36.819732666015625,-13.160181999206543, 0.16601599752902985
312,853862753,0.8199891,0.27559415,-0.40263024,0.29925722,8.99072265625,2.555732488632202,9.876072883605957,41.45614242553711,-8.835016250610352, -2.212759256362915
313,853879420,0.81927764,0.2800791,-0.40024775,0.3002361,8.7572021484375,6.0178914070129395,8.291366577148438,33.32851791381836,4.707038402557373, -9.342694282531738
314,853896087,0.8212739,0.28048626,-0.39648774,0.29938975,8.8422269821167,4.147830963134766,10.194279670715332,2.918032169342041,24.7502498626709, -16.553691864013672
315,853912754,0.82370335,0.28275713,-0.38966498,0.29953742,8.917640686035156,2.614548444747925,10.875218391418457,21.621030807495117,41.1880989074707, -22.77967643737793
316,853929421,0.82648057,0.28643784,-0.38028818,0.30044016,8.726211547851562,2.9875266551971436,10.932541847229004,36.244876861572266,55.0240592956543, -27.96349334716797
317,853946088,0.83084846,0.28766993,-0.369372,0.30083448,8.710630416870117,2.9041647911071777,10.170540809631348,21.077669143676758,71.864990234375, -30.760562896728516
318,853962755,0.83657694,0.2862796,-0.35739905,0.30074757,8.407768249511719,2.341033697128296,9.365378379821777,4.3961076736450195,85.73485565185547, -31.755727767944336
319,853979422,0.8428653,0.28415257,-0.34410167,0.30071518,8.078703880310059,2.483212947845459,8.760398864746094,1.9595392942428589,96.28837585449219, -33.41498565673828
320,853996089,0.84991086,0.28023124,-0.32982695,0.30056033,7.774256706237793,2.693103790283203,8.719148635864258,-8.164066314697266,107.16361236572266, -33.37146759033203
321,854012756,0.85763997,0.27417865,-0.314814,0.30028638,7.471102714538574,2.270597457885742,8.767236709594727,-20.66187286376953,117.15819549560547, -32.08445358276367
322,854029423,0.86551064,0.26682797,-0.29897434,0.30051398,7.181851387023926,1.8229233026504517,8.491079330444336,-25.76572036743164,125.92576599121094, -28.193300247192383
323,854046090,0.87312853,0.25944105,-0.28205734,0.3012986,6.985011100769043,2.175940752029419,8.434903144836426,-22.116153717041016,132.88902282714844, -26.291261672973633
324,854062757,0.88045573,0.25212246,-0.2640304,0.30252287,6.816430568695068,2.5284645557403564,8.418713569641113,-18.014402389526367,139.61729431152344, -25.18633270263672
325,854079424,0.8879279,0.24340567,-0.2452918,0.30359483,6.652862071990967,2.765862464904785,9.014873504638672,-25.516357421875,146.8300323486328, -25.124618530273438
326,854096091,0.8952779,0.2338255,-0.22591275,0.30457613,6.577696800231934,3.07588529586792,9.386869430541992,-29.39120864868164,152.18118286132812, -25.055089950561523
327,854112758,0.902614,0.22252859,-0.20621458,0.30536,6.2949113845825195,3.1104679107666016,9.883379936218262,-39.57417297363281,157.40444946289062, -24.102386474609375
328,854129425,0.9095238,0.21069473,-0.18619174,0.30611593,5.967426300048828,2.863176107406616,8.812835693359375,-41.61146545410156,159.9027862548828, -23.13175392150879
329,854146092,0.91592616,0.19874927,-0.1658217,0.30672696,5.7118635177612305,2.5936145782470703,7.857889175415039,-41.034576416015625,161.4765625, -23.350149154663086
330,854162759,0.9216769,0.18708086,-0.14516908,0.30730885,5.351299285888672,2.3791451454162598,7.772743225097656,-37.844810485839844,161.93777465820312, -22.883237838745117
331,854179426,0.92695516,0.17535083,-0.12448621,0.30742425,4.809146404266357,2.372035264968872,7.905569076538086,-37.068511962890625,161.9193572998047, -22.39855194091797
332,854196093,0.9316767,0.16354294,-0.1037935,0.30734256,4.437798500061035,2.5480830669403076,8.173912048339844,-37.165122985839844,161.46435546875, -22.383901596069336
333,854212760,0.935746,0.1526503,-0.08299315,0.30690312,4.264247894287109,2.350454092025757,8.142817497253418,-30.420608520507812,159.65420532226562, -22.966487884521484
334,854229427,0.93907785,0.14285783,-0.062580846,0.30628124,3.725550889968872,1.9753731489181519,7.647325038909912,-23.80287742614746,154.12020874023438, -23.34305191040039
335,854246094,0.9415892,0.13400686,-0.042699862,0.3059884,3.10398268699646,1.5632609128952026,7.6558518409729,-18.619070053100586,147.98927307128906, -22.463653564453125
336,854262761,0.94342977,0.12621798,-0.023457434,0.30571067,2.5527803897857666,1.1635555028915405,7.135955333709717,-12.457308769226074,141.4870147705078, -20.69479751586914
337,854279428,0.944741,0.1193389,-0.005159804,0.30528057,2.044177532196045,1.5788356065750122,7.344977855682373,-8.093006134033203,133.27426147460938, -19.910823822021484
338,854296095,0.9455556,0.113204636,0.012048002,0.30490026,1.4249032735824585,1.6478151082992554,7.357021808624268,-5.130664825439453,124.69377899169922, -17.687393188476562
339,854312762,0.94587165,0.108167976,0.028457422,0.3046584,0.6972151398658752,1.5309937000274658,7.600820064544678,0.7086678743362427,117.380615234375, -15.0372896194458
340,854329429,0.9457287,0.10447254,0.04416455,0.30451965,0.43245184421539307,1.2739049196243286,6.868743419647217,8.286063194274902,110.1870346069336, -12.62319278717041
341,854346096,0.94513583,0.10236819,0.059137557,0.30453542,-0.03635048493742943,1.0762920379638672,6.371224403381348,17.37853240966797,102.3455810546875, -9.668691635131836
342,854362763,0.9442658,0.1021664,0.0728047,0.30434173,-0.10765676200389862,1.5231174230575562,5.0857110023498535,27.298046112060547,89.84964752197266, -8.755693435668945
343,854379430,0.9434644,0.10180494,0.08427368,0.303988,-0.5269085168838501,2.2749481201171875,5.048603534698486,21.684415817260742,75.77478790283203, -8.47514820098877
344,854396097,0.9427876,0.10116733,0.09347951,0.30360922,-0.9543482065200806,2.131542205810547,5.364933490753174,15.062458992004395,61.582763671875, -7.476402759552002
345,854412764,0.9423763,0.09939164,0.10009558,0.30336303,-1.1923128366470337,2.1647510528564453,5.099253177642822,1.9889891147613525,47.086090087890625, -6.101953506469727
346,854429431,0.94231504,0.09657274,0.103709936,0.3032499,-1.5815147161483765,1.7687833309173584,3.970410108566284,-11.383581161499023,29.65165901184082, -4.638336181640625
347,854446098,0.9425592,0.09318429,0.10431381,0.3033442,-1.7244014739990234,1.8193174600601196,3.386030435562134,-21.719755172729492,11.230557441711426, -2.3363826274871826
348,854462765,0.94308263,0.08880291,0.102104776,0.3037828,-1.557702898979187,2.194939374923706,3.154606342315674,-34.4713020324707,-4.936727523803711, 0.40312638878822327
349,854479432,0.94409513,0.08359723,0.095591664,0.30423364,-1.9181243181228638,2.7922286987304688,-0.5455774664878845,-49.14881134033203,-31.484352111816406, 1.5074598789215088
350,854496099,0.9453185,0.081642136,0.08327401,0.30458647,0.15870630741119385,1.3785855770111084,-4.4197916984558105,-40.32163619995117,-76.20576477050781, 5.9014811515808105
351,854512766,0.9464517,0.08343165,0.06748041,0.30449095,4.796839714050293,1.0409094095230103,7.494184970855713,-23.012842178344727,-106.84605407714844, 7.270938873291016
352,854529433,0.94769293,0.08234431,0.051000983,0.30413228,1.901655673980713,-0.13633716106414795,11.347467422485352,-43.09165573120117,-105.33734893798828, 4.368221282958984
353,854546100,0.9484436,0.08519561,0.033586994,0.3034279,2.7804460525512695,-0.931373119354248,7.6973371505737305,-18.91722297668457,-119.6159439086914, 5.0482354164123535
354,854562767,0.9490916,0.08742274,0.0149362,0.30225715,1.051485300064087,1.5763300657272339,8.492730140686035,-25.335447311401367,-126.54859924316406, 2.792940855026245
355,854579434,0.9496668,0.0873326,-0.0037185627,0.30081925,0.3267405331134796,2.2218897342681885,8.234875679016113,-40.3931884765625,-121.88429260253906, 0.9645087122917175
356,854596101,0.94987583,0.08717502,-0.020690726,0.29951394,0.8326644897460938,1.752213478088379,7.557647705078125,-37.14825439453125,-110.68623352050781, 1.5843561887741089
357,854612768,0.94961274,0.08879173,-0.035188004,0.2985189,1.1825318336486816,1.9652467966079712,7.571596145629883,-20.147672653198242,-98.04898834228516, 2.8508262634277344
358,854629435,0.94920385,0.09041699,-0.047537237,0.29761934,1.3491896390914917,2.3195133209228516,8.257362365722656,-15.588584899902344,-84.00719451904297, 2.4660093784332275
359,854646102,0.94870394,0.09175229,-0.05826743,0.2968964,2.2641563415527344,1.8914837837219238,8.385360717773438,-14.078433990478516,-72.75988006591797, 2.8999195098876953
360,854662769,0.9480067,0.0938466,-0.06774012,0.29645863,2.10781192779541,1.8788028955459595,9.206942558288574,-6.335744380950928,-65.98079681396484, 4.069159030914307
361,854679436,0.94738424,0.094206505,-0.07721154,0.29601797,2.060106039047241,1.8426659107208252,8.996827125549316,-17.698549270629883,-62.39199447631836, 4.709599494934082
362,854696103,0.9466431,0.093446694,-0.08706897,0.29589462,1.8555700778961182,0.5693361759185791,8.299283027648926,-25.543590545654297,-62.47770690917969, 7.867574691772461
363,854712770,0.9459248,0.091961935,-0.096831314,0.2956234,2.107961654663086,1.1853541135787964,8.943034172058105,-30.155094146728516,-60.46418762207031, 7.232574462890625
364,854729437,0.9454633,0.08789702,-0.10675723,0.2949178,2.661785125732422,1.1131720542907715,8.958219528198242,-47.718074798583984,-56.38777160644531, 5.710468769073486
365,854746104,0.94478464,0.08430016,-0.116330095,0.29452145,3.1871213912963867,0.5613466501235962,9.415648460388184,-43.6002311706543,-55.0051383972168, 7.606523036956787
366,854762771,0.9439896,0.08149027,-0.12597685,0.29389286,3.288348913192749,1.78074049949646,9.69674015045166,-38.74342346191406,-57.291587829589844, 5.745941638946533
367,854779438,0.94302154,0.07997356,-0.13576607,0.29305667,3.5288286209106445,1.4033762216567993,10.292229652404785,-30.73941421508789,-61.084232330322266, 3.7169318199157715
368,854796105,0.9418591,0.07936041,-0.14616466,0.29195797,3.648289442062378,0.7380508780479431,8.773458480834961,-26.257173538208008,-67.17362213134766, 1.9053828716278076
369,854812772,0.9401457,0.07995291,-0.15622802,0.292107,4.08226203918457,0.104498952627182,10.166495323181152,-18.165956497192383,-67.62201690673828, 4.364217281341553
370,854829439,0.93819356,0.0817405,-0.16615842,0.2924087,4.118190765380859,0.3575994372367859,9.725020408630371,-9.864875793457031,-69.28826141357422, 4.783272743225098
371,854846106,0.9360899,0.083711304,-0.17607853,0.29278773,4.831908226013184,0.49848508834838867,10.158285140991211,-8.509712219238281,-69.6881332397461, 5.588603496551514
372,854862773,0.9337822,0.08590318,-0.18607414,0.29333922,5.385612964630127,0.17024004459381104,10.858413696289062,-6.9073567390441895,-70.72744750976562, 7.151533603668213
373,854879440,0.9312639,0.08877717,-0.19655934,0.29365057,5.637168884277344,0.24132564663887024,10.476058006286621,-3.696704149246216,-75.62469482421875, 5.673501014709473
374,854896107,0.92848164,0.0924073,-0.2072449,0.2939934,5.411116600036621,-0.08721742033958435,10.077125549316406,1.0038414001464844,-78.73487854003906, 5.846656322479248
375,854912774,0.92551386,0.096756496,-0.21767938,0.29441118,5.013553619384766,-0.1947740912437439,10.159506797790527,6.326944351196289,-78.78755950927734, 5.693848609924316
376,854929441,0.9226086,0.10108278,-0.22796191,0.29429415,5.15380334854126,-0.17585472762584686,9.96687126159668,7.584640979766846,-77.83087158203125, 5.788959980010986
377,854946108,0.91954297,0.10568841,-0.23798735,0.29433447,5.316958427429199,0.007714907638728619,9.866718292236328,10.253667831420898,-76.912109375, 6.48786735534668
378,854962775,0.9161952,0.110786244,-0.24799876,0.2946342,5.63065767288208,0.5087728500366211,9.720680236816406,14.03801441192627,-78.09910583496094, 7.877278804779053
379,854979442,0.91256887,0.11627126,-0.25809005,0.29510775,5.526209354400635,0.6331475973129272,9.645021438598633,16.828279495239258,-79.7335433959961, 8.936717987060547
380,854996109,0.9086716,0.122141495,-0.26850048,0.29547438,5.203392028808594,0.8953079581260681,9.290263175964355,18.627500534057617,-83.09525299072266, 8.38862419128418
381,855012776,0.904655,0.1277071,-0.27911744,0.295608,5.469038963317871,0.7052308320999146,8.806314468383789,15.972501754760742,-84.20154571533203, 7.915894031524658
382,855029443,0.9004021,0.13349494,-0.289748,0.29580617,5.9333953857421875,0.4029034972190857,8.363595008850098,17.660398483276367,-85.14845275878906, 8.3853178024292
383,855046110,0.8961811,0.13956884,-0.29947603,0.2961319,6.044098854064941,0.3813264071941376,9.480249404907227,21.49978256225586,-79.96663665771484, 7.709272384643555
384,855062777,0.8919385,0.14627431,-0.30860057,0.29633665,6.516028881072998,1.0344301462173462,8.927936553955078,26.401758193969727,-77.718994140625, 5.123910427093506
385,855079444,0.8878281,0.15276992,-0.31716242,0.29636222,6.976119518280029,0.9768239259719849,8.450897216796875,25.746652603149414,-73.75279235839844, 3.6394574642181396
386,855096111,0.8833962,0.15989079,-0.3256602,0.29663366,6.852237701416016,0.8316813707351685,7.862757682800293,30.56844711303711,-75.0828628540039, 4.367354869842529
387,855112778,0.8788716,0.16704497,-0.33378047,0.2971049,6.713839054107666,0.5587384700775146,8.376336097717285,32.09225845336914,-72.84776306152344, 5.278979301452637
388,855129445,0.87433255,0.17418557,-0.34121287,0.29795277,6.912738800048828,0.14801974594593048,8.174311637878418,34.30656051635742,-68.28191375732422, 6.821066856384277
389,855146112,0.86963695,0.18159603,-0.348149,0.29924396,7.69667911529541,0.3083820641040802,8.55884838104248,38.18988800048828,-65.7044677734375, 8.566540718078613
390,855162779,0.86481506,0.18954216,-0.35438862,0.30096123,8.077611923217773,0.1822810173034668,8.951399803161621,44.019195556640625,-62.427730560302734, 9.209002494812012
391,855179446,0.8596678,0.19881867,-0.3598406,0.3032446,8.765766143798828,0.8150906562805176,9.11561107635498,55.38247299194336,-60.57371139526367, 8.96328353881836
392,855196113,0.85453045,0.20833963,-0.36459887,0.30567968,8.672898292541504,0.8868439197540283,8.784931182861328,58.648075103759766,-56.76923370361328, 8.277767181396484
393,855212780,0.849335,0.21782745,-0.36883244,0.30845428,8.514159202575684,1.4392516613006592,8.969402313232422,60.50239562988281,-53.29552459716797, 9.718061447143555
394,855229447,0.8437805,0.22734877,-0.37346768,0.3112375,7.616536617279053,2.1810829639434814,7.45689058303833,60.41250991821289,-56.638824462890625, 11.046868324279785
395,855246114,0.837874,0.23621635,-0.3791922,0.31365973,8.27719497680664,2.51700758934021,7.263813495635986,53.90473556518555,-63.047542572021484, 13.101318359375
396,855262781,0.8318212,0.24418464,-0.38562164,0.31582153,9.373190879821777,3.405299186706543,6.955564498901367,46.75262451171875,-65.985107421875, 15.422857284545898
397,855279448,0.8262723,0.24954924,-0.39312574,0.31694067,10.663562774658203,5.181942462921143,5.831615924835205,25.897146224975586,-66.88825988769531, 17.10009002685547
398,855296115,0.821874,0.25016782,-0.40177962,0.31703722,11.227463722229004,4.953207969665527,6.363719463348389,-8.353788375854492,-61.68798065185547, 23.63618278503418
399,855312782,0.81990474,0.2444973,-0.41112703,0.3145667,11.372983932495117,5.043637752532959,5.5073628425598145,-56.710548400878906,-49.57864761352539, 22.448196411132812
400,855329449,0.82157993,0.23574486,-0.41608542,0.31032893,7.246877193450928,3.128870725631714,13.35011100769043,-75.75481414794922,-10.805401802062988, 5.987559795379639
401,855346116,0.8205174,0.23652929,-0.41764167,0.31045213,8.24246883392334,0.13429319858551025,9.45620059967041,2.2921266555786133,-12.856122970581055, 3.6983156204223633
402,855362783,0.81835306,0.24387062,-0.4149154,0.31411916,9.36923599243164,2.799017906188965,7.97233772277832,60.4180908203125,-0.16283480823040009, 0.23145848512649536
403,855379450,0.81706953,0.25113887,-0.41136822,0.31639028,9.412657737731934,4.707701683044434,8.30014419555664,56.3118896484375,4.758619785308838, -10.667519569396973
404,855396117,0.8181824,0.2553831,-0.40631658,0.31664506,9.330750465393066,3.969491958618164,10.599394798278809,32.72719955444336,23.051231384277344, -21.197568893432617
405,855412784,0.8203321,0.26012298,-0.39825466,0.31746566,7.977775573730469,1.9284864664077759,11.682747840881348,41.81867980957031,42.721466064453125, -26.903165817260742
406,855429451,0.823469,0.26498815,-0.3876718,0.31841946,8.136569023132324,2.7476866245269775,10.421948432922363,46.64816665649414,59.503482818603516, -33.149627685546875
407,855446118,0.8289119,0.26543453,-0.3764852,0.3173464,8.423759460449219,2.954831838607788,9.600645065307617,13.355644226074219,74.97317504882812, -38.980690002441406
408,855462785,0.83598936,0.262637,-0.36449748,0.31509596,8.090598106384277,2.124424934387207,9.703261375427246,-9.411351203918457,88.6439208984375, -42.312618255615234
409,855479452,0.8436894,0.258774,-0.351369,0.31267333,7.87897253036499,2.1790590286254883,9.265121459960938,-14.604000091552734,98.70304107666016, -44.048919677734375
410,855496119,0.8521236,0.25325114,-0.33724636,0.30986163,7.840363025665283,2.4254021644592285,8.888766288757324,-24.328062057495117,109.07756805419922, -45.653236389160156
411,855512786,0.8609783,0.24616486,-0.32221064,0.30708236,7.710439682006836,2.066556215286255,8.785880088806152,-32.192100524902344,118.7601318359375, -44.334556579589844
412,855529453,0.8698418,0.23796442,-0.3061493,0.30499315,7.306441307067871,1.234459400177002,8.796048164367676,-35.09691619873047,128.3517608642578, -39.553653717041016
413,855546120,0.8781471,0.23049982,-0.2886195,0.30401683,7.133573532104492,1.406040072441101,8.531343460083008,-24.338348388671875,136.2209930419922, -35.70536804199219
414,855562787,0.8862171,0.22324516,-0.2695203,0.3035453,6.645010948181152,1.4863975048065186,8.763030052185059,-18.397541046142578,145.5872039794922, -35.09120559692383
415,855579454,0.8937783,0.21711336,-0.24879088,0.30352205,6.331686496734619,2.3748202323913574,9.312723159790039,-6.524238109588623,152.9190216064453, -35.898494720458984
416,855596121,0.9010749,0.21081944,-0.22702268,0.30344674,6.043736457824707,2.4452290534973145,9.490406036376953,-5.041642665863037,159.10641479492188, -36.94419860839844
417,855612788,0.9081015,0.2037719,-0.204622,0.30324712,5.770269393920898,2.3242015838623047,8.778826713562012,-8.190119743347168,163.995361328125, -36.89692306518555
418,855629455,0.914908,0.1950899,-0.18207988,0.30286992,5.712709426879883,2.356534004211426,8.247809410095215,-18.040172576904297,167.74099731445312, -35.45430374145508
419,855646122,0.9213604,0.18480727,-0.15981063,0.30232757,5.686198711395264,1.9003584384918213,7.814085960388184,-28.411712646484375,168.71881103515625, -33.39882278442383
420,855662789,0.9272954,0.17341869,-0.13786152,0.30173397,5.319660186767578,1.956557035446167,7.976686954498291,-35.97261047363281,168.0637664794922, -32.26462936401367
421,855679456,0.9326482,0.16157112,-0.11625896,0.30090883,4.71079683303833,1.6692339181900024,7.862545967102051,-38.742305755615234,166.27894592285156, -30.752920150756836
422,855696123,0.9373891,0.14932483,-0.09470305,0.3000586,4.39061164855957,1.4565528631210327,7.694331645965576,-40.498558044433594,166.51454162597656, -28.54183006286621
423,855712790,0.94130546,0.13740003,-0.07342285,0.2994565,4.229991912841797,1.3408293724060059,7.479295253753662,-38.121803283691406,163.7133331298828, -25.674043655395508
424,855729457,0.9443706,0.12588787,-0.05307794,0.29916412,3.7696847915649414,1.1320216655731201,7.52530574798584,-36.409950256347656,156.7194366455078, -21.25833511352539
425,855746124,0.94669425,0.11465826,-0.033764068,0.2991382,2.8992257118225098,0.8723157644271851,7.83678674697876,-35.9483528137207,149.44847106933594, -17.228912353515625
426,855762791,0.94827515,0.104586124,-0.015255059,0.2993384,2.3473427295684814,1.153247594833374,7.762740612030029,-29.418495178222656,141.86891174316406, -13.874550819396973
427,855779458,0.94924253,0.09558282,0.0024888865,0.29966092,1.7123990058898926,1.042676329612732,7.70518159866333,-23.564373016357422,134.73513793945312, -11.383831977844238
428,855796125,0.9496696,0.08839681,0.01948903,0.29988995,1.164623498916626,1.3322627544403076,7.537345886230469,-12.872908592224121,126.10880279541016, -10.366178512573242
429,855812792,0.94966716,0.08288741,0.035350323,0.3000205,0.7912243008613586,1.1575642824172974,6.495652198791504,-3.9997520446777344,115.23307800292969, -9.209081649780273
430,855829459,0.9492709,0.07891606,0.05027916,0.30021533,-0.14490018784999847,0.8085607886314392,6.302578926086426,4.327099323272705,106.12242889404297, -7.07243537902832
431,855846126,0.9486214,0.07677263,0.064123005,0.3001861,-0.37310510873794556,1.5947107076644897,6.059024810791016,14.237266540527344,95.23824310302734, -6.789957523345947
432,855862793,0.9478798,0.075425744,0.07632804,0.30001473,-0.8201911449432373,1.392868161201477,5.5149359703063965,16.15089988708496,82.87454223632812, -6.30901575088501
433,855879460,0.94716877,0.07475853,0.08668742,0.29961285,-1.1290547847747803,1.6306102275848389,4.860565185546875,16.87030601501465,69.30596923828125, -6.557328224182129
434,855896127,0.9464992,0.07484127,0.09514652,0.29914063,-1.4158300161361694,1.5689157247543335,4.612549304962158,17.846189498901367,55.317928314208984, -5.6748948097229
435,855912794,0.9460521,0.07465347,0.10129452,0.2985832,-1.7017642259597778,1.5981312990188599,4.204145431518555,11.261009216308594,40.63410568237305, -5.672557353973389
436,855929461,0.9458725,0.07445606,0.10481946,0.2979841,-1.9849536418914795,1.615543246269226,3.722759962081909,5.691890239715576,23.36845588684082, -5.151352405548096
437,855946128,0.94604033,0.07382315,0.10559396,0.29733503,-1.8401955366134644,1.8045026063919067,3.1417016983032227,-2.932231903076172,6.0765180587768555, -5.09071683883667
438,855962795,0.9464802,0.07244884,0.10347221,0.29701832,-2.221457004547119,1.6058413982391357,3.1185505390167236,-14.074859619140625,-11.295136451721191, -2.5539474487304688
439,855979462,0.94717556,0.07051713,0.09870283,0.29688987,-1.592481255531311,2.3515584468841553,3.8216588497161865,-23.386598587036133,-27.50124740600586, -0.9274784326553345
440,855996129,0.94822407,0.06804859,0.08985511,0.2969286,-1.582593560218811,3.0393691062927246,0.49800604581832886,-35.51925277709961,-53.13746643066406, 1.0495656728744507
441,856012796,0.94909775,0.07034163,0.076691814,0.29729447,2.883004903793335,-0.22407935559749603,2.2159359455108643,-13.458096504211426,-90.7562026977539, 8.497005462646484
442,856029463,0.950037,0.07453544,0.061932128,0.2967133,3.6480281352996826,1.1260555982589722,11.702034950256348,-3.835869789123535,-105.49130249023438, 3.9496910572052
443,856046130,0.95118636,0.07696275,0.044966727,0.29546493,3.1194546222686768,-0.7019503116607666,9.042789459228516,-19.677043914794922,-116.63949584960938, -0.47101518511772156
444,856062797,0.9520596,0.08023206,0.02679049,0.29398575,1.6395351886749268,0.007029127329587936,8.22256088256836,-16.368667602539062,-126.23892974853516, -0.5291245579719543
445,856079464,0.9526523,0.08325405,0.008618482,0.29231507,0.5714398622512817,0.9792982339859009,7.863275051116943,-17.761789321899414,-125.73052215576172, -1.2697447538375854
446,856096131,0.952926,0.08595474,-0.008425587,0.29064244,0.22706830501556396,1.828429102897644,8.27888298034668,-17.408693313598633,-117.66779327392578, -1.3078879117965698
447,856112798,0.95298517,0.08784907,-0.023554623,0.28904527,0.3966881036758423,2.9749879837036133,8.149723052978516,-18.741106033325195,-103.47710418701172, -1.4705208539962769
448,856129465,0.95281804,0.08990906,-0.0369253,0.28756052,1.3514810800552368,2.7642767429351807,6.843575477600098,-14.034308433532715,-92.25540924072266, -1.3689384460449219
449,856146132,0.95249605,0.09178704,-0.04858576,0.2862974,1.5762780904769897,2.382256031036377,7.742866039276123,-11.72138786315918,-80.58059692382812, -0.6189453601837158
450,856162799,0.95200527,0.09393998,-0.058874533,0.28529853,1.8174693584442139,2.1213021278381348,8.857213020324707,-7.0450439453125,-72.01692962646484, 0.4897814393043518
451,856179466,0.95143604,0.09577726,-0.06845173,0.28444818,1.9183238744735718,2.2761685848236084,9.239182472229004,-7.616760730743408,-66.66676330566406, 1.2861300706863403
452,856196133,0.9508341,0.096508056,-0.07788403,0.28378683,1.9050917625427246,1.718836784362793,9.646806716918945,-14.474400520324707,-63.43938446044922, 3.0161259174346924
453,856212800,0.9501126,0.09659062,-0.08761112,0.28333914,2.162630319595337,0.4897021949291229,8.351421356201172,-19.097068786621094,-64.02275085449219, 5.191590785980225
454,856229467,0.94928765,0.096816964,-0.09709263,0.28293556,2.1460306644439697,0.8118880987167358,9.193695068359375,-17.571001052856445,-62.724483489990234, 5.428431034088135
455,856246134,0.9486875,0.09596384,-0.106273524,0.28193805,2.2376580238342285,1.9884408712387085,9.0159273147583,-24.568758010864258,-58.907310485839844, 1.6338766813278198
456,856262801,0.94813985,0.093912944,-0.11562335,0.28078896,2.7736775875091553,1.3866140842437744,8.744673728942871,-32.866233825683594,-57.74886703491211, 1.5337188243865967
457,856279468,0.9472972,0.093191855,-0.12522928,0.27975166,3.2377519607543945,1.402039647102356,9.426867485046387,-24.41559600830078,-62.14088439941406, 1.941479206085205
458,856296135,0.9462021,0.09298941,-0.13564879,0.27866456,3.070549964904785,0.851754903793335,8.87778091430664,-22.486738204956055,-68.67754364013672, 2.179213523864746
459,856312802,0.9446984,0.09349304,-0.14697339,0.2778543,3.296865940093994,0.6645136475563049,9.12431526184082,-19.104251861572266,-76.1174087524414, 4.682852745056152
460,856329469,0.94278884,0.093994595,-0.1582967,0.27795032,3.9320425987243652,0.9718853235244751,10.064339637756348,-20.00555992126465,-76.51228332519531, 5.720985412597656
461,856346136,0.9407576,0.09453413,-0.16951567,0.27803433,4.7269134521484375,0.8938813805580139,10.130491256713867,-19.476438522338867,-75.976318359375, 6.176131725311279
462,856362803,0.9386024,0.09515268,-0.18022054,0.2783746,5.191061019897461,0.4959529638290405,9.965880393981934,-17.67953109741211,-72.73107147216797, 7.77238655090332
463,856379470,0.9362632,0.09694218,-0.19019055,0.2789998,5.198174476623535,0.41117072105407715,9.88313102722168,-8.276315689086914,-70.2206802368164, 8.219985961914062
464,856396137,0.9337205,0.10003113,-0.19985355,0.27967536,5.63557243347168,0.7481364607810974,9.830415725708008,0.9575157761573792,-70.91743469238281, 7.437182903289795
465,856412804,0.9309009,0.10421672,-0.20976,0.2802915,5.893579959869385,0.8890235424041748,10.389914512634277,7.552434921264648,-74.99785614013672, 6.304353713989258
466,856429471,0.9278448,0.109312266,-0.21975204,0.28082702,5.780230522155762,0.8658785223960876,10.13446044921875,13.356361389160156,-77.66470336914062, 5.399205207824707
467,856446138,0.9247753,0.11524905,-0.22933647,0.28091475,5.804779052734375,0.8988648056983948,9.57429027557373,20.905624389648438,-76.66283416748047, 4.917473316192627
468,856462805,0.9213592,0.12343353,-0.2380669,0.28139952,5.697546005249023,0.8922867774963379,9.53102970123291,37.74908447265625,-75.79728698730469, 3.8907759189605713
469,856479472,0.9176506,0.13342924,-0.24622285,0.2819371,6.04467248916626,1.7080079317092896,9.677641868591309,50.67185974121094,-76.09327697753906, 1.3393211364746094
470,856496139,0.9135488,0.14440873,-0.25432166,0.28265724,6.0790534019470215,2.1361844539642334,9.843581199645996,57.65341567993164,-78.13467407226562, 1.5419038534164429
471,856512806,0.9091953,0.15521623,-0.26261073,0.28338572,6.0647759437561035,2.2321996688842773,9.264110565185547,56.45928192138672,-79.42976379394531, 2.583005428314209
472,856529473,0.9047141,0.16513741,-0.27139428,0.2838441,6.067784786224365,1.5501189231872559,9.549159049987793,49.595115661621094,-81.31352996826172, 3.2807908058166504
473,856546140,0.9002447,0.17444547,-0.27982655,0.2842987,6.379160404205322,0.9527080655097961,9.561727523803711,46.449703216552734,-77.92227935791016, 3.982013463973999
474,856562807,0.8955547,0.18385065,-0.2880594,0.2849609,6.537149429321289,0.3476543128490448,9.10881233215332,48.11781311035156,-77.06246185302734, 5.26691198348999
475,856579474,0.89058536,0.1930809,-0.29628956,0.28598973,6.688679218292236,0.6316363215446472,8.863381385803223,48.145999908447266,-76.80039978027344, 8.402907371520996
476,856596141,0.8858994,0.20104405,-0.30412537,0.28682992,6.531275272369385,0.8123809099197388,8.646580696105957,40.41929244995117,-71.57437133789062, 8.737066268920898
477,856612808,0.8813285,0.20814553,-0.31189018,0.28750694,7.052846431732178,0.6105963587760925,8.553386688232422,34.826438903808594,-69.43841552734375, 9.21062183380127
478,856629475,0.8766944,0.21493168,-0.31927434,0.28857478,7.505803108215332,0.21645107865333557,8.593127250671387,34.61495590209961,-66.09278106689453, 11.820889472961426
479,856646142,0.87169725,0.22266705,-0.3258681,0.2904708,8.329230308532715,0.6867250800132751,8.514997482299805,44.282108306884766,-62.79275894165039, 14.26144027709961
480,856662809,0.8666013,0.2309893,-0.3314079,0.29294202,8.750678062438965,1.306318998336792,9.223652839660645,51.36241149902344,-56.989933013916016, 14.959527015686035
481,856679476,0.8616274,0.24019432,-0.33518165,0.2959025,8.768568992614746,2.4097938537597656,9.98643970489502,61.11454391479492,-47.19834899902344, 12.79974365234375
482,856696143,0.85674477,0.25179318,-0.33634445,0.29910082,7.67238712310791,3.4707741737365723,8.64048957824707,81.01222229003906,-36.01884078979492, 4.194861888885498
483,856712810,0.8505722,0.2649029,-0.3397058,0.30158472,7.048987865447998,3.905817747116089,6.332129001617432,85.96637725830078,-56.315284729003906, 2.9665920734405518
484,856729477,0.8442619,0.27546287,-0.3461733,0.3025002,7.125558376312256,4.43045711517334,5.704066276550293,61.1855583190918,-72.37226104736328, 5.71354866027832
485,856746144,0.8382507,0.28386223,-0.3546074,0.30168167,8.042080879211426,4.585193634033203,4.829498291015625,39.839149475097656,-81.8619384765625, 3.9180829524993896
486,856762811,0.83276856,0.29088596,-0.36331657,0.29980546,8.458065032958984,4.627685070037842,7.39306116104126,27.706140518188477,-81.34786224365234, 0.6374846696853638
487,856779478,0.8291451,0.2956341,-0.37018442,0.29678693,9.550921440124512,5.368336200714111,13.211366653442383,11.89216136932373,-63.76691436767578, -7.711216449737549
488,856796145,0.8268905,0.2991305,-0.37360898,0.2952791,6.175530433654785,2.1792495250701904,14.912692070007324,12.854445457458496,-35.10424041748047, -5.679440021514893
489,856812812,0.8235703,0.30510125,-0.37550133,0.29604706,8.931601524353027,5.904040336608887,7.183148384094238,38.11361312866211,-29.60013198852539, -0.0814746618270874
490,856829479,0.8232588,0.30496967,-0.37678114,0.29542258,8.492494583129883,4.808879375457764,6.981229782104492,-5.117496013641357,-8.87450885772705, 0.41348522901535034
491,856846146,0.82417077,0.30321187,-0.37623224,0.29538912,7.703980922698975,3.2427334785461426,9.093646049499512,-11.652057647705078,9.174251556396484, 1.6720430850982666
492,856862813,0.82505065,0.30277744,-0.3734397,0.29691774,7.5284504890441895,3.054497480392456,9.173966407775879,4.521335124969482,22.328086853027344, 2.493279218673706
493,856879480,0.82639176,0.3029024,-0.36858448,0.29911938,7.51099967956543,3.9950196743011475,9.345090866088867,12.686002731323242,35.42647933959961, -0.3546864688396454
494,856896147,0.8283002,0.3035662,-0.3617995,0.30144286,7.246090412139893,4.097722053527832,9.343826293945312,18.846744537353516,46.928253173828125, -6.196613788604736
495,856912814,0.83107924,0.30398446,-0.35334766,0.30339125,7.588474750518799,4.825704574584961,8.335672378540039,18.155229568481445,58.26859664916992, -12.98662281036377
496,856929481,0.83553976,0.30172879,-0.34398058,0.30415553,7.91646671295166,4.649351596832275,8.03084659576416,-1.6126954555511475,70.6583251953125, -18.653247833251953
497,856946148,0.84121794,0.29731315,-0.33372858,0.30427402,8.116747856140137,3.8238894939422607,8.130664825439453,-16.23175621032715,81.77989196777344, -21.622013092041016
498,856962815,0.84776694,0.29159704,-0.32247475,0.30376393,8.103353500366211,3.9740755558013916,8.211356163024902,-24.880678176879883,90.99398040771484, -26.14249610900879
499,856979482,0.8548379,0.2848105,-0.31031516,0.30305085,7.842192649841309,3.565073251724243,8.246688842773438,-30.727581024169922,99.24722290039062, -27.85767364501953
500,856996149,0.8621343,0.27788186,-0.2969714,0.3021828,7.660277366638184,4.143321514129639,8.679790496826172,-29.867406845092773,106.67135620117188, -31.258060455322266
501,857012816,0.86937785,0.2710598,-0.28261104,0.30139628,7.411139011383057,3.400803804397583,8.059457778930664,-26.860776901245117,112.5143051147461, -32.823665618896484
502,857029483,0.8765667,0.2639249,-0.26752666,0.3006726,7.328107833862305,3.4633870124816895,8.53946304321289,-27.007631301879883,117.50106048583984, -33.08234786987305
503,857046150,0.8836927,0.25600553,-0.25180635,0.30023667,6.928073406219482,2.9836368560791016,8.691560745239258,-29.778705596923828,123.36115264892578, -30.935625076293945
504,857062817,0.8907693,0.247523,-0.2353311,0.29980287,6.5587263107299805,3.5308051109313965,8.70771598815918,-31.547544479370117,129.030029296875, -31.185367584228516
505,857079484,0.89776886,0.23829676,-0.21819016,0.29936442,6.207413673400879,3.33125901222229,8.349437713623047,-34.610374450683594,134.51014709472656, -30.990495681762695
506,857096151,0.90436155,0.22922459,-0.20018254,0.29918775,5.731476306915283,3.0080642700195312,8.416247367858887,-30.820968627929688,139.36898803710938, -30.196229934692383
507,857112818,0.910405,0.22049712,-0.18135165,0.2994254,5.40198278427124,2.742877244949341,8.494294166564941,-25.5496826171875,143.68438720703125, -28.269372940063477
508,857129485,0.916074,0.21102065,-0.16193582,0.3000926,5.086780548095703,2.88663649559021,8.7470703125,-27.931217193603516,149.0826873779297, -24.772218704223633
509,857146152,0.92132306,0.20088124,-0.1421085,0.30102432,5.005003929138184,2.9674253463745117,8.56679630279541,-30.35663604736328,152.96954345703125, -22.10776710510254
510,857162819,0.92585987,0.19058487,-0.12193416,0.3026432,4.911281108856201,2.6687417030334473,8.154353141784668,-30.826147079467773,154.23004150390625, -21.500301361083984
511,857179486,0.9300332,0.17986025,-0.10233144,0.30367237,4.766879081726074,2.9290690422058105,7.896665573120117,-33.957664489746094,151.00379943847656, -21.700471878051758
512,857196153,0.93385696,0.16876313,-0.083364084,0.30410627,4.383124828338623,2.7696712017059326,8.147074699401855,-36.8976936340332,147.44403076171875, -21.526033401489258
513,857212820,0.9371762,0.15806687,-0.06489334,0.30414566,3.7909693717956543,2.8005290031433105,8.306760787963867,-34.80967712402344,142.89830017089844, -21.98310661315918
514,857229487,0.93997157,0.14800608,-0.0469973,0.30387324,3.2400784492492676,2.496347665786743,7.839760780334473,-31.435901641845703,137.38833618164062, -22.309982299804688
515,857246154,0.9423293,0.13809797,-0.030208187,0.30336764,2.7065742015838623,2.725015163421631,7.4956440925598145,-32.398197174072266,129.55953979492188, -21.835248947143555
516,857262821,0.9442863,0.12840976,-0.014483113,0.3026955,1.9112887382507324,2.1102209091186523,7.253297805786133,-32.85805892944336,121.98644256591797, -21.12310218811035
517,857279488,0.9454711,0.12129641,0.0008896372,0.3022758,1.3446195125579834,1.594354510307312,7.448635578155518,-16.171510696411133,114.50080108642578, -17.829425811767578
518,857296155,0.94603145,0.116508126,0.01623559,0.30197126,0.9474403262138367,1.513810157775879,7.572656154632568,-0.5903085470199585,109.60518646240234, -15.752592086791992
519,857312822,0.9461542,0.113724835,0.0313107,0.3014609,0.5250421762466431,1.7683674097061157,7.496956825256348,12.266088485717773,103.57424926757812, -15.744012832641602
520,857329489,0.9460265,0.111658715,0.045737945,0.3007896,0.22185954451560974,1.884292483329773,6.946557998657227,15.818957328796387,97.80856323242188, -15.612287521362305
521,857346156,0.9456253,0.110706344,0.05927707,0.30003864,-0.2900189161300659,1.567984700202942,6.4391584396362305,21.458667755126953,89.75953674316406, -14.534207344055176
522,857362823,0.94495493,0.11096652,0.0717553,0.2993289,-0.7195433378219604,1.2571806907653809,6.0996294021606445,27.342092514038086,80.50350189208984, -12.408151626586914
523,857379490,0.94408524,0.11216605,0.082826436,0.29876694,-1.2421656847000122,1.1621408462524414,6.0819549560546875,30.63217544555664,69.63764190673828, -9.498013496398926
524,857396157,0.9432844,0.11360015,0.092016466,0.29806468,-1.5167032480239868,1.7671531438827515,5.388062953948975,28.323081970214844,56.791351318359375, -8.96147632598877
525,857412824,0.9426879,0.114558525,0.09905127,0.29732978,-1.6054108142852783,1.9202417135238647,5.208945274353027,20.67807960510254,43.624576568603516, -8.2052001953125
526,857429491,0.94227,0.115483664,0.104066856,0.296582,-1.7876999378204346,1.8983314037322998,4.845791816711426,16.197406768798828,30.463897705078125, -7.082070350646973
527,857446158,0.94219875,0.11572117,0.106874734,0.2957161,-1.996411919593811,1.9702496528625488,4.7748332023620605,7.044315814971924,17.21036720275879, -7.2898454666137695
528,857462825,0.94254667,0.11511918,0.107160375,0.2947373,-2.1450822353363037,2.0658810138702393,4.477234840393066,-3.779052734375,2.166393280029297, -7.479743003845215
529,857479492,0.9432744,0.11370008,0.10506523,0.29371268,-2.150847911834717,2.2728331089019775,4.922089576721191,-14.173371315002441,-11.938441276550293, -7.261709690093994
530,857496159,0.944349,0.11089897,0.10060986,0.29288936,-2.1603195667266846,2.5278241634368896,5.632917881011963,-28.32764434814453,-24.563800811767578, -5.809385299682617
531,857512826,0.94547623,0.10832102,0.09463967,0.2922066,-1.7767351865768433,2.698068618774414,6.414571285247803,-30.076250076293945,-34.79268264770508, -3.69238018989563
532,857529493,0.94689286,0.104383,0.085082315,0.2919921,-1.915477991104126,3.0588767528533936,1.9175992012023926,-46.65425491333008,-55.228492736816406, 0.5546084642410278
533,857546160,0.94797647,0.10351392,0.07070148,0.2926207,3.2011706829071045,-1.2770392894744873,0.884991466999054,-36.6429557800293,-92.01192474365234, 11.968626022338867
534,857562827,0.948745,0.1070405,0.054318737,0.292361,4.6482038497924805,-0.18541023135185242,11.353713035583496,-11.342616081237793,-114.33952331542969, 10.365388870239258
535,857579494,0.95011735,0.10726692,0.03471725,0.29080147,3.6416003704071045,-0.5878357887268066,9.512397766113281,-39.25960159301758,-129.8168487548828, 1.7934471368789673
536,857596161,0.95096016,0.10933499,0.013627204,0.28902388,1.9760431051254272,-0.45200201869010925,9.414405822753906,-29.7236385345459,-143.2091827392578, 2.951631546020508
537,857612828,0.9512306,0.11198986,-0.0074777002,0.28733772,0.33825647830963135,0.19071005284786224,8.067627906799316,-25.459684371948242,-144.32565307617188, 4.743952751159668
538,857629495,0.95096564,0.11551428,-0.027263425,0.2856179,0.46343404054641724,2.2099192142486572,7.643075466156006,-16.734512329101562,-137.46798706054688, 4.515997409820557
539,857646162,0.95040506,0.1189717,-0.04469855,0.2838629,0.9103957414627075,4.108306407928467,7.758166790008545,-12.33419418334961,-122.05000305175781, 3.012014865875244
540,857662829,0.9497998,0.12129675,-0.060053006,0.2820663,1.2192153930664062,4.547358989715576,7.852502822875977,-15.678583145141602,-106.2894287109375, 1.4774969816207886
541,857679496,0.9491001,0.12278967,-0.07365099,0.28054842,2.0324277877807617,3.95752215385437,8.164127349853516,-17.546607971191406,-93.00994110107422, 2.367372989654541
542,857696163,0.948247,0.12410845,-0.08573696,0.2794174,2.7677979469299316,2.2364859580993652,8.3180513381958,-15.467320442199707,-82.55078887939453, 4.004600524902344
543,857712830,0.9472861,0.1254505,-0.09700716,0.2783897,2.7452874183654785,1.6730437278747559,7.641116619110107,-13.600970268249512,-77.23985290527344, 4.175581455230713
544,857729497,0.94633085,0.12574492,-0.10777268,0.27754527,2.6569883823394775,1.4190419912338257,8.710271835327148,-19.34142303466797,-71.7741470336914, 5.6206560134887695
545,857746164,0.94548976,0.124873266,-0.11856413,0.27640316,2.68119215965271,1.785265564918518,8.864823341369629,-27.293054580688477,-69.88591766357422, 4.351012229919434
546,857762831,0.94473124,0.123019665,-0.12953119,0.27490118,2.9270169734954834,1.7959610223770142,8.615927696228027,-34.37453079223633,-69.40174102783203, 2.805424928665161
547,857779498,0.9439403,0.12055467,-0.14044443,0.27334762,3.821897506713867,1.3913993835449219,8.402931213378906,-38.26423263549805,-67.96604919433594, 3.0305912494659424
548,857796165,0.94266725,0.118550725,-0.15145345,0.2727385,4.074108600616455,0.7967647314071655,8.995599746704102,-35.75679397583008,-69.79536437988281, 5.309609413146973
549,857812832,0.94108516,0.11708801,-0.16265899,0.27238026,4.083052635192871,0.6852253675460815,9.12419605255127,-32.14728927612305,-72.13218688964844, 7.242068290710449
550,857829499,0.9394011,0.11495475,-0.17379428,0.27222505,4.225910663604736,0.21475434303283691,8.746676445007324,-36.124027252197266,-70.32141876220703, 9.473011016845703
551,857846166,0.9375728,0.11323717,-0.1842594,0.272366,4.3531317710876465,-0.04641014337539673,8.592702865600586,-31.70309829711914,-66.63243103027344, 10.851922988891602
552,857862833,0.9356407,0.11237281,-0.19402695,0.27258494,4.848889350891113,0.42557498812675476,9.190084457397461,-24.73151397705078,-63.74924850463867, 10.053327560424805
553,857879500,0.93362135,0.113279976,-0.20246308,0.27299756,5.521271228790283,0.839156985282898,9.772453308105469,-10.585105895996094,-58.444175720214844, 8.074742317199707
554,857896167,0.93138915,0.11661333,-0.20955609,0.27386472,5.725860595703125,1.1885491609573364,9.409972190856934,8.374322891235352,-54.27836608886719, 7.244713306427002
555,857912834,0.92910427,0.120994836,-0.21629538,0.2744848,5.720347881317139,1.371302843093872,9.407552719116211,17.19980812072754,-53.86155700683594, 7.454628944396973
556,857929501,0.9267028,0.12554201,-0.22304672,0.27515736,5.486335277557373,1.3671084642410278,9.404640197753906,18.408058166503906,-54.3714485168457, 7.774590015411377
557,857946168,0.9241497,0.12968215,-0.23021647,0.27591792,5.55439567565918,1.504611849784851,9.232914924621582,15.286933898925781,-56.418941497802734, 9.60940933227539
558,857962835,0.92147535,0.1330064,-0.23784262,0.2768095,5.680075645446777,1.247706413269043,9.743287086486816,9.549208641052246,-57.84132766723633, 12.371942520141602
559,857979502,0.9186593,0.13652818,-0.24594118,0.27737734,5.8583664894104,1.3048309087753296,9.229875564575195,9.502555847167969,-61.73783493041992, 10.699939727783203
560,857996169,0.9156911,0.14065051,-0.25418916,0.2776965,5.500646114349365,1.03273344039917,8.664722442626953,12.733004570007324,-64.31476593017578, 8.544930458068848
561,858012836,0.91258466,0.14591853,-0.2621494,0.2778039,5.259241580963135,0.912610650062561,8.558891296386719,20.260753631591797,-65.13642120361328, 5.194808483123779
562,858029503,0.9092266,0.15147442,-0.27044687,0.27788734,5.787036895751953,1.0081603527069092,8.711368560791016,21.63602066040039,-68.28304290771484, 5.34388542175293
563,858046170,0.90580016,0.15613389,-0.27884492,0.2781975,6.224457263946533,0.9376475214958191,8.82724380493164,16.335861206054688,-67.09200286865234, 8.661704063415527
564,858062837,0.9023559,0.16023166,-0.28700033,0.27876642,6.399784564971924,0.9707039594650269,8.406216621398926,13.8217191696167,-64.26395416259766, 11.122201919555664
565,858079504,0.89871794,0.16414176,-0.2951256,0.27975842,6.80442476272583,0.9086688756942749,8.473033905029297,13.766778945922852,-63.63241958618164, 14.45214557647705
566,858096171,0.89497834,0.168225,-0.30283323,0.281081,6.951630592346191,1.2953470945358276,9.23692512512207,16.42999267578125,-61.21609878540039, 15.864137649536133
567,858112838,0.89126635,0.17239206,-0.31021497,0.28229785,6.988923072814941,1.784542441368103,8.728189468383789,17.325515747070312,-59.44179916381836, 14.607930183410645
568,858129505,0.887149,0.17721353,-0.31773767,0.2839106,7.542657852172852,1.6862564086914062,8.518608093261719,22.38496208190918,-61.974796295166016, 16.596128463745117
569,858146172,0.88278913,0.18232217,-0.325132,0.285887,6.801631927490234,1.6393088102340698,8.450481414794922,25.47498321533203,-61.83796691894531, 18.50517463684082
570,858162839,0.87826705,0.18750009,-0.33238545,0.2881159,6.842883586883545,1.6458122730255127,8.44620132446289,26.93914794921875,-61.17226028442383, 20.02789306640625
571,858179506,0.8736628,0.1927126,-0.3393898,0.2904995,7.714630126953125,1.6801003217697144,8.381855010986328,28.10073471069336,-59.733924865722656, 20.728456497192383
572,858196173,0.86887753,0.1986719,-0.34597623,0.29305652,8.098310470581055,1.5310016870498657,9.334975242614746,34.06550216674805,-58.911781311035156, 19.837562561035156
573,858212840,0.8637442,0.20561235,-0.35240927,0.2957655,8.456794738769531,0.9734483361244202,9.775273323059082,41.0753288269043,-60.60386657714844, 18.904211044311523
574,858229507,0.8583804,0.21342337,-0.3583981,0.29863757,8.545324325561523,1.1647392511367798,9.772747039794922,47.87777328491211,-60.078617095947266, 17.599699020385742
575,858246174,0.85296595,0.22117749,-0.3641445,0.30154365,8.010422706604004,1.2916854619979858,9.085487365722656,48.205196380615234,-58.6224365234375, 17.68613052368164
576,858262841,0.8476439,0.22873448,-0.3694839,0.3044049,8.086015701293945,1.182587742805481,8.571101188659668,47.64552688598633,-55.68067932128906, 17.10511016845703
577,858279508,0.84280574,0.23529087,-0.3738643,0.30747733,8.201541900634766,1.1371428966522217,8.604695320129395,43.60280227661133,-46.45034408569336, 18.354259490966797
578,858296175,0.8382562,0.24549763,-0.3743156,0.31136072,8.488373756408691,2.6346213817596436,7.884620189666748,74.68699645996094,-29.362905502319336, 6.702004909515381
579,858312842,0.8323134,0.25562033,-0.3794712,0.31291276,9.85275650024414,4.113625526428223,3.042323589324951,60.48075866699219,-63.825401306152344, 4.415166854858398
580,858329509,0.8273817,0.26016137,-0.3884145,0.31127188,10.755495071411133,4.435088157653809,0.6818637251853943,10.262694358825684,-76.42496490478516, 5.205539226531982
581,858346176,0.8227711,0.2613659,-0.3995118,0.30842522,11.576957702636719,2.75274395942688,4.531033039093018,-17.148061752319336,-82.77190399169922, 10.4390869140625
582,858362843,0.82175505,0.25730997,-0.4082213,0.30309364,11.808844566345215,7.412750244140625,17.803325653076172,-55.134254455566406,-52.66910934448242, -1.0827735662460327
583,858379510,0.82082886,0.2554461,-0.4135549,0.2999329,6.081912517547607,2.818876028060913,13.446561813354492,-29.787643432617188,-34.16287612915039, -1.086921215057373
584,858396177,0.81858826,0.25937828,-0.4155178,0.29996884,10.11442756652832,4.741213798522949,6.479077339172363,21.281461715698242,-25.302228927612305, -2.7211289405822754
585,858412844,0.8176154,0.26320583,-0.41479093,0.30029348,10.032526016235352,3.8621087074279785,9.005573272705078,24.789602279663086,-5.809474468231201, -8.183854103088379
586,858429511,0.8176064,0.26827043,-0.41086483,0.30123234,9.398486137390137,3.187868118286133,12.566280364990234,38.35313415527344,13.458648681640625, -16.02060890197754
587,858446178,0.8181558,0.27482647,-0.4041443,0.30291757,9.056244850158691,3.432668924331665,12.046168327331543,53.61110305786133,28.97532844543457, -22.335975646972656
588,858462845,0.8208893,0.27825436,-0.39568087,0.30356562,8.722359657287598,3.182687282562256,10.808539390563965,32.64253616333008,49.35023498535156, -27.305147171020508
589,858479512,0.8253636,0.27953407,-0.38562956,0.3031928,8.302959442138672,3.0291860103607178,10.15982723236084,17.731985092163086,65.53652954101562, -33.88356018066406
590,858496179,0.83219784,0.27698225,-0.3742233,0.301139,8.548267364501953,3.6159520149230957,10.19287395477295,-10.172015190124512,84.20236206054688, -40.782875061035156
591,858512846,0.840349,0.27249014,-0.36139655,0.29825363,8.592537879943848,2.7864508628845215,9.651676177978516,-22.97617530822754,98.11981201171875, -45.97492980957031
592,858529513,0.84909236,0.26729,-0.3470937,0.29516858,8.249513626098633,2.2630789279937744,9.138139724731445,-25.637784957885742,109.17391204833984, -49.35331726074219
593,858546180,0.85810107,0.26136458,-0.33159184,0.2922295,7.965579032897949,2.0104258060455322,9.00568675994873,-27.567903518676758,118.5301742553711, -49.52164077758789
594,858562847,0.86720246,0.25442716,-0.31495783,0.28987676,7.663544654846191,1.1967864036560059,8.467390060424805,-30.08248519897461,128.4947052001953, -45.98666000366211
595,858579514,0.8756946,0.24845651,-0.29679918,0.28868452,7.218212127685547,1.002178430557251,8.038717269897461,-17.684223175048828,136.36366271972656, -42.62887954711914
596,858596181,0.8836395,0.243309,-0.2772558,0.28829,6.8698811531066895,1.665838599205017,8.444987297058105,-7.401523590087891,143.31378173828125, -40.799156188964844
597,858612848,0.89133394,0.23786607,-0.2567298,0.28815553,6.70908784866333,1.9778387546539307,8.75851058959961,-6.322955131530762,149.82693481445312, -39.8107795715332
598,858629515,0.8990497,0.23072612,-0.23558529,0.2880533,6.415596961975098,2.459681749343872,9.467338562011719,-15.466910362243652,157.07203674316406, -37.677860260009766
599,858646182,0.90660363,0.22202283,-0.21386257,0.2881638,5.8359527587890625,2.404223918914795,9.337014198303223,-23.37812614440918,163.81907653808594, -34.431373596191406
600,858662849,0.9139412,0.21161065,-0.19155669,0.28851056,5.42474365234375,2.2662274837493896,8.824239730834961,-32.19304656982422,170.88478088378906, -30.91205406188965
601,858679516,0.92081344,0.20007758,-0.16853052,0.28925622,5.213050842285156,1.773413062095642,7.838791370391846,-36.60201644897461,177.60894775390625, -27.05967140197754
602,858696183,0.92697704,0.18796714,-0.1451302,0.29037783,5.347553730010986,1.8469936847686768,7.640133857727051,-38.099220275878906,180.83636474609375, -23.124177932739258
603,858712850,0.93220794,0.17569299,-0.12184483,0.29201803,5.365134239196777,1.9012891054153442,7.206680774688721,-38.45192337036133,179.56008911132812, -19.88373565673828
604,858729517,0.9368151,0.16290924,-0.09888136,0.29336086,4.855424880981445,2.45341420173645,7.67006254196167,-41.12879943847656,178.23345947265625, -17.73198890686035
605,858746184,0.94077754,0.14994162,-0.07599739,0.29441386,4.507840633392334,2.6721317768096924,8.167501449584961,-41.64031982421875,177.671142578125, -16.849990844726562
606,858762851,0.9438192,0.13801755,-0.052905455,0.2955632,3.9432528018951416,2.0883116722106934,7.545383930206299,-33.722557067871094,176.2911834716797, -16.13975715637207
607,858779518,0.94600785,0.12728453,-0.03008628,0.2965852,3.566878318786621,1.6250653266906738,6.749567031860352,-25.788715362548828,171.69398498535156, -15.412361145019531
608,858796185,0.9473757,0.11820388,-0.007783125,0.2973997,2.983755588531494,1.4976719617843628,7.185628890991211,-15.42000961303711,164.64279174804688, -14.982657432556152
609,858812852,0.94812,0.11028898,0.013405586,0.29786783,2.27242112159729,1.8389363288879395,6.717200756072998,-9.617467880249023,154.70750427246094, -15.12450122833252
610,858829519,0.9484702,0.10228111,0.032693047,0.29811764,1.398215651512146,2.158353805541992,6.35911226272583,-13.803727149963379,142.39385986328125, -14.309819221496582
611,858846186,0.9483476,0.09566521,0.050710253,0.29818368,0.8445956110954285,2.045356512069702,6.452996730804443,-6.965583801269531,131.2476806640625, -13.33482837677002
612,858862853,0.9476272,0.091470756,0.06775071,0.2984051,0.24388575553894043,1.2201586961746216,6.129387855529785,7.152042865753174,120.2363052368164, -9.609663009643555
613,858879520,0.94652617,0.089331746,0.08353374,0.29854685,-0.2833314538002014,1.0412007570266724,5.2353692054748535,18.24015998840332,107.96118927001953, -7.598316669464111
614,858896187,0.94539136,0.0880749,0.09717489,0.29838765,-0.7338782548904419,2.0105814933776855,4.591344833374023,19.777551651000977,92.04927825927734, -7.663638114929199
615,858912854,0.94441926,0.08675855,0.10812347,0.29808494,-1.304569959640503,1.7407761812210083,3.9192559719085693,13.852802276611328,74.47403717041016, -7.338188171386719
616,858929521,0.9437214,0.08551286,0.11613052,0.29764304,-1.6811094284057617,1.667609453201294,2.8525383472442627,8.213730812072754,54.93688201904297, -6.99485445022583
617,858946188,0.9433113,0.083419375,0.12098516,0.2976037,-2.1226418018341064,1.3340891599655151,3.248609781265259,-4.239741802215576,36.21455001831055, -3.7940404415130615
618,858962855,0.94318205,0.08138829,0.12304962,0.297729,-2.1632633209228516,1.0430842638015747,3.1640865802764893,-9.84832763671875,17.838394165039062, -1.6475008726119995
619,858979522,0.9433371,0.07987477,0.122468986,0.2978871,-2.212352752685547,1.6616288423538208,3.1363556385040283,-12.096282005310059,-0.6091086864471436, -0.09676482528448105
620,858996189,0.9438307,0.077919096,0.118993714,0.29824975,-2.3272147178649902,1.7187494039535522,2.867513418197632,-21.259979248046875,-18.664037704467773, 1.753738284111023
621,859012856,0.9445882,0.07502454,0.11334591,0.29879314,-1.8067346811294556,2.5531387329101562,4.218227863311768,-32.10697555541992,-30.971349716186523, 2.7806174755096436
622,859029523,0.94569355,0.07201743,0.10393028,0.29945937,-1.6782349348068237,3.2644221782684326,-0.09944675862789154,-40.869239807128906,-55.42656707763672, 4.715269088745117
623,859046190,0.9466489,0.07345224,0.090896025,0.3003308,3.054112672805786,0.3012390434741974,4.5403571128845215,-19.542543411254883,-87.90706634521484, 11.320635795593262
624,859062857,0.94774777,0.075100124,0.07663825,0.30043402,2.5970840454101562,2.051137924194336,12.143587112426758,-20.267236709594727,-96.74927520751953, 6.767653942108154
625,859079524,0.9490186,0.07551886,0.060065445,0.30008775,2.935115337371826,-0.9717071652412415,8.604026794433594,-32.905845642089844,-109.57721710205078, 4.022833347320557
626,859096191,0.94986534,0.078902245,0.042864725,0.29948762,1.2979695796966553,-0.04053874313831329,8.475868225097656,-14.503959655761719,-119.71036529541016, 4.784857749938965
627,859112858,0.9506179,0.08188227,0.02509189,0.29831478,0.8861768841743469,1.1150590181350708,7.690251350402832,-18.079259872436523,-122.88041687011719, 1.4258277416229248
628,859129525,0.9510123,0.084738486,0.008379398,0.29719505,0.14740130305290222,1.8745737075805664,8.506006240844727,-16.517215728759766,-115.59182739257812, 1.885998010635376
629,859146192,0.95112354,0.08692241,-0.0067361365,0.29624835,0.446429967880249,2.4865307807922363,8.29334545135498,-17.498085021972656,-103.65618133544922, 2.626089096069336
630,859162859,0.95085615,0.089100085,-0.019968731,0.29586303,0.39409464597702026,2.040677070617676,8.617326736450195,-13.461578369140625,-91.009033203125, 5.943546295166016
631,859179526,0.9503074,0.0918633,-0.030860562,0.29584542,1.1403037309646606,2.0350141525268555,8.141942977905273,-4.654886245727539,-76.71090698242188, 7.405946731567383
632,859196193,0.94968367,0.09468071,-0.04006111,0.2958576,1.7851574420928955,2.273585081100464,7.785860538482666,-0.8135743737220764,-65.76261138916016, 6.67457389831543
633,859212860,0.94923526,0.0955158,-0.0483323,0.29579234,1.8185356855392456,2.6372220516204834,8.64830493927002,-12.012109756469727,-55.653934478759766, 5.753273963928223
634,859229527,0.948952,0.09438062,-0.056511775,0.2956159,1.3873802423477173,2.4839649200439453,9.470438957214355,-24.841527938842773,-51.05927658081055, 5.287500858306885
635,859246194,0.9487458,0.091619484,-0.065332025,0.2953293,1.8428912162780762,1.3014066219329834,9.021992683410645,-36.85472106933594,-51.976966857910156, 5.460737705230713
636,859262861,0.9484492,0.0891681,-0.074313976,0.2949079,1.8770115375518799,0.8850147724151611,9.110047340393066,-35.165504455566406,-53.782344818115234, 4.725477695465088
637,859279528,0.94819564,0.0861874,-0.0837305,0.29408497,1.488059163093567,1.829992413520813,8.157649993896484,-39.72600173950195,-55.76472091674805, 2.55519700050354
638,859296195,0.94806993,0.08095619,-0.09402519,0.29286328,1.6228736639022827,2.14215350151062,8.098711013793945,-56.48614501953125,-57.103485107421875, 1.5128995180130005
639,859312862,0.94755423,0.07694793,-0.10482958,0.2919432,2.042574882507324,1.7235697507858276,9.10826587677002,-49.13994598388672,-62.9732666015625, 3.759599208831787
640,859329529,0.94690996,0.073372394,-0.1163796,0.29057527,2.3751580715179443,2.131755828857422,9.627838134765625,-48.07954788208008,-69.03009033203125, 1.1831759214401245
641,859346196,0.9460153,0.07073011,-0.12824562,0.2891461,2.912792682647705,0.5630773901939392,9.393733978271484,-42.5692253112793,-73.18367004394531, 0.7010180950164795
642,859362863,0.94476146,0.07050681,-0.13955404,0.28806165,3.3358211517333984,-0.1867607682943344,10.0537109375,-25.245962142944336,-74.51112365722656, 1.2524051666259766
643,859379530,0.94336784,0.071202025,-0.15014812,0.2871291,3.920588731765747,-0.3407333195209503,10.084095001220703,-17.642459869384766,-71.74732208251953, 1.2863458395004272
644,859396197,0.9417117,0.07251624,-0.16002873,0.2868994,4.091627597808838,-0.7946619987487793,10.298725128173828,-13.154830932617188,-68.50344848632812, 0.2926364839076996
645,859412864,0.9400538,0.07410368,-0.16943598,0.28652915,4.244356155395508,-1.5967788696289062,9.354776382446289,-10.483980178833008,-66.00667572021484, -0.5614519715309143
646,859429531,0.93816644,0.07678744,-0.17846924,0.28652427,4.802674770355225,-2.1509718894958496,9.1395845413208,-2.190239429473877,-65.8194808959961, 0.8000184297561646
647,859446198,0.93589956,0.08076133,-0.18787494,0.2868324,4.750945568084717,-1.5960009098052979,9.734037399291992,5.893594264984131,-71.06092834472656, 2.150794744491577
648,859462865,0.9333744,0.08504425,-0.1978151,0.28713927,4.965416431427002,-0.6168856620788574,10.000975608825684,7.0841755867004395,-75.42794036865234, 3.0087530612945557
649,859479532,0.9307621,0.089025095,-0.20782462,0.28734246,5.203662395477295,0.31411704421043396,10.08784294128418,4.948633670806885,-75.44830322265625, 3.228731632232666
650,859496199,0.92796326,0.09368022,-0.21793559,0.28742394,5.192216396331787,0.8047646284103394,9.690990447998047,9.082708358764648,-77.7588882446289, 2.2739763259887695
651,859512866,0.9251372,0.09903348,-0.22788157,0.28702578,5.130239963531494,0.8790198564529419,9.700471878051758,14.826069831848145,-78.25611114501953, 1.4353101253509521
652,859529533,0.92193645,0.1056662,-0.23782665,0.28689072,5.340497016906738,1.2343636751174927,9.735758781433105,23.630840301513672,-81.18233489990234, 1.8448460102081299
653,859546200,0.91833216,0.11268393,-0.24805194,0.28712168,5.496431350708008,1.3224523067474365,9.042736053466797,26.404930114746094,-84.11257934570312, 4.539457321166992
654,859562867,0.91442364,0.12033956,-0.25805423,0.28767332,5.697790622711182,1.3909000158309937,9.127900123596191,31.649744033813477,-84.23211669921875, 5.9085259437561035
655,859579534,0.9104298,0.12784137,-0.26783457,0.28816503,5.880336284637451,1.4666025638580322,9.62729263305664,31.08062171936035,-82.732666015625, 5.794924736022949
656,859596201,0.9061175,0.13561343,-0.2776191,0.28894326,6.011581897735596,1.0650591850280762,9.210610389709473,33.56715393066406,-83.63201904296875, 7.730717182159424
657,859612868,0.901471,0.14375609,-0.28720742,0.29016587,6.454068183898926,0.5941537618637085,9.246479988098145,37.424442291259766,-83.37162017822266, 10.274988174438477
658,859629535,0.89648354,0.15199998,-0.296994,0.2915615,6.523955821990967,0.6703686714172363,9.139120101928711,38.3387336730957,-85.30685424804688, 12.023330688476562
659,859646202,0.8912579,0.15943128,-0.30723575,0.2929975,6.712082386016846,0.5564984679222107,8.430574417114258,32.752750396728516,-86.93107604980469, 14.883662223815918
660,859662869,0.8860967,0.16577387,-0.31735134,0.2943464,6.796626567840576,0.42146530747413635,9.051816940307617,26.084125518798828,-83.92407989501953, 16.379009246826172
661,859679536,0.88098085,0.17161602,-0.32730222,0.29545566,7.464162349700928,0.9714336395263672,9.400025367736816,22.800086975097656,-82.08903503417969, 15.728066444396973
662,859696203,0.876125,0.17636684,-0.33716846,0.2960022,7.46919059753418,0.48042309284210205,8.542339324951172,14.79075813293457,-79.44456481933594, 14.145787239074707
663,859712870,0.8713933,0.18138555,-0.34622657,0.29647964,7.842550754547119,0.42338863015174866,8.441131591796875,17.743404388427734,-74.92170715332031, 11.87142562866211
664,859729537,0.8663348,0.18783636,-0.35424873,0.2978078,7.587188720703125,-0.28253108263015747,8.199361801147461,30.873682022094727,-71.3546142578125, 12.9285306930542
665,859746204,0.86094785,0.19591244,-0.36137787,0.29965538,7.948392868041992,0.6335323452949524,8.18698501586914,44.08216094970703,-69.49836730957031, 11.573502540588379
666,859762871,0.8554407,0.20424834,-0.36843225,0.30126712,8.165129661560059,0.9058964252471924,8.10396957397461,45.35454559326172,-70.21358489990234, 9.676008224487305
667,859779538,0.85007274,0.21223758,-0.37516525,0.30262625,8.481365203857422,1.4662171602249146,8.722983360290527,43.14870071411133,-67.61271667480469, 8.326628684997559
668,859796205,0.8453748,0.21867768,-0.3813443,0.30347654,8.791816711425781,2.0942275524139404,8.79007339477539,32.95780563354492,-60.176937103271484, 7.148004055023193
669,859812872,0.84192824,0.22656618,-0.3833936,0.30468664,9.355382919311523,3.218174695968628,9.300806999206543,49.05379867553711,-35.3852424621582, -3.372403621673584
670,859829539,0.83691806,0.23643887,-0.38812754,0.3049952,8.358783721923828,3.7471847534179688,5.161944389343262,54.96967697143555,-60.62211608886719, -6.349103927612305
671,859846206,0.83096415,0.2453383,-0.39544457,0.30484682,10.01506233215332,5.071417331695557,3.3797647953033447,44.254249572753906,-76.6956787109375, -0.1845317929983139
672,859862873,0.8254725,0.2508985,-0.40449858,0.30335805,11.090332984924316,5.543149948120117,2.5382323265075684,17.08986473083496,-80.5921859741211, 3.222635507583618
673,859879540,0.8209478,0.25389424,-0.41349193,0.3010095,10.627541542053223,4.27079963684082,4.401723384857178,-1.4218776226043701,-73.65086364746094, 3.3793463706970215
674,859896207,0.81900555,0.25516498,-0.41851634,0.29827,10.630634307861328,5.706546783447266,15.048490524291992,-8.576529502868652,-40.99786376953125, -6.17935848236084
675,859912874,0.8151273,0.2645159,-0.41946286,0.2994159,7.768489360809326,1.7746890783309937,10.494824409484863,59.86051559448242,-33.4261360168457, -10.704254150390625
676,859929541,0.81052125,0.27681154,-0.41814518,0.30263108,9.620487213134766,4.450970649719238,6.952642440795898,88.32813262939453,-25.177642822265625, -10.213984489440918
677,859946208,0.80843633,0.28460753,-0.4161478,0.30372754,9.879693984985352,5.907567024230957,9.065845489501953,53.76859664916992,-8.815951347351074, -15.601804733276367
678,859962875,0.8088778,0.2879471,-0.41351137,0.3030044,9.69313907623291,3.67263126373291,10.50434684753418,20.17428207397461,7.686657428741455, -19.45962905883789
679,859979542,0.8100696,0.29222232,-0.40815955,0.30298424,9.31381607055664,2.5768141746520996,10.718310356140137,31.552539825439453,24.326791763305664, -25.1395206451416
680,859996209,0.8125637,0.29587945,-0.40077534,0.30261323,8.973819732666016,3.2774744033813477,9.798017501831055,28.754215240478516,39.844627380371094, -32.152015686035156
681,860012876,0.81731254,0.29601455,-0.39248866,0.3005469,8.78962516784668,3.233802556991577,9.311036109924316,1.7033038139343262,54.94626235961914, -38.440040588378906
682,860029543,0.8237689,0.29336444,-0.38329464,0.2973675,8.41026782989502,3.1066157817840576,9.18935775756836,-18.545560836791992,68.11393737792969, -42.551578521728516
683,860046210,0.8313326,0.28908503,-0.37290904,0.29369196,8.030808448791504,2.8622424602508545,8.772117614746094,-28.871301651000977,80.083984375, -45.7364501953125
684,860062877,0.8392754,0.28470165,-0.36092475,0.2903366,7.640148639678955,2.2664966583251953,8.328643798828125,-26.1630916595459,91.01636505126953, -47.585941314697266
685,860079544,0.84729177,0.28015965,-0.34748453,0.28785744,7.279748916625977,1.614122748374939,7.885756969451904,-22.132551193237305,101.61368560791016, -45.13979721069336
686,860096211,0.8552638,0.2752273,-0.33276933,0.2864234,7.1148295402526855,1.3590167760849,8.043601989746094,-19.290895462036133,111.70771026611328, -40.49848175048828
687,860112878,0.862727,0.27095854,-0.31668428,0.2863475,7.344564914703369,1.5397120714187622,8.422626495361328,-8.607034683227539,119.85001373291016, -35.631263732910156
688,860129545,0.8696994,0.26736847,-0.29935682,0.28726766,7.122382640838623,1.9520198106765747,8.689247131347656,0.9589523673057556,126.66260528564453, -32.55903244018555
689,860146212,0.8768208,0.26273197,-0.28107306,0.2883669,6.6829118728637695,2.58807635307312,9.239775657653809,-3.3050179481506348,135.0762939453125, -31.393070220947266
690,860162879,0.8838579,0.25748575,-0.26183662,0.28972074,6.018747329711914,2.9361376762390137,8.899124145507812,-4.441048622131348,142.31646728515625, -30.235694885253906
691,860179546,0.89138263,0.2495426,-0.24229796,0.29061535,5.9315361976623535,3.1561777591705322,8.488953590393066,-21.916648864746094,149.58314514160156, -29.678159713745117
692,860196213,0.89890015,0.23994434,-0.22238737,0.29146054,5.804250717163086,2.754973888397217,7.9823408126831055,-31.389066696166992,155.07101440429688, -27.84922218322754
693,860212880,0.90618783,0.22892843,-0.2023626,0.29234362,5.775911331176758,2.3739511966705322,7.4821271896362305,-39.48634338378906,158.3324737548828, -25.180675506591797
694,860229547,0.91302824,0.21714409,-0.18212898,0.2933547,5.661934852600098,2.707890748977661,7.946589469909668,-42.972896575927734,160.76710510253906, -22.752187728881836
695,860246214,0.9192093,0.20515339,-0.161805,0.29459408,5.2229180335998535,2.6092967987060547,7.883127689361572,-42.81838607788086,161.27613830566406, -19.87344741821289
696,860262881,0.9249141,0.1923201,-0.1413805,0.29590297,4.811393737792969,2.870569944381714,8.790603637695312,-47.19508361816406,163.19818115234375, -17.681331634521484
697,860279548,0.9295998,0.1801481,-0.12031908,0.2981853,4.5498881340026855,2.6175825595855713,8.534937858581543,-41.42619323730469,164.55873107910156, -16.510908126831055
698,860296215,0.9337701,0.16817449,-0.0993141,0.29987898,4.350447654724121,2.4232726097106934,7.644149303436279,-39.2288703918457,163.2744903564453, -17.383638381958008
699,860312882,0.9373965,0.15646504,-0.07881991,0.300988,4.26188850402832,2.348980665206909,7.433657646179199,-37.8074951171875,158.85157775878906, -18.17605209350586
700,860329549,0.94061667,0.14456573,-0.05915779,0.30139956,3.774348497390747,2.3086328506469727,7.836489200592041,-40.14154052734375,153.5164031982422, -18.633813858032227
701,860346216,0.94334435,0.13281971,-0.04039085,0.30137894,3.370854616165161,2.6873679161071777,8.132225036621094,-40.6961555480957,146.7973175048828, -19.58926010131836
702,860362883,0.94563276,0.12092447,-0.022842368,0.30105534,2.681614875793457,2.3952252864837646,7.843206405639648,-43.87940216064453,138.8223876953125, -19.49610137939453
703,860379550,0.9473151,0.10985315,-0.0060951742,0.30081457,1.9685943126678467,1.5007953643798828,7.843117713928223,-39.67020797729492,131.89561462402344, -17.172203063964844
704,860396217,0.9481557,0.10215349,0.010622848,0.30075398,1.233646273612976,0.9264151453971863,7.340888023376465,-17.124801635742188,124.84393310546875, -14.382691383361816
705,860412884,0.9483387,0.09703074,0.026954914,0.3008531,0.743125319480896,1.2373782396316528,6.915345191955566,-0.6686522364616394,117.16767883300781, -11.524600982666016
