PacketCounter,SampleTimeFine,Quat_W,Quat_X,Quat_Y,Quat_Z,Acc_X,Acc_Y,Acc_Z,Gyr_X,Gyr_Y,Gyr_Z 
1,541918928,0.08181724,-0.24442515,0.07144685,-0.9635651,-0.21301856637001038,-0.10351550579071045,0.2477715015411377,-0.11806199699640274,0.0386815145611763, -0.39132097363471985
2,541935595,0.08060148,-0.240136,0.06964225,-0.9648773,4.594060897827148,-1.212196707725525,7.9932403564453125,-1.376076102256775,41.54420852661133, -1.8327534198760986
3,541952262,0.07810895,-0.23673604,0.06659951,-0.96613646,4.671487331390381,-1.2089301347732544,8.019266128540039,-2.446542978286743,45.48490905761719, -3.938122034072876
4,541968929,0.07511328,-0.23327658,0.06355496,-0.9674198,4.835556983947754,-1.3334593772888184,7.973577976226807,0.7343927621841431,49.16889572143555, -6.172726154327393
5,541985596,0.071837984,-0.22971895,0.061452124,-0.96865493,5.229169845581055,-1.2320853471755981,7.972731113433838,2.3899128437042236,53.13936233520508, -8.005970001220703
6,542002263,0.068053745,-0.22642434,0.059603103,-0.9698188,5.317797660827637,-1.2548531293869019,8.124201774597168,3.820005416870117,56.48174285888672, -9.449734687805176
7,542018930,0.06555806,-0.22285819,0.057371955,-0.9709506,5.1837239265441895,-0.9984950423240662,8.03836727142334,6.887850284576416,59.240997314453125, -10.768128395080566
8,542035597,0.063059084,-0.21869536,0.05498166,-0.9722001,4.8619771003723145,-0.976586639881134,8.09765338897705,7.975195407867432,61.23625183105469, -11.343330383300781
9,542052264,0.06091419,-0.21357718,0.0521559,-0.9736294,4.559934616088867,-1.0979877710342407,7.866715431213379,12.256531715393066,63.15837097167969, -10.479912757873535
10,542068931,0.05911032,-0.20765804,0.049689524,-0.97514874,5.026495456695557,-1.2901980876922607,8.013859748840332,12.378113746643066,64.78707885742188, -8.995347023010254
11,542085598,0.057642102,-0.20129848,0.047522593,-0.976677,5.1248779296875,-1.0157419443130493,8.32463550567627,13.171529769897461,67.21466827392578, -7.398772716522217
12,542102265,0.056305174,-0.19469512,0.045801163,-0.9781748,4.904878616333008,-0.6941198110580444,8.446954727172852,10.748812675476074,68.32516479492188, -6.18572473526001
13,542118932,0.055149935,-0.18790859,0.044094518,-0.9796452,4.554359436035156,-0.7380043268203735,8.529702186584473,10.24099349975586,68.11776733398438, -4.908231258392334
14,542135599,0.05418924,-0.18077978,0.041782264,-0.98114055,4.354331016540527,-1.1088967323303223,8.366158485412598,14.54249382019043,68.20494842529297, -4.6120686531066895
15,542152266,0.053458717,-0.17331307,0.039604932,-0.9826172,4.706775188446045,-1.4559613466262817,8.546903610229492,15.062970161437988,68.8528060913086, -3.5045700073242188
16,542168933,0.05287167,-0.16555953,0.037492007,-0.9840677,4.526442050933838,-1.3127665519714355,8.840460777282715,16.438833236694336,70.33008575439453, -3.090869188308716
17,542185600,0.05234483,-0.15774372,0.03573507,-0.9854443,4.529626369476318,-1.0640629529953003,8.90526008605957,14.949921607971191,70.02096557617188, -2.6870641708374023
18,542202267,0.05170275,-0.15008353,0.03407124,-0.98673254,4.230111122131348,-0.7218486070632935,9.111285209655762,14.3629732131958,68.44062805175781, -3.569524049758911
19,542218934,0.050985817,-0.142764,0.032818973,-0.9878978,4.408538818359375,-0.9862205386161804,9.250834465026855,11.037087440490723,65.33545684814453, -3.722851037979126
20,542235601,0.049962148,-0.13589421,0.03095893,-0.9889784,5.189703464508057,-0.6537802219390869,10.30494213104248,14.847272872924805,61.69655990600586, -6.607005596160889
21,542252268,0.048852902,-0.1300857,0.028685167,-0.98988295,4.275584697723389,-0.6651592254638672,9.75578784942627,16.822391510009766,54.56584167480469, -7.688265800476074
22,542268935,0.047848348,-0.12457424,0.02629776,-0.990707,3.4875550270080566,-0.6939079761505127,9.369712829589844,17.421642303466797,51.896244049072266, -7.188857078552246
23,542285602,0.046938635,-0.11912969,0.02399752,-0.9914783,2.9349091053009033,-0.29362305998802185,9.144855499267578,16.87740707397461,50.337772369384766, -6.609448432922363
24,542302269,0.045977976,-0.11392946,0.022141607,-0.9921775,3.157355546951294,-0.14659997820854187,9.031070709228516,13.410165786743164,47.493896484375, -6.678774833679199
25,542318936,0.045173403,-0.10908391,0.02072585,-0.9927894,2.8696858882904053,-0.14327460527420044,9.170828819274902,10.088359832763672,44.35260009765625, -5.316902160644531
26,542335603,0.04454979,-0.104673095,0.020290207,-0.99330115,2.401993989944458,-0.17403271794319153,10.04135513305664,3.162630081176758,40.74522399902344, -3.406893491744995
27,542352270,0.04462229,-0.1007722,0.019786347,-0.9937115,1.4815970659255981,-1.3023052215576172,9.743180274963379,3.801934242248535,35.93678665161133, 1.2136825323104858
28,542368937,0.045305934,-0.096743986,0.017330045,-0.99412674,2.2001516819000244,-1.277417540550232,9.05545425415039,18.266624450683594,34.65602493286133, 3.8121323585510254
29,542385604,0.04567352,-0.09232302,0.015116158,-0.9945663,2.4799633026123047,1.1176344156265259,9.276243209838867,17.0933780670166,36.82151794433594, 1.6778526306152344
30,542402271,0.04596805,-0.08859416,0.015472916,-0.9948863,2.3435497283935547,0.923807680606842,9.822383880615234,-1.6654080152511597,32.45290756225586, 2.9117586612701416
31,542418938,0.04630173,-0.084892355,0.014137942,-0.99521345,2.1337568759918213,-0.5524876117706299,10.279654502868652,9.280086517333984,31.31570816040039, 2.227295160293579
32,542435605,0.04598769,-0.08015572,0.007746425,-0.9956908,1.7227309942245483,-0.604832649230957,10.378467559814453,44.055335998535156,36.462799072265625, -5.212821960449219
33,542452272,0.045153834,-0.07505836,-0.0019469283,-0.9961546,0.7882406711578369,-0.44373029470443726,8.857373237609863,66.72074127197266,37.33139419555664, -10.71678352355957
34,542468939,0.04379399,-0.069385655,-0.011064609,-0.99656683,1.0169672966003418,0.22192801535129547,9.091316223144531,62.89714431762695,40.645809173583984, -14.146682739257812
35,542485606,0.0430384,-0.0639106,-0.017749555,-0.9968692,0.526760458946228,0.24657484889030457,8.792739868164062,46.441715240478516,39.47092056274414, -8.85782241821289
36,542502273,0.04206399,-0.05833747,-0.02290729,-0.9971474,1.0452215671539307,0.8801681995391846,9.303888320922852,35.94244384765625,39.94170379638672, -9.726563453674316
37,542518940,0.041347254,-0.05293105,-0.02576521,-0.9974092,0.795955240726471,0.7728168964385986,9.206209182739258,20.07229232788086,39.17009735107422, -7.006658554077148
38,542535607,0.040608797,-0.04734743,-0.027563605,-0.997672,0.7348868250846863,0.8580592274665833,9.456549644470215,12.778571128845215,40.34597396850586, -6.800752639770508
39,542552274,0.03954687,-0.041611236,-0.030559417,-0.99788326,0.22361373901367188,0.5004768371582031,9.215431213378906,20.870906829833984,40.688232421875, -9.422870635986328
40,542568941,0.038568873,-0.03606198,-0.0330406,-0.9980584,0.1503583788871765,0.31930339336395264,9.444615364074707,17.390518188476562,39.171512603759766, -8.654922485351562
41,542585608,0.038089428,-0.030377632,-0.03439078,-0.9982203,0.11370445787906647,0.14441385865211487,9.418712615966797,9.932876586914062,40.17673873901367, -4.985657215118408
42,542602275,0.037798196,-0.024346892,-0.035454668,-0.9983595,0.27062517404556274,0.42214876413345337,9.125104904174805,8.29200553894043,42.39740753173828, -3.7144546508789062
43,542618942,0.037519287,-0.017997904,-0.036129247,-0.9984805,0.3155735731124878,0.8260198831558228,9.023643493652344,5.800363540649414,44.522342681884766, -3.638899087905884
44,542635609,0.03729324,-0.011554186,-0.035335895,-0.99861264,0.10974597185850143,0.9197980761528015,9.654367446899414,-4.272063255310059,45.46635437011719, -3.117716073989868
45,542652276,0.037273362,-0.005493416,-0.033404328,-0.9987315,-0.00823136791586876,0.7062144875526428,9.897823333740234,-12.197352409362793,43.060611724853516, -1.508867621421814
46,542668943,0.037507337,0.0003390817,-0.030725384,-0.9988238,0.03265734761953354,0.5219678282737732,10.490105628967285,-17.348718643188477,41.63692092895508, 0.327006071805954
47,542685610,0.0377008,0.006007503,-0.029923553,-0.99882287,-0.14949896931648254,-0.11535345762968063,10.086694717407227,-4.416320323944092,39.960079193115234, 0.11172964423894882
48,542702277,0.037551694,0.011671877,-0.031089459,-0.9987427,-0.23151998221874237,0.24741999804973602,9.826839447021484,9.315346717834473,39.28887176513672, -2.134728193283081
49,542718944,0.037685268,0.017436791,-0.032404862,-0.9986119,-0.15747278928756714,0.07184656709432602,10.151107788085938,10.445311546325684,39.951358795166016, -0.18829289078712463
50,542735611,0.0382709,0.022693904,-0.034745183,-0.9984053,-0.7262136340141296,-0.17771336436271667,10.055575370788574,17.44172477722168,36.30115509033203, 3.173104763031006
51,542752278,0.038860906,0.02717223,-0.03743098,-0.9981736,-0.6542630195617676,0.8725592494010925,10.429423332214355,19.78710174560547,30.76816177368164, 3.4620399475097656
52,542768945,0.03959646,0.030748371,-0.038947947,-0.99798286,-0.8060600161552429,1.308286428451538,10.603553771972656,11.455406188964844,24.863037109375, 4.465848922729492
53,542785612,0.040414196,0.0329986,-0.03942773,-0.99785954,-1.0152555704116821,1.2039711475372314,10.265474319458008,3.8433239459991455,15.99354076385498, 5.147101402282715
54,542802279,0.041281845,0.03383949,-0.039354682,-0.99779856,-1.080539584159851,1.0214753150939941,10.297430992126465,-0.44149908423423767,6.3904924392700195, 5.731375217437744
55,542818946,0.04195222,0.03330201,-0.04104394,-0.9977208,-1.258852481842041,0.2055850625038147,10.404272079467773,11.275146484375,-3.700500011444092, 5.171329021453857
56,542835613,0.04165027,0.031561803,-0.046073012,-0.9975704,-1.199294924736023,0.351044237613678,9.923710823059082,34.195167541503906,-13.279248237609863, -0.35866907238960266
57,542852280,0.04080578,0.029061463,-0.05206799,-0.99738634,-1.0448555946350098,0.7791789174079895,9.783148765563965,40.815673828125,-19.031679153442383, -3.6061017513275146
58,542868947,0.04014436,0.026675688,-0.057201672,-0.9971985,-0.8666122555732727,0.9903774261474609,9.494565963745117,34.9308967590332,-18.01167869567871, -2.5536000728607178
59,542885614,0.039655156,0.024415405,-0.061502922,-0.99702007,-1.0003361701965332,1.1185996532440186,8.951756477355957,29.224533081054688,-16.905920028686523, -1.5702695846557617
60,542902281,0.039214782,0.022754094,-0.065503046,-0.99682194,-0.9314275979995728,1.298673391342163,8.116029739379883,27.309463500976562,-12.772223472595215, -1.525612473487854
61,542918948,0.039032646,0.02192274,-0.068260826,-0.9966627,-0.9695054888725281,1.0288091897964478,8.17129135131836,18.915781021118164,-6.7117791175842285, -0.32462865114212036
62,542935615,0.03913985,0.022111675,-0.069421396,-0.9965741,-1.0118024349212646,1.316664218902588,8.300541877746582,8.173583984375,0.7571051120758057, 0.93178391456604
63,542952282,0.039156582,0.022924248,-0.07035494,-0.9964896,-1.053173542022705,1.872318983078003,8.625822067260742,6.769532680511475,4.9701385498046875, -0.01100065466016531
64,542968949,0.03927791,0.024207888,-0.07158436,-0.9963669,-0.8558284640312195,1.1283190250396729,8.865104675292969,8.832626342773438,8.099258422851562, 0.541804850101471
65,542985616,0.039374154,0.02645373,-0.072901346,-0.9962105,-0.6140333414077759,1.6818002462387085,8.63808822631836,9.731791496276855,14.620237350463867, -0.07038377225399017
66,543002283,0.03968642,0.029463386,-0.073149785,-0.99609554,-0.7937563061714172,1.9974113702774048,8.97831916809082,2.5046117305755615,20.237550735473633, 0.8186662197113037
67,543018950,0.04030537,0.032886352,-0.07263302,-0.9960013,-0.9755337834358215,1.8521993160247803,9.034303665161133,-2.7792651653289795,23.407880783081055, 2.54876971244812
68,543035617,0.041125525,0.03655438,-0.07141145,-0.9959281,-0.8600127696990967,1.4481793642044067,9.225732803344727,-7.65373420715332,25.34395980834961, 3.6382861137390137
69,543052284,0.04216603,0.04053001,-0.06945306,-0.9958693,-0.7999162673950195,1.0439304113388062,9.352852821350098,-12.680529594421387,27.755069732666016, 4.804695129394531
70,543068951,0.043124776,0.04451791,-0.067189075,-0.9958133,-1.0052562952041626,1.053704023361206,10.186351776123047,-14.706903457641602,27.896499633789062, 4.150341987609863
71,543085618,0.044341274,0.048483536,-0.06416255,-0.9957743,-1.1336500644683838,0.7613406777381897,10.446340560913086,-19.97380256652832,28.08452606201172, 5.6868181228637695
72,543102285,0.04583225,0.052110747,-0.060890745,-0.99572897,-1.266589879989624,0.8501791954040527,10.003083229064941,-21.76910972595215,25.963172912597656, 7.638001918792725
73,543118952,0.04708682,0.055284064,-0.05807703,-0.9956675,-1.3487279415130615,1.1170293092727661,9.74766731262207,-18.63599967956543,22.60481071472168, 6.380777359008789
74,543135619,0.048240762,0.05793427,-0.05485594,-0.9956442,-1.3244364261627197,1.2616894245147705,9.699942588806152,-21.56376838684082,19.083778381347656, 5.73332405090332
75,543152286,0.049532,0.060247477,-0.050834388,-0.995657,-1.4252386093139648,1.3445359468460083,9.819660186767578,-27.238311767578125,17.07124137878418, 6.463370323181152
76,543168953,0.051084414,0.06253506,-0.046186853,-0.9956639,-1.4502443075180054,1.1189243793487549,9.55068302154541,-31.667348861694336,17.190513610839844, 7.995305061340332
77,543185620,0.052635893,0.0649945,-0.041659936,-0.9956253,-1.380614161491394,0.8603660464286804,9.1979398727417,-30.782190322875977,18.33085823059082, 7.995510101318359
78,543202287,0.05394713,0.06747754,-0.038158696,-0.99553037,-1.7145389318466187,0.6798686385154724,9.18637752532959,-23.629600524902344,18.072795867919922, 6.818360805511475
79,543218954,0.05483787,0.06978332,-0.035813324,-0.9954097,-1.8882941007614136,0.6634543538093567,9.173896789550781,-15.571128845214844,16.2983455657959, 4.53169584274292
80,543235621,0.055427223,0.07188272,-0.03407021,-0.9952889,-1.877630591392517,0.4774160385131836,9.547355651855469,-11.375395774841309,14.53939437866211, 2.8107733726501465
81,543252288,0.055962354,0.07400917,-0.032942496,-0.9951411,-1.8479769229888916,0.6256412863731384,9.465517044067383,-7.095953941345215,14.457070350646973, 2.7522854804992676
82,543268955,0.056476552,0.07613352,-0.03210864,-0.99497896,-1.8997836112976074,0.6647508144378662,9.277473449707031,-5.06572151184082,14.305593490600586, 2.765936851501465
83,543285622,0.056755055,0.07818988,-0.032081094,-0.99480456,-1.8910154104232788,0.5846061706542969,9.08150577545166,0.5497961640357971,13.452394485473633, 1.597727656364441
84,543302289,0.056955874,0.080225885,-0.03226989,-0.99462485,-1.8635139465332031,0.27039864659309387,9.275646209716797,2.0705127716064453,13.187724113464355, 1.1917787790298462
85,543318956,0.057065863,0.08220815,-0.032339923,-0.9944545,-1.897599458694458,0.3360302150249481,9.53091812133789,1.3218656778335571,12.824380874633789, 0.5219423174858093
86,543335623,0.057129763,0.084124774,-0.032090396,-0.9942985,-1.8063075542449951,0.6207404136657715,9.682820320129395,-0.8343340158462524,12.469886779785156, 0.04225457087159157
87,543352290,0.05725591,0.08591956,-0.03155688,-0.9941549,-1.8324215412139893,0.6831462383270264,9.63627815246582,-2.8560731410980225,11.756458282470703, 0.32583850622177124
88,543368957,0.05737089,0.08742861,-0.030932657,-0.9940363,-1.9282947778701782,0.6887376308441162,9.467506408691406,-3.5875210762023926,9.822749137878418, 0.24654152989387512
89,543385624,0.057481833,0.08863389,-0.030483823,-0.993937,-2.054367780685425,0.5616544485092163,9.488663673400879,-2.5131311416625977,7.657743453979492, 0.3813283443450928
90,543402291,0.057697695,0.08968872,-0.030180844,-0.9938391,-2.1598660945892334,0.5086624622344971,9.601824760437012,-1.6320414543151855,6.577284812927246, 1.2211943864822388
91,543418958,0.057966594,0.09063261,-0.029836211,-0.99374825,-2.1453397274017334,0.39987003803253174,9.379987716674805,-1.9825512170791626,5.821390151977539, 1.580835223197937
92,543435625,0.058139924,0.09147168,-0.029453875,-0.99367267,-2.1609621047973633,0.34307029843330383,9.294459342956543,-2.2058942317962646,5.069746494293213, 0.9236516952514648
93,543452292,0.05829004,0.09228179,-0.028792348,-0.9936083,-2.1524128913879395,0.3048265874385834,9.37201976776123,-4.089439868927002,4.949827671051025, 0.5961677432060242
94,543468959,0.058468446,0.093067266,-0.02777427,-0.9935536,-2.130810022354126,0.48573625087738037,9.289804458618164,-6.529818058013916,4.905364036560059, 0.5693384408950806
95,543485626,0.058761403,0.09380685,-0.026151557,-0.99351084,-2.0406413078308105,0.6224002242088318,9.213537216186523,-10.746389389038086,4.832599639892578, 0.9705104231834412
96,543502293,0.05923675,0.094580986,-0.023953525,-0.99346447,-1.9888676404953003,0.6596277356147766,9.068902969360352,-14.784775733947754,5.326850414276123, 1.8362208604812622
97,543518960,0.059884567,0.09543476,-0.021149242,-0.9934077,-1.9638783931732178,0.4889479875564575,9.068236351013184,-19.015947341918945,6.146640300750732, 2.6047959327697754
98,543535627,0.06036369,0.09661945,-0.018939698,-0.9933088,-1.9675273895263672,0.3367123007774353,9.337329864501953,-14.702458381652832,8.16224479675293, 1.8078932762145996
99,543552294,0.060665872,0.09814178,-0.017932113,-0.9931598,-2.239562749862671,0.17425589263439178,9.37584114074707,-6.221226215362549,9.982132911682129, 1.3731105327606201
100,543568961,0.06098769,0.0996328,-0.017031942,-0.9930073,-2.292020320892334,0.18802234530448914,9.550314903259277,-5.494822978973389,9.71207046508789, 1.5898576974868774
101,543585628,0.06140167,0.10096088,-0.015844647,-0.9928674,-2.264589548110962,0.2742547392845154,9.664451599121094,-7.571259021759033,8.706971168518066, 2.0390214920043945
102,543602295,0.06196358,0.10203309,-0.014497679,-0.99274343,-2.2809300422668457,0.20922359824180603,9.618131637573242,-8.86514663696289,7.023727893829346, 2.9602465629577637
103,543618962,0.06252362,0.102641195,-0.012931203,-0.9926674,-2.4283688068389893,0.08106144517660141,9.619746208190918,-10.552961349487305,3.9064314365386963, 2.8196840286254883
104,543635629,0.06296168,0.10268523,-0.011510954,-0.99265265,-2.5418059825897217,0.020000793039798737,9.616917610168457,-9.697355270385742,-0.07939939200878143, 2.1167428493499756
105,543652296,0.06327685,0.102155946,-0.0102464175,-0.992701,-2.4685375690460205,0.09037669748067856,9.610233306884766,-8.779088020324707,-4.141049861907959, 1.408718228340149
106,543668963,0.06360186,0.10115713,-0.009114393,-0.9927936,-2.4649410247802734,0.12403309345245361,9.517789840698242,-8.074625015258789,-7.455284118652344, 1.5841269493103027
107,543685630,0.06392025,0.09975669,-0.008302716,-0.9929219,-2.3693294525146484,0.15353448688983917,9.39089584350586,-6.051285266876221,-10.385468482971191, 1.770830750465393
108,543702297,0.06420603,0.09808357,-0.0077327536,-0.9930748,-2.240865468978882,0.08496923744678497,9.249171257019043,-4.494288921356201,-12.391932487487793, 1.7182482481002808
109,543718964,0.06445896,0.09634206,-0.0073917178,-0.99323153,-2.1402840614318848,0.15423841774463654,9.17858600616455,-2.9300689697265625,-12.978616714477539, 1.6511813402175903
110,543735631,0.06469453,0.09466802,-0.006951315,-0.99338025,-2.0456554889678955,0.18570083379745483,9.136813163757324,-3.5634067058563232,-12.479729652404785, 1.4660396575927734
111,543752298,0.064970575,0.09318957,-0.0062842914,-0.9935066,-1.9685107469558716,0.16877348721027374,9.113038063049316,-5.0490851402282715,-11.033214569091797, 1.5940519571304321
112,543768965,0.06524949,0.09193592,-0.0054231663,-0.9936101,-1.9436990022659302,0.10528646409511566,9.048982620239258,-6.274550437927246,-9.399608612060547, 1.4872339963912964
113,543785632,0.06552738,0.090934865,-0.004440652,-0.9936888,-1.9213294982910156,0.14358048141002655,9.087508201599121,-6.984739780426025,-7.608422756195068, 1.4039415121078491
114,543802299,0.06584077,0.090304784,-0.0034062443,-0.9937296,-1.797052264213562,0.08346403390169144,9.14612102508545,-7.193341255187988,-5.029848575592041, 1.618844747543335
115,543818966,0.06619234,0.09001607,-0.002648696,-0.9937348,-1.854893684387207,0.011342369019985199,9.223723411560059,-5.166786193847656,-2.7952165603637695, 2.057077646255493
116,543835633,0.0660962,0.09016515,-0.0034683552,-0.99372524,-1.9063341617584229,-0.14107784628868103,9.696165084838867,6.09299898147583,-0.5199633836746216, -0.024767480790615082
117,543852300,0.06541208,0.09038148,-0.006601812,-0.993735,-2.2055954933166504,-0.2232716977596283,9.842743873596191,22.315595626831055,-1.134209156036377, -2.6103100776672363
118,543868967,0.064253524,0.09039023,-0.011591378,-0.99376404,-2.1497344970703125,-0.30412721633911133,9.885229110717773,35.226280212402344,-3.4357025623321533, -4.682867527008057
119,543885634,0.0630931,0.089632906,-0.01659676,-0.9938359,-2.1631760597229004,-0.046251051127910614,9.837124824523926,35.03402328491211,-8.713532447814941, -4.627954959869385
120,543902301,0.062310293,0.08798006,-0.02004316,-0.99396944,-1.956908941268921,0.3770563304424286,9.69157886505127,23.781221389770508,-14.164003372192383, -2.918856620788574
121,543918968,0.061809488,0.085432775,-0.02175032,-0.9941872,-1.9903734922409058,0.8133571147918701,9.661897659301758,11.33311653137207,-19.54640769958496, -1.9526646137237549
122,543935635,0.06155067,0.08225608,-0.022256678,-0.99445987,-1.8397141695022583,0.7380785942077637,9.805537223815918,2.6830315589904785,-23.344013214111328, -0.9356082677841187
123,543952302,0.061534423,0.07851445,-0.022430737,-0.99475926,-1.8021409511566162,0.32971325516700745,9.892264366149902,0.013696424663066864,-27.046039581298828, 0.6037760376930237
124,543968969,0.061587784,0.07413979,-0.022766719,-0.9950839,-1.7789016962051392,0.04795209690928459,9.9251708984375,0.8235342502593994,-31.450119018554688, 1.2533808946609497
125,543985636,0.06148714,0.06927282,-0.024001623,-0.9954118,-1.4919970035552979,0.22948965430259705,10.039753913879395,6.874409198760986,-35.23148727416992, 0.7362339496612549
126,544002303,0.061162576,0.06380027,-0.026263878,-0.9957404,-1.5821537971496582,0.493003785610199,9.820231437683105,13.775778770446777,-39.839969635009766, -0.20564565062522888
127,544018970,0.060828306,0.05778753,-0.028218724,-0.99607456,-1.2527176141738892,0.303435742855072,9.844895362854004,11.450321197509766,-43.42108917236328, -0.31277164816856384
128,544035637,0.060685616,0.051698968,-0.02998427,-0.99636626,-1.0847432613372803,0.2813436985015869,9.647825241088867,10.072585105895996,-43.800445556640625, 0.9557190537452698
129,544052304,0.060503185,0.04594137,-0.032032434,-0.99659556,-0.9196469783782959,0.16848810017108917,9.260612487792969,12.19419002532959,-41.62895202636719, 0.740781843662262
130,544068971,0.06010391,0.04067977,-0.03517386,-0.9967425,-0.7340346574783325,0.3926014304161072,9.157793998718262,20.006195068359375,-38.69785690307617, -0.4727495312690735
131,544085638,0.059592158,0.03596835,-0.038658924,-0.99682534,-0.8262717127799988,0.3631003201007843,8.9798583984375,22.65058135986328,-35.065059661865234, -1.2549145221710205
132,544102305,0.05909979,0.03219395,-0.0416887,-0.9968615,-0.6369093060493469,0.946040153503418,8.772317886352539,19.941255569458008,-28.439434051513672, -1.4583804607391357
133,544118972,0.058924783,0.029379252,-0.042920362,-0.9969065,-0.7295748591423035,1.0489075183868408,8.707684516906738,7.91668701171875,-21.036388397216797, 0.03734978660941124
134,544135639,0.058790237,0.027419098,-0.043993507,-0.9969235,-0.7789586186408997,1.3840433359146118,8.187360763549805,7.153512001037598,-15.103014945983887, 0.038412678986787796
135,544152306,0.058996726,0.026416682,-0.043735117,-0.9969498,-0.9309184551239014,0.6010127663612366,8.380474090576172,-1.7003506422042847,-7.913225173950195, 1.8246043920516968
136,544168973,0.059311893,0.026453292,-0.04318635,-0.996954,-1.0045098066329956,0.3069281280040741,8.362184524536133,-3.275979995727539,-0.6620755791664124, 2.2107670307159424
137,544185640,0.05967199,0.027616676,-0.042255227,-0.9969409,-0.7662292122840881,0.4330568313598633,8.803315162658691,-5.4162421226501465,7.205167293548584, 2.142496347427368
138,544202307,0.060125448,0.029702296,-0.040776618,-0.9969152,-0.6515716910362244,0.5910750031471252,9.172802925109863,-8.78503704071045,13.764989852905273, 2.373793840408325
139,544218974,0.06071185,0.032193605,-0.038685758,-0.9968857,-0.5341759324073792,0.46121323108673096,9.42982006072998,-12.832763671875,16.836620330810547, 3.058129072189331
140,544235641,0.061284766,0.03497971,-0.037064537,-0.9968185,-0.6393756866455078,0.5082128643989563,9.528457641601562,-9.463600158691406,18.677738189697266, 3.024179458618164
141,544252308,0.0616143,0.037856966,-0.036636524,-0.99670875,-0.7002745270729065,0.6730030179023743,9.766242980957031,-1.168375849723816,18.756183624267578, 1.649658203125
142,544268975,0.061796438,0.04050531,-0.036807243,-0.9965871,-0.8588128089904785,0.7068998217582703,9.590656280517578,2.8755345344543457,16.912166595458984, 0.9140734672546387
143,544285642,0.061959404,0.042754687,-0.03663403,-0.9964894,-0.786063551902771,0.787300705909729,9.669736862182617,0.3402329385280609,14.319540023803711, 0.858057975769043
144,544302309,0.062218655,0.04464096,-0.03576524,-0.9964222,-0.6976163983345032,0.6992507576942444,10.182321548461914,-4.615026473999023,12.14305591583252, 1.2781319618225098
145,544318976,0.062631436,0.045958806,-0.034539912,-0.9963795,-0.7936214208602905,0.5831377506256104,10.229680061340332,-7.348926544189453,8.446667671203613, 2.2926383018493652
146,544335643,0.06308659,0.046500646,-0.033112116,-0.99637425,-0.9992416501045227,0.2898389399051666,10.070969581604004,-9.087132453918457,3.2330472469329834, 2.71057391166687
147,544352310,0.06353528,0.04641974,-0.031955987,-0.9963871,-1.0472276210784912,0.26741111278533936,9.950757026672363,-7.474760055541992,-1.1560165882110596, 2.8888888359069824
148,544368977,0.064070486,0.045723576,-0.030456629,-0.99643207,-1.0262771844863892,0.383656769990921,9.659734725952148,-10.109734535217285,-5.211226463317871, 3.530482292175293
149,544385644,0.06468819,0.044498406,-0.02823355,-0.99651307,-1.0069069862365723,0.40241923928260803,9.705925941467285,-15.32440185546875,-8.511570930480957, 3.988151788711548
150,544402311,0.06538942,0.04279871,-0.02530843,-0.99662024,-0.9926794767379761,0.41230660676956177,9.63418197631836,-20.363327026367188,-11.448066711425781, 4.3696818351745605
151,544418978,0.06608584,0.04089963,-0.022261368,-0.9967268,-0.9375473260879517,0.2710711359977722,9.761205673217773,-21.283327102661133,-12.763423919677734, 4.340395450592041
152,544435645,0.06678235,0.03903463,-0.019819574,-0.9968066,-0.8074967861175537,0.21802736818790436,9.58008098602295,-17.105520248413086,-12.799135208129883, 4.507157325744629
153,544452312,0.06739505,0.037385415,-0.018109147,-0.9968613,-0.6767355799674988,0.24834296107292175,9.327131271362305,-11.958324432373047,-11.657169342041016, 4.0960822105407715
154,544468979,0.06794773,0.036138237,-0.016556859,-0.99689674,-0.6006380915641785,0.36380696296691895,9.147544860839844,-10.668145179748535,-8.967536926269531, 3.7042455673217773
155,544485646,0.068487495,0.0354946,-0.014802186,-0.9969105,-0.6039999127388,0.28876349329948425,9.11054801940918,-11.774252891540527,-4.720755577087402, 3.5119831562042236
156,544502313,0.069047265,0.035310898,-0.012747928,-0.99690676,-0.6812029480934143,0.1612517237663269,9.144086837768555,-13.61527156829834,-1.4123108386993408, 3.4994397163391113
157,544518980,0.06959841,0.035493545,-0.010519454,-0.9968881,-0.7376226186752319,-0.07545110583305359,9.300034523010254,-14.629217147827148,1.1888463497161865, 3.365312337875366
158,544535647,0.070108846,0.03601474,-0.008585664,-0.99685204,-0.7244061827659607,-0.07984307408332825,9.500362396240234,-12.419363021850586,3.3709983825683594, 3.1131680011749268
159,544552314,0.07056164,0.03676321,-0.0070977067,-0.9968045,-0.7797725796699524,-0.0022133514285087585,9.5155668258667,-9.227621078491211,4.7181501388549805, 2.845386505126953
160,544568981,0.07095601,0.03767449,-0.005878397,-0.9967504,-0.7624123096466064,-0.0006927391514182091,9.519301414489746,-7.2877631187438965,5.704751014709473, 2.5326292514801025
161,544585648,0.07136628,0.038718846,-0.0048955064,-0.99668646,-0.7515742182731628,0.06508943438529968,9.453184127807617,-5.601037979125977,6.508425712585449, 2.693387508392334
162,544602315,0.07172971,0.039814465,-0.0038758663,-0.9966217,-0.7542306780815125,0.05261196196079254,9.493030548095703,-5.818900108337402,6.882589340209961, 2.401543378829956
163,544618982,0.07207402,0.040922165,-0.0028050253,-0.99655557,-0.813454806804657,-0.05926991254091263,9.600118637084961,-6.157870769500732,6.997089862823486, 2.2350094318389893
164,544635649,0.07240719,0.041953154,-0.001777229,-0.9964909,-0.8688344955444336,-0.25196871161460876,9.659842491149902,-5.890743255615234,6.454331398010254, 2.144878625869751
165,544652316,0.07271552,0.042876773,-0.001024611,-0.9964302,-0.9288698434829712,-0.37566810846328735,9.750627517700195,-4.037176132202148,5.583869457244873, 2.0669641494750977
166,544668983,0.07297679,0.04369622,-0.0006716151,-0.99637574,-0.8993258476257324,-0.25877246260643005,9.703839302062988,-1.3157117366790771,4.669797420501709, 1.86355459690094
167,544685650,0.073187165,0.044400733,-0.0005943641,-0.99632925,-0.8685986995697021,-0.17181478440761566,9.607483863830566,0.5391024351119995,3.7462093830108643, 1.6698391437530518
168,544702317,0.07340493,0.044971775,-0.00056200055,-0.99628764,-0.8359701633453369,-0.1549048125743866,9.534975051879883,0.7902606129646301,2.8138303756713867, 1.6763702630996704
169,544718984,0.07360886,0.04550079,-0.00048505643,-0.99624854,-0.8331121802330017,-0.18272122740745544,9.579291343688965,0.47774723172187805,2.5561156272888184, 1.5386126041412354
170,544735651,0.07380338,0.045970377,-0.0003081218,-0.99621266,-0.8615520596504211,-0.11650320142507553,9.567779541015625,-0.2257375419139862,2.2082436084747314, 1.4490705728530884
171,544752318,0.07400356,0.04633663,-0.000030713745,-0.9961809,-0.8809567093849182,-0.18238258361816406,9.573344230651855,-0.9659189581871033,1.5585265159606934, 1.4852101802825928
172,544768985,0.07418054,0.046670362,0.00023010383,-0.99615216,-0.9101513028144836,-0.18729282915592194,9.540813446044922,-0.8494834303855896,1.3337364196777344, 1.2910144329071045
173,544785652,0.07433374,0.04696522,0.00050898496,-0.9961268,-0.9171310663223267,-0.13613393902778625,9.544382095336914,-0.9767530560493469,1.081605076789856, 1.119114875793457
174,544802319,0.074505016,0.04722958,0.00068933214,-0.9961014,-0.911609411239624,-0.16864842176437378,9.591009140014648,-0.31955686211586,0.8280906081199646, 1.289452075958252
175,544818986,0.07468906,0.047475222,0.00072251237,-0.9960759,-0.8823899626731873,-0.1833224594593048,9.554242134094238,0.6799467206001282,0.6312953233718872, 1.4396833181381226
176,544835653,0.07487227,0.04771855,0.0007044371,-0.9960506,-0.8913031220436096,-0.1667497307062149,9.51892375946045,1.0342727899551392,0.5975891351699829, 1.4876943826675415
177,544852320,0.07505108,0.04794719,0.0007230467,-0.99602616,-0.9076935052871704,-0.20908702909946442,9.498648643493652,0.7867518067359924,0.5233251452445984, 1.4044020175933838
178,544868987,0.07521692,0.04822906,0.00075458793,-0.996,-0.9015341401100159,-0.18642298877239227,9.537291526794434,0.7381901144981384,0.9021241664886475, 1.3191373348236084
179,544885654,0.07541424,0.048587855,0.00070262357,-0.99596757,-0.8962948322296143,-0.18732379376888275,9.52589225769043,1.3496804237365723,1.3951685428619385, 1.531095266342163
180,544902321,0.07561735,0.049090624,0.00054353324,-0.9959277,-0.8738144040107727,-0.14968855679035187,9.383269309997559,2.167058229446411,2.335897445678711, 1.5681438446044922
181,544918988,0.07579686,0.049804542,0.00048018657,-0.9958787,-0.8851370215415955,-0.0523248054087162,9.360991477966309,1.6301138401031494,3.8438708782196045, 1.425263524055481
182,544935655,0.07598443,0.05071191,0.00058152265,-0.9958185,-0.900967538356781,-0.07388757914304733,9.33992862701416,0.5933630466461182,5.267014980316162, 1.5024858713150024
183,544952322,0.07621119,0.051846854,0.00072743354,-0.99574256,-0.9410432577133179,-0.16355255246162415,9.358920097351074,0.3925723433494568,6.862290382385254, 1.7785141468048096
184,544968989,0.07643724,0.053247325,0.00086839375,-0.99565125,-0.9525105953216553,-0.15145522356033325,9.340442657470703,0.5805952548980713,8.689693450927734, 1.6907267570495605
185,544985656,0.076654665,0.05493425,0.0010565252,-0.9955428,-0.9832195043563843,-0.16467052698135376,9.330384254455566,0.41174352169036865,10.689739227294922, 1.6709667444229126
186,545002323,0.07689161,0.056919865,0.0011928064,-0.9954127,-1.032580852508545,-0.16833999752998352,9.271471977233887,0.9278398156166077,12.72199535369873, 1.781511664390564
187,545018990,0.077123575,0.05928104,0.0014252559,-0.99525666,-0.9963762164115906,-0.09890614449977875,9.222395896911621,0.46202147006988525,15.36011028289795, 1.8531253337860107
188,545035657,0.077395774,0.06197947,0.0017416519,-0.9950706,-1.0576027631759644,-0.06310252100229263,9.230856895446777,0.04381697624921799,17.734516143798828, 2.177319049835205
189,545052324,0.07771899,0.06498631,0.0021242122,-0.99485284,-1.0817679166793823,-0.04986867308616638,9.311909675598145,-0.2572031021118164,19.901153564453125, 2.4241621494293213
190,545068991,0.077972345,0.06846315,0.0021924945,-0.99459964,-1.0525926351547241,-0.01597941666841507,9.349907875061035,2.1762828826904297,22.975982666015625, 2.0817079544067383
191,545085658,0.078199774,0.07231153,0.0020163252,-0.9943097,-1.2051464319229126,-0.05826191604137421,9.294835090637207,4.051907062530518,25.419940948486328, 2.0702474117279053
192,545102325,0.07836243,0.07647144,0.0016955076,-0.9939862,-1.2310341596603394,-0.282130628824234,9.336288452148438,5.240238666534424,27.500696182250977, 1.7136543989181519
193,545118992,0.07845475,0.08089107,0.0011234119,-0.99362993,-1.3399842977523804,-0.2869812250137329,9.34579086303711,7.14543342590332,29.172718048095703, 1.3936105966567993
194,545135659,0.078497484,0.08558356,0.00027512747,-0.993234,-1.4373608827590942,-0.23966607451438904,9.357579231262207,9.218954086303711,30.923145294189453, 1.2394541501998901
195,545152326,0.07846188,0.09050038,-0.0008611956,-0.9928005,-1.5526909828186035,-0.05979345738887787,9.280388832092285,11.364073753356934,32.33423614501953, 0.899105429649353
196,545168993,0.07858853,0.09534847,-0.0015164521,-0.99233574,-1.6624318361282349,0.07924915850162506,9.210525512695312,7.941380977630615,32.15534210205078, 1.747759461402893
197,545185660,0.07885991,0.100059316,-0.0015502856,-0.9918502,-1.7436413764953613,0.2660583555698395,9.271848678588867,3.5291285514831543,31.577678680419922, 2.3401315212249756
198,545202327,0.07930577,0.10450611,-0.0009924702,-0.99135673,-1.8926993608474731,0.16780611872673035,9.475223541259766,-0.7815356254577637,30.113542556762695, 3.1277880668640137
199,545218994,0.07995083,0.10850452,0.00009095744,-0.99087566,-2.1135385036468506,0.04015441983938217,9.818011283874512,-4.7595438957214355,27.343265533447266, 4.104926586151123
200,545235661,0.080806606,0.11193319,0.0015159874,-0.9904236,-2.233675718307495,-0.09441814571619034,9.823542594909668,-7.558798789978027,23.63134765625, 5.275132656097412
201,545252328,0.0817592,0.11465506,0.003179268,-0.9900301,-2.3107197284698486,-0.1672036349773407,9.673748970031738,-9.642428398132324,18.905872344970703, 5.714874267578125
202,545268995,0.08264601,0.11672178,0.004779454,-0.9897085,-2.364888906478882,-0.3575153946876526,9.787108421325684,-9.519841194152832,14.354223251342773, 5.265125274658203
203,545285662,0.08338176,0.11810791,0.005995118,-0.98947567,-2.3857789039611816,-0.3859972357749939,9.820484161376953,-7.149469375610352,9.438495635986328, 4.477492809295654
204,545302329,0.08396995,0.11877531,0.0069326395,-0.98933995,-2.4055042266845703,-0.3650599718093872,9.875679016113281,-5.529603958129883,4.318385124206543, 3.6239476203918457
205,545318996,0.08440209,0.11876905,0.0076582306,-0.9892986,-2.3990728855133057,-0.33580443263053894,9.854506492614746,-4.329584121704102,-0.4529605805873871, 2.6502294540405273
206,545335663,0.08475359,0.11823923,0.008102968,-0.98932844,-2.3286640644073486,-0.36627501249313354,9.727821350097656,-2.641066312789917,-4.227734565734863, 2.2650396823883057
207,545352330,0.08498459,0.11730302,0.008188822,-0.9894194,-2.242903232574463,-0.24052321910858154,9.410160064697266,-0.3216571807861328,-7.238726615905762, 1.6809360980987549
208,545368997,0.08515268,0.11621063,0.008111151,-0.9895345,-2.182877779006958,-0.25333258509635925,9.389322280883789,0.7583345770835876,-8.407588005065918, 1.3625127077102661
209,545385664,0.08526864,0.11513532,0.00782189,-0.98965263,-2.0860800743103027,-0.18687766790390015,9.252203941345215,2.2573180198669434,-8.407767295837402, 1.1747586727142334
210,545402331,0.08540314,0.11424065,0.007616406,-0.98974615,-2.0290393829345703,-0.1590110957622528,9.177406311035156,1.7814277410507202,-7.102070331573486, 1.257225513458252
211,545418998,0.08554259,0.11366291,0.0074896123,-0.9898016,-2.002671718597412,-0.1048460528254509,9.096229553222656,1.4282090663909912,-4.859715461730957, 1.2690261602401733
212,545435665,0.085701615,0.11345297,0.0075344546,-0.9898116,-1.947035551071167,-0.09795057773590088,9.103907585144043,0.45881950855255127,-2.2122714519500732, 1.3129005432128906
213,545452332,0.08587697,0.1136132,0.007656232,-0.989777,-1.9324591159820557,-0.08615900576114655,9.054845809936523,0.13771308958530426,0.39751550555229187, 1.4073731899261475
214,545468999,0.08604883,0.1141238,0.007859705,-0.98970187,-1.9567031860351562,-0.03660745918750763,9.110798835754395,-0.21250855922698975,2.873444080352783, 1.362076997756958
215,545485666,0.08626025,0.11487978,0.008237004,-0.9895928,-1.9824215173721313,-0.15046557784080505,9.293381690979004,-1.2872174978256226,4.68131685256958, 1.527675986289978
216,545502333,0.08649232,0.11575939,0.008607983,-0.9894669,-2.0244410037994385,-0.15894362330436707,9.291014671325684,-1.1873152256011963,5.542941093444824, 1.6919430494308472
217,545519000,0.08672643,0.11674684,0.009043588,-0.98932654,-2.0698602199554443,-0.19072620570659637,9.310059547424316,-1.5634377002716064,6.337254524230957, 1.667905569076538
218,545535667,0.086969025,0.11773985,0.009438794,-0.9891839,-2.128308057785034,-0.19553729891777039,9.330158233642578,-1.2897917032241821,6.361663818359375, 1.7611356973648071
219,545552334,0.0872085,0.118643284,0.009745684,-0.9890519,-2.2073371410369873,-0.1365850567817688,9.396793365478516,-0.7367878556251526,5.698999404907227, 1.799491047859192
220,545569001,0.087473124,0.1193469,0.009986753,-0.9889415,-2.238358974456787,-0.1740214079618454,9.434948921203613,-0.4280907213687897,4.286868572235107, 1.995991587638855
221,545585668,0.087737806,0.119839825,0.010164287,-0.98885673,-2.210430145263672,-0.24257564544677734,9.491841316223145,-0.12011074274778366,2.800140380859375, 2.0202465057373047
222,545602335,0.08798826,0.12013658,0.010239186,-0.9887975,-2.206472396850586,-0.29744812846183777,9.499754905700684,0.47665879130363464,1.3922487497329712, 1.9816995859146118
223,545619002,0.08820864,0.12028744,0.01024735,-0.9887596,-2.18460750579834,-0.24919641017913818,9.410172462463379,0.8758710026741028,0.35283413529396057, 1.8092106580734253
224,545635669,0.0884166,0.12030824,0.010290688,-0.98873794,-2.162243604660034,-0.26638561487197876,9.361254692077637,0.5737948417663574,-0.5142006278038025, 1.6773563623428345
225,545652336,0.08863052,0.120274074,0.010365902,-0.98872215,-2.159045934677124,-0.2558134198188782,9.306117057800293,0.32446804642677307,-0.8649536371231079, 1.6843743324279785
226,545669003,0.0888198,0.12024346,0.0103893075,-0.9887086,-2.191075325012207,-0.21634064614772797,9.299590110778809,0.7038561701774597,-0.8642364740371704, 1.5611516237258911
227,545685670,0.088995025,0.12022925,0.010407562,-0.9886945,-2.1789915561676025,-0.19540925323963165,9.291400909423828,0.7646095752716064,-0.7477756142616272, 1.4657701253890991
228,545702337,0.0891694,0.1202607,0.010409716,-0.9886748,-2.137118339538574,-0.20729300379753113,9.254252433776855,0.9042180180549622,-0.4359089732170105, 1.4790054559707642
229,545719004,0.08932897,0.120370045,0.0104107885,-0.9886471,-2.111790418624878,-0.19987446069717407,9.261570930480957,0.9735580086708069,0.1087835431098938, 1.3891112804412842
230,545735671,0.089486085,0.120589785,0.010323514,-0.98860705,-2.1322686672210693,-0.20669057965278625,9.269770622253418,1.6411913633346558,0.8248249888420105, 1.4755157232284546
231,545752338,0.08964679,0.12087377,0.010269651,-0.9885585,-2.135707139968872,-0.20007038116455078,9.302825927734375,1.4506458044052124,1.297622561454773, 1.4899612665176392
232,545769005,0.089847416,0.1211941,0.010189676,-0.9885018,-2.1060869693756104,-0.2691834568977356,9.329595565795898,1.6235313415527344,1.5412507057189941, 1.770586609840393
233,545785672,0.090022124,0.121515006,0.010058881,-0.9884478,-2.1394295692443848,-0.25555524230003357,9.386024475097656,1.9932763576507568,1.5240132808685303, 1.647991418838501
234,545802339,0.0901323,0.12175916,0.009924648,-0.98840904,-2.159311532974243,-0.2287047952413559,9.427322387695312,2.026719808578491,1.0019817352294922, 1.2059227228164673
235,545819006,0.09022686,0.12189845,0.009877855,-0.9883837,-2.1905765533447266,-0.14796268939971924,9.386679649353027,1.384027123451233,0.3429604470729828, 1.0162158012390137
236,545835673,0.09035159,0.12192689,0.009925703,-0.98836833,-2.1870648860931396,-0.20613019168376923,9.387444496154785,0.6508890986442566,-0.35431328415870667, 1.1134929656982422
237,545852340,0.09049393,0.12187048,0.009896795,-0.98836255,-2.18814754486084,-0.1997879296541214,9.361845016479492,1.106539011001587,-0.9799290895462036, 1.2922438383102417
238,545869007,0.09064242,0.12176622,0.00972384,-0.9883636,-2.150968551635742,-0.21964694559574127,9.362556457519531,2.050379753112793,-1.3935612440109253, 1.4587136507034302
239,545885674,0.09080863,0.12161736,0.0095037585,-0.9883687,-2.1034719944000244,-0.11601008474826813,9.300999641418457,2.334962844848633,-1.7217752933502197, 1.599698781967163
240,545902341,0.0909967,0.12149028,0.009323093,-0.9883688,-2.1054651737213135,-0.12281174957752228,9.279559135437012,2.0614571571350098,-1.5365698337554932, 1.716018795967102
241,545919008,0.091203526,0.12144677,0.009225761,-0.98835605,-2.1007518768310547,-0.12387421727180481,9.277040481567383,1.5278294086456299,-0.8976994752883911, 1.796416997909546
242,545935675,0.09138366,0.121492565,0.009245837,-0.9883335,-2.0692262649536133,-0.1250048577785492,9.200708389282227,0.7999101877212524,-0.19803738594055176, 1.5580717325210571
243,545952342,0.09156236,0.121635765,0.009333944,-0.9882985,-2.105445384979248,-0.13872504234313965,9.2171049118042,0.40724828839302063,0.5263729691505432, 1.4680365324020386
244,545969009,0.09176413,0.121858984,0.009446393,-0.9882512,-2.1533055305480957,-0.2041787952184677,9.307074546813965,0.27812185883522034,1.1022104024887085, 1.590836524963379
245,545985676,0.09198688,0.1220921,0.009584554,-0.9882004,-2.128369092941284,-0.21076445281505585,9.323918342590332,0.09782130271196365,1.194185733795166, 1.7021623849868774
246,546002343,0.09219599,0.122309536,0.0096874675,-0.98815304,-2.1458992958068848,-0.1938864141702652,9.357012748718262,0.33781224489212036,1.0718337297439575, 1.6542153358459473
247,546019010,0.09243015,0.122508675,0.009773083,-0.9881057,-2.1492841243743896,-0.19443480670452118,9.384466171264648,0.4437207281589508,0.9424512982368469, 1.7572935819625854
248,546035677,0.09265443,0.12266602,0.009880319,-0.98806417,-2.1363492012023926,-0.18988114595413208,9.410687446594238,0.26772311329841614,0.6764504909515381, 1.7217942476272583
249,546052344,0.09284844,0.12273856,0.009942132,-0.9880362,-2.158841371536255,-0.1793377846479416,9.360077857971191,0.5404984354972839,0.07113287597894669, 1.5830121040344238
250,546069011,0.09301588,0.12273618,0.0099925045,-0.9880203,-2.11777400970459,-0.14931586384773254,9.330277442932129,0.6110742092132568,-0.446288526058197, 1.3313418626785278
251,546085678,0.093186356,0.12273326,0.009995612,-0.9880046,-2.1100029945373535,-0.21796002984046936,9.322212219238281,0.9165440797805786,-0.4714786112308502, 1.4446779489517212
252,546102345,0.093334876,0.12272441,0.009993943,-0.9879917,-2.1676876544952393,-0.23720823228359222,9.35728645324707,0.9678335189819336,-0.5067217350006104, 1.2925001382827759
253,546119012,0.09351547,0.12271109,0.009954185,-0.9879767,-2.1836280822753906,-0.22356201708316803,9.27263069152832,1.2167119979858398,-0.5554881691932678, 1.4737354516983032
254,546135679,0.09365562,0.12269124,0.010006516,-0.9879653,-2.097215175628662,-0.1945890486240387,9.301694869995117,0.5688132047653198,-0.5346266627311707, 1.3556993007659912
255,546152346,0.093759336,0.12268904,0.010062232,-0.98795515,-2.0948619842529297,-0.19029535353183746,9.328542709350586,0.5629351139068604,-0.4017608165740967, 1.2197344303131104
256,546169013,0.093898244,0.122756295,0.010118301,-0.98793304,-2.060523748397827,-0.12550145387649536,9.328275680541992,0.6343817710876465,0.08584737032651901, 1.223576307296753
257,546185680,0.0940246,0.122832805,0.0102491155,-0.9879102,-2.0923562049865723,-0.14091423153877258,9.302080154418945,0.15286298096179962,0.20871149003505707, 1.0301107168197632
258,546202347,0.09416509,0.12291918,0.010396221,-0.9878846,-2.144806146621704,-0.1552419811487198,9.321825981140137,0.02709183469414711,0.29633253812789917, 1.1508491039276123
259,546219014,0.09429962,0.12297379,0.010458689,-0.9878643,-2.1941370964050293,-0.20108141005039215,9.357720375061035,0.5622308254241943,0.028820687904953957, 1.2800779342651367
260,546235681,0.094502956,0.12295808,0.010514367,-0.9878462,-2.1965081691741943,-0.2149665653705597,9.358256340026855,0.5750371813774109,-0.4562646448612213, 1.455934762954712
261,546252348,0.09469219,0.12283807,0.010558418,-0.98784256,-2.156163454055786,-0.22856885194778442,9.444833755493164,0.5873183012008667,-1.1782994270324707, 1.4126362800598145
262,546269015,0.09479298,0.12258722,0.01058592,-0.9878637,-2.085597038269043,-0.22275331616401672,9.444836616516113,0.5819653868675232,-2.083055257797241, 1.277542233467102
263,546285682,0.09492693,0.122180305,0.010637836,-0.98790073,-2.14821720123291,-0.18863564729690552,9.424570083618164,0.36822736263275146,-3.134366750717163, 1.1266320943832397
264,546302349,0.09506985,0.121628806,0.010845306,-0.9879528,-2.1120920181274414,-0.20798692107200623,9.535898208618164,-0.808195948600769,-4.0213727951049805, 1.1231361627578735
265,546319016,0.095265254,0.12107026,0.011074779,-0.9879999,-2.100130081176758,-0.278314471244812,9.48591423034668,-0.9888038039207458,-4.046319961547852, 1.3948227167129517
266,546335683,0.09539466,0.12048176,0.011128058,-0.98805887,-2.1189048290252686,-0.21587663888931274,9.395407676696777,0.22480911016464233,-4.361600399017334, 1.1869759559631348
267,546352350,0.09554155,0.11973541,0.0110712955,-0.9881361,-2.1002607345581055,-0.1606801152229309,9.3219575881958,0.9118314385414124,-5.517360687255859, 1.135443091392517
268,546369017,0.095593825,0.11885572,0.01103534,-0.9882376,-2.050602912902832,-0.1994287669658661,9.333783149719238,0.6279274821281433,-6.4152913093566895, 1.0405993461608887
269,546385684,0.09568058,0.11792247,0.010928195,-0.9883421,-2.0503666400909424,-0.21003033220767975,9.331920623779297,1.127772331237793,-6.825286865234375, 0.9808961749076843
270,546402351,0.09574791,0.11695414,0.010838134,-0.98845166,-1.981050968170166,-0.21149209141731262,9.310293197631836,0.9896427392959595,-7.048922538757324, 0.9042243957519531
271,546419018,0.09575934,0.11611382,0.0107036745,-0.98855114,-1.8870959281921387,-0.1885547786951065,9.283554077148438,1.3950791358947754,-6.187952518463135, 0.6970689296722412
272,546435685,0.09581456,0.11546492,0.010590127,-0.9886231,-1.8518383502960205,-0.1054408997297287,9.216792106628418,1.3995484113693237,-4.844975471496582, 0.7507787942886353
273,546452352,0.09594927,0.11507907,0.010502552,-0.9886558,-1.856801152229309,-0.11757977306842804,9.126227378845215,1.4134496450424194,-3.005983352661133, 0.9190092086791992
274,546469019,0.096091256,0.11495468,0.010424932,-0.98865736,-1.8562859296798706,-0.10696005076169968,9.139985084533691,1.4507609605789185,-1.1887365579605103, 1.2603049278259277
275,546485686,0.09630081,0.115086645,0.010342992,-0.9886224,-1.8499313592910767,-0.1536593735218048,9.193817138671875,1.686948537826538,0.5813634991645813, 1.3216474056243896
276,546502353,0.09664882,0.11542147,0.010311962,-0.9885499,-1.8706828355789185,-0.1386222094297409,9.236592292785645,1.5702697038650513,2.0184662342071533, 1.3047429323196411
277,546519020,0.096904725,0.11587204,0.010492606,-0.98847014,-1.880393147468567,-0.2394668012857437,9.45283031463623,0.0904192328453064,2.9696707725524902, 1.3953734636306763
278,546535687,0.097043484,0.11636106,0.010796605,-0.9883958,-1.9733890295028687,-0.32811763882637024,9.586297035217285,-0.8850982189178467,3.332033634185791, 1.6915397644042969
279,546552354,0.09732201,0.11726267,0.011384256,-0.9882553,-1.7607052326202393,-0.5851611495018005,10.275850296020508,-2.484419822692871,6.37270450592041, 1.7384945154190063
280,546569021,0.09729446,0.11954178,0.010254133,-0.98799723,-2.129814386367798,-0.8268362283706665,10.313889503479004,10.345551490783691,14.724406242370605, 1.303783893585205
281,546585688,0.09719463,0.120278865,0.008858357,-0.9879311,-2.7090556621551514,-0.18047240376472473,9.75098705291748,11.222562789916992,3.929739236831665, 0.766505241394043
282,546602355,0.09724101,0.119045354,0.0081911,-0.9880817,-2.5588104724884033,-0.23171091079711914,9.811129570007324,4.8238911628723145,-9.170310020446777, 1.0114266872406006
283,546619022,0.09729311,0.11619484,0.007627804,-0.98842037,-2.2334721088409424,0.03239879012107849,9.88455581665039,3.059934377670288,-20.249366760253906, 0.6891171336174011
284,546635689,0.097397774,0.11201294,0.0071446276,-0.9888963,-2.0681707859039307,0.06694180518388748,9.7954740524292,1.6574863195419312,-29.35762596130371, 0.47646814584732056
285,546652356,0.09752224,0.106558286,0.0067600477,-0.9894893,-1.7833340167999268,0.16832832992076874,9.877788543701172,0.2384106069803238,-38.03814697265625, -0.21286821365356445
286,546669023,0.097175896,0.10004329,0.0063434653,-0.9902061,-1.7229574918746948,-0.06595922261476517,9.853184700012207,-0.47154608368873596,-45.30250930786133, -0.6699946522712708
287,546685690,0.09706469,0.09236907,0.0058095967,-0.99096566,-1.6574758291244507,-0.1449715495109558,9.98105525970459,-0.17374549806118011,-53.325260162353516, -1.3712666034698486
288,546702357,0.09738651,0.08369767,0.005206971,-0.9917074,-1.2157809734344482,-0.729478657245636,10.470212936401367,-0.2652868926525116,-60.18660354614258, -0.8504549264907837
289,546719024,0.09739093,0.07494181,0.002373625,-0.9924179,-1.024566888809204,-0.6180734634399414,9.274035453796387,14.823942184448242,-62.195655822753906, -0.1725168228149414
290,546735691,0.09700287,0.066772014,-0.0004010955,-0.9930418,-0.5195441842079163,-0.4512532651424408,9.053311347961426,14.824503898620605,-58.07565689086914, -1.2810224294662476
291,546752358,0.09631401,0.05961153,-0.003370863,-0.99355865,-0.4931480586528778,0.47528448700904846,8.570446014404297,16.661542892456055,-51.18282699584961, -0.1267329305410385
292,546769025,0.09638204,0.05304466,-0.0049163573,-0.99391776,-0.23893782496452332,0.870103657245636,8.474064826965332,7.400570869445801,-46.160545349121094, 0.6740993857383728
293,546785692,0.096479826,0.047749784,-0.0051697604,-0.9941754,-0.33541494607925415,0.40356919169425964,8.997920036315918,-0.6978340744972229,-36.53540802001953, 1.253625750541687
294,546802359,0.09681803,0.042982105,-0.0042794044,-0.99436444,-0.607294499874115,0.4617370665073395,9.665895462036133,-8.236357688903809,-32.13346862792969, 2.292006015777588
295,546819026,0.0973033,0.038714953,-0.0032608965,-0.9944963,-0.19322732090950012,0.14055314660072327,10.238652229309082,-8.83492374420166,-28.60238265991211, 3.246964454650879
296,546835693,0.097644635,0.03484672,-0.0032321806,-0.994606,-0.401852011680603,0.45445606112480164,9.661199569702148,-1.7691887617111206,-26.517061233520508, 2.573615074157715
297,546852360,0.098150685,0.030495694,-0.0024372884,-0.9947013,-0.07251206040382385,0.17349500954151154,9.772254943847656,-7.387917518615723,-29.29279327392578, 3.5268869400024414
298,546869027,0.09870912,0.025900263,-0.0020717713,-0.9947771,-0.1586267501115799,-0.14680670201778412,9.527830123901367,-4.6343913078308105,-31.235668182373047, 3.9952948093414307
299,546885694,0.099176824,0.020544875,-0.0024359475,-0.9948548,0.15919312834739685,-0.6855069398880005,10.231365203857422,-0.13943621516227722,-36.923484802246094, 3.5006582736968994
300,546902361,0.099710785,0.013355055,-0.003188033,-0.99492186,0.3569525480270386,-0.6274421811103821,10.244217872619629,1.275914192199707,-49.71714782714844, 4.043826580047607
301,546919028,0.100375645,0.004783844,-0.0034652783,-0.9949322,1.4095450639724731,-0.4445851147174835,10.60650634765625,-2.9100608825683594,-58.81529998779297, 4.960683822631836
302,546935695,0.10108601,-0.0054338914,-0.0033444841,-0.99485725,1.9210405349731445,-0.08716719597578049,10.684294700622559,-6.755620002746582,-69.75259399414062, 5.3519110679626465
303,546952362,0.10175182,-0.01762028,-0.003224937,-0.9946486,2.2931344509124756,0.018981769680976868,10.249515533447266,-8.113792419433594,-83.1688461303711, 5.176973819732666
304,546969029,0.10224892,-0.031641055,-0.003468804,-0.9942495,2.964999198913574,0.064277783036232,9.854662895202637,-6.932610034942627,-95.93446350097656, 4.142226219177246
305,546985696,0.10233819,-0.04779781,-0.0035883312,-0.9935942,3.5248799324035645,0.030395153909921646,9.859436988830566,-9.374526023864746,-110.441162109375, 1.59908926486969
306,547002363,0.10196281,-0.065866016,-0.00357252,-0.99259895,3.517930269241333,-0.3693059980869293,9.838687896728516,-11.796489715576172,-123.44696807861328, -1.25620436668396
307,547019030,0.10120776,-0.08491061,-0.0030679842,-0.9912304,3.9171574115753174,-1.461888074874878,9.832121849060059,-15.975708961486816,-129.8776397705078, -3.3535068035125732
308,547035697,0.10030219,-0.10346055,-0.0039771935,-0.9895553,4.512110233306885,-1.419845700263977,9.844118118286133,-6.038618087768555,-127.60227966308594, -5.012271404266357
309,547052364,0.100374155,-0.12124937,-0.0047312034,-0.98752296,4.045956611633301,-1.0967633724212646,9.214946746826172,-5.829324245452881,-122.46891021728516, 1.9583032131195068
310,547069031,0.10143683,-0.13778079,-0.004389139,-0.9852451,4.486072063446045,-0.49387916922569275,8.024032592773438,-11.544598579406738,-113.29729461669922, 9.711214065551758
311,547085698,0.10238608,-0.15377942,-0.0028467334,-0.9827823,5.285107612609863,0.9347265958786011,8.503856658935547,-19.400712966918945,-108.9693374633789, 10.183676719665527
312,547102365,0.10315594,-0.16936342,-0.0010801686,-0.98013973,4.337697982788086,0.35904768109321594,9.387079238891602,-20.8529052734375,-106.13379669189453, 9.328346252441406
313,547119032,0.10441064,-0.18372555,-0.0012711857,-0.9774159,3.7305636405944824,-0.7962081432342529,7.48624849319458,-6.256379127502441,-99.35765838623047, 10.357597351074219
314,547135699,0.10538815,-0.19711898,-0.0025997362,-0.9746954,3.945399045944214,-0.026197439059615135,7.363317012786865,1.746052861213684,-93.64861297607422, 7.036597728729248
315,547152366,0.1056933,-0.20977804,-0.00368069,-0.9720127,4.435491561889648,0.26534053683280945,7.9932098388671875,-0.30906417965888977,-88.49401092529297, 2.8154704570770264
316,547169033,0.10569585,-0.22168289,-0.0044488017,-0.9693635,5.33368444442749,-0.17865237593650818,8.328039169311523,-2.3137924671173096,-83.17154693603516, 1.2002978324890137
317,547185700,0.10568753,-0.2333188,-0.004853697,-0.96662766,5.9632887840271,-0.5988019704818726,9.024444580078125,-4.566466808319092,-81.22042846679688, 1.731618881225586
318,547202367,0.10576337,-0.24455087,-0.0050502936,-0.963838,5.765340328216553,-0.663449764251709,8.829028129577637,-5.521668434143066,-78.4403076171875, 2.6454079151153564
319,547219034,0.10590461,-0.25538433,-0.0048896973,-0.96100956,5.56597900390625,-0.7356326580047607,8.234472274780273,-7.485821723937988,-75.58513641357422, 3.689321517944336
320,547235701,0.10630804,-0.2655189,-0.0045484765,-0.9582159,5.018665313720703,-0.6346408128738403,7.734747409820557,-7.7078328132629395,-70.75364685058594, 5.6837334632873535
321,547252368,0.10693242,-0.27477875,-0.0039064707,-0.95553493,4.5578837394714355,-0.28609541058540344,7.583172798156738,-8.648515701293945,-64.55896759033203, 7.575320243835449
322,547269035,0.10779804,-0.28310147,-0.0036015243,-0.9530058,4.235287666320801,-0.2123471349477768,7.391119956970215,-5.301509857177734,-58.37417221069336, 8.387346267700195
323,547285702,0.10856751,-0.290585,-0.003565427,-0.9506634,3.9924426078796387,0.03677193820476532,7.4296345710754395,-3.122987747192383,-52.741172790527344, 7.071436405181885
324,547302369,0.10921726,-0.2975659,-0.0034483385,-0.9484273,3.958313226699829,-0.04656224697828293,7.590104103088379,-3.537400722503662,-49.22303009033203, 6.362460613250732
325,547319036,0.109937035,-0.30400494,-0.0031552452,-0.9463008,4.038609981536865,-0.3181101381778717,7.860799312591553,-4.1553850173950195,-45.37571716308594, 7.085916042327881
326,547335703,0.11097941,-0.30989227,-0.002861525,-0.9442681,4.01771354675293,-1.0612590312957764,8.27507209777832,-3.0813937187194824,-41.63246536254883, 9.100858688354492
327,547352370,0.112294786,-0.31514284,-0.0027482498,-0.9423733,4.0920000076293945,-1.528350830078125,8.129837989807129,-0.8347351551055908,-37.39738082885742, 10.361987113952637
328,547369037,0.11372439,-0.31969002,-0.002359579,-0.9406699,4.580345153808594,-1.3809049129486084,7.9621968269348145,-1.8099929094314575,-32.26886749267578, 11.52287483215332
329,547385704,0.115186885,-0.32377332,-0.0013415697,-0.9390959,5.390729904174805,-1.1618138551712036,8.741342544555664,-5.430027484893799,-28.537044525146484, 12.998756408691406
330,547402371,0.11689448,-0.32688773,-0.0008748226,-0.9378057,5.178553581237793,-0.8690107464790344,8.32399845123291,-0.5532611608505249,-22.125272750854492, 13.11255931854248
331,547419038,0.11830801,-0.32893518,-0.00022417905,-0.9369125,4.548793792724609,-0.6264154314994812,8.188295364379883,-1.5461509227752686,-14.248425483703613, 11.300535202026367
332,547435705,0.11948305,-0.33012316,0.00015329596,-0.93634546,3.6566100120544434,-0.9870272874832153,8.256025314331055,0.36543574929237366,-8.25110912322998, 8.880573272705078
333,547452372,0.12032383,-0.33097506,0.0010714136,-0.9359363,2.8555009365081787,-1.7504676580429077,8.56505012512207,-3.59602427482605,-5.359267234802246, 7.819156169891357
334,547469039,0.12131622,-0.33146894,0.002601749,-0.9356304,2.1290500164031982,-1.8807021379470825,8.64489459991455,-6.87402868270874,-2.4134857654571533, 10.089058876037598
335,547485706,0.12254162,-0.33155844,0.0051591983,-0.9354282,1.984657883644104,-1.7073009014129639,9.286773681640625,-12.58801555633545,1.162555456161499, 13.830699920654297
336,547502373,0.12402535,-0.331208,0.008337068,-0.935334,2.7422378063201904,-1.1791050434112549,8.585909843444824,-15.599970817565918,4.623773574829102, 16.814802169799805
337,547519040,0.125498,-0.3302333,0.011017894,-0.9354546,3.970977306365967,-0.6767870187759399,8.987994194030762,-11.883519172668457,8.60837173461914, 15.457193374633789
338,547535707,0.12704578,-0.32856217,0.013019401,-0.9358082,4.100003719329834,-1.3755412101745605,9.379109382629395,-6.741220474243164,12.951085090637207, 14.252918243408203
339,547552374,0.12889121,-0.325901,0.014545075,-0.93646365,3.9398539066314697,-1.6299564838409424,9.143437385559082,-2.116100311279297,19.485509872436523, 14.912572860717773
340,547569041,0.13088372,-0.3218075,0.015990848,-0.9375788,3.084432363510132,-1.1598681211471558,9.211949348449707,0.04910614714026451,29.580026626586914, 15.40992259979248
341,547585708,0.13308325,-0.31628957,0.01703198,-0.93912715,1.747730016708374,-0.968506395816803,9.21308708190918,4.438215732574463,39.243797302246094, 15.61350154876709
342,547602375,0.13568617,-0.30920807,0.017186034,-0.9411081,0.4495154023170471,-0.47256678342819214,9.114753723144531,12.513678550720215,49.30613327026367, 16.07454490661621
343,547619042,0.1386475,-0.30054882,0.014814407,-0.94351894,-0.021193455904722214,0.004153840243816376,9.198383331298828,31.118227005004883,57.89120101928711, 12.81113052368164
344,547635709,0.14112005,-0.28990045,0.0100245755,-0.94654244,0.8562700152397156,1.1363970041275024,8.789483070373535,47.72127914428711,69.66088104248047, 4.2710442543029785
345,547652376,0.1425281,-0.27745342,0.0036827978,-0.9501011,1.520798921585083,2.119339942932129,8.707551956176758,57.42499923706055,80.88990783691406, -6.119868278503418
346,547669043,0.14319792,-0.26299226,-0.0029375292,-0.95410746,1.7765733003616333,1.4389104843139648,9.191593170166016,59.7472038269043,94.55912017822266, -11.821093559265137
347,547685710,0.14312318,-0.24549975,-0.009135367,-0.95872957,4.875430107116699,1.0441291332244873,7.928097248077393,58.548545837402344,115.87955474853516, -16.577913284301758
348,547702377,0.1415338,-0.22486474,-0.010709497,-0.96399665,9.196298599243164,1.3209426403045654,9.546012878417969,28.527029037475586,142.15931701660156, -19.562057495117188
349,547719044,0.13924852,-0.19814405,-0.0059926747,-0.97021294,14.447441101074219,0.9454004764556885,9.582764625549316,-8.440316200256348,190.15846252441406, -15.793912887573242
350,547735711,0.13565695,-0.16530862,0.0065509076,-0.97684574,17.56875228881836,2.7325491905212402,11.012566566467285,-56.64158248901367,239.2378387451172, -14.475627899169922
351,547752378,0.12991086,-0.12674707,0.02629332,-0.98303986,20.839269638061523,3.232294797897339,11.178506851196289,-102.23281860351562,284.3888854980469, -20.069427490234375
352,547769045,0.12242395,-0.08234663,0.048723854,-0.98785514,19.493244171142578,0.824219286441803,14.567782402038574,-117.08904266357422,325.85943603515625, -27.162382125854492
353,547785712,0.114851736,-0.03372653,0.068338886,-0.9904554,11.486947059631348,-1.9486777782440186,19.103567123413086,-95.28290557861328,351.3703918457031, -26.006681442260742
354,547802379,0.1076727,0.017194573,0.08573262,-0.99033386,-1.220085620880127,-3.03857421875,17.404033660888672,-79.55938720703125,364.7188720703125, -20.5760498046875
355,547819046,0.10052617,0.06244682,0.10155434,-0.9877661,8.638994216918945,-5.400439739227295,4.661149501800537,-74.49625396728516,325.1261291503906, -21.702760696411133
356,547835713,0.09726024,0.09097867,0.11247553,-0.9846893,17.758939743041992,-6.891068458557129,-17.924678802490234,-54.685302734375,205.81838989257812, -4.469311237335205
357,547852380,0.09511593,0.11483614,0.095290184,-0.98421836,6.6154327392578125,-16.764768600463867,-4.757742404937744,134.0362548828125,153.22592163085938, 15.512460708618164
358,547869047,0.08899515,0.13272649,0.07643309,-0.9841858,-8.626972198486328,8.652915000915527,10.049633979797363,145.25343322753906,114.14404296875, -14.123016357421875
359,547885714,0.086414695,0.14052717,0.078534044,-0.98316693,-6.734086036682129,-1.8244259357452393,2.7202305793762207,-6.749619960784912,57.56353759765625, -14.159684181213379
360,547902381,0.08708108,0.14214514,0.07879736,-0.9828545,-6.832739353179932,-4.638600826263428,1.703210473060608,-0.7260564565658569,12.079283714294434, 5.7953057289123535
361,547919048,0.088138305,0.13846748,0.07631539,-0.98348093,-9.270183563232422,-1.0239074230194092,5.883169651031494,14.885366439819336,-26.647916793823242, 7.706855773925781
362,547935715,0.089198634,0.1299808,0.07489205,-0.98465216,-8.89583969116211,-1.5365105867385864,6.591123580932617,5.109663009643555,-59.23967361450195, 3.8258745670318604
363,547952382,0.09029607,0.11925765,0.070583835,-0.98622644,-7.295670509338379,-2.393115282058716,7.493306636810303,23.467126846313477,-76.70984649658203, 5.221402168273926
364,547969049,0.091796145,0.10786672,0.06560148,-0.9877424,-7.142613887786865,-0.8739672899246216,10.437300682067871,27.306339263916016,-81.9404067993164, 8.192380905151367
365,547985716,0.0935506,0.09685734,0.06248061,-0.9889204,-6.998477935791016,-0.8378898501396179,11.593911170959473,14.562535285949707,-78.1573486328125, 8.887517929077148
366,548002383,0.09532655,0.086815886,0.05877258,-0.9899101,-6.083821773529053,-0.6057328581809998,11.314696311950684,19.07668113708496,-71.95244598388672, 9.928192138671875
367,548019050,0.09687083,0.07727603,0.05468743,-0.9907845,-5.587386131286621,0.01897110790014267,11.665021896362305,22.053369522094727,-68.72245788574219, 8.824563980102539
368,548035717,0.0992176,0.06600693,0.052235957,-0.9914992,-4.110843181610107,-0.9396796822547913,10.101723670959473,9.262043952941895,-79.72213745117188, 12.84643268585205
369,548052384,0.101480186,0.05381592,0.049083356,-0.9921678,-2.42863130569458,-1.4562010765075684,10.207740783691406,13.435735702514648,-86.50051879882812, 12.273553848266602
370,548069051,0.10261275,0.041289978,0.044506367,-0.99286735,-3.868133783340454,0.44117364287376404,11.185012817382812,23.36040496826172,-89.43827819824219, 4.944239616394043
371,548085718,0.10329582,0.026988735,0.04093448,-0.99344164,-4.981138229370117,0.3996849060058594,11.317066192626953,15.303852081298828,-100.7437744140625, 1.1089935302734375
372,548102385,0.104388624,0.011253218,0.03958578,-0.99368495,-1.4311439990997314,-1.575048804283142,15.175172805786133,-1.0990486145019531,-109.11793518066406, 3.2964861392974854
373,548119052,0.10661047,-0.0064624343,0.039406363,-0.993499,0.053398847579956055,-3.4447786808013916,14.503827095031738,-10.705065727233887,-122.10090637207031, 10.679099082946777
374,548135719,0.107469246,-0.02508941,0.03641479,-0.9932247,2.9995362758636475,-0.43553489446640015,15.009697914123535,7.804547309875488,-130.01617431640625, 1.0545698404312134
375,548152386,0.10535218,-0.0470286,0.03950448,-0.9925366,5.923389434814453,2.7203638553619385,14.454381942749023,-36.81258010864258,-147.4071807861328, -18.752094268798828
376,548169053,0.10342001,-0.07184408,0.04474118,-0.9910304,6.048894882202148,-1.8971012830734253,10.996603012084961,-53.809993743896484,-165.68125915527344, -16.986251831054688
377,548185720,0.11011024,-0.10488783,0.035450324,-0.9877337,9.003985404968262,-10.674205780029297,-38.46780014038086,43.065940856933594,-235.5304412841797, 33.342227935791016
378,548202387,0.10867283,-0.14112441,0.019847844,-0.9838092,42.608604431152344,5.8213276863098145,10.399085998535156,77.84083557128906,-260.11700439453125, -26.73843765258789
379,548219054,0.109549426,-0.17830619,0.008156521,-0.97782385,3.8842735290527344,-0.6176915168762207,28.192245483398438,52.46842956542969,-264.9859619140625, -5.796633720397949
380,548235721,0.11469946,-0.21474516,0.0068124603,-0.9698879,17.514118194580078,-7.460478782653809,10.936872482299805,-11.443490982055664,-254.96096801757812, 37.096214294433594
381,548252388,0.12116189,-0.24395558,0.0019885176,-0.9621859,12.964187622070312,-1.9417541027069092,9.599394798278809,19.583890914916992,-208.92822265625, 40.820491790771484
382,548269055,0.12428295,-0.2673582,0.0027664974,-0.9555449,14.9829683303833,4.71772575378418,8.312140464782715,-18.197397232055664,-163.84844970703125, 27.276857376098633
383,548285722,0.12634546,-0.28648496,0.006009983,-0.9496985,9.349238395690918,1.8163599967956543,7.550413608551025,-32.77344512939453,-131.97897338867188, 24.327571868896484
384,548302389,0.12788932,-0.30261332,0.006049029,-0.94447523,4.912252426147461,3.1721115112304688,7.074068069458008,-10.279444694519043,-113.86685180664062, 14.250860214233398
385,548319056,0.12963611,-0.31764698,0.004533949,-0.9392948,2.927136182785034,2.29093074798584,7.429096221923828,1.127614140510559,-108.06578826904297, 12.375093460083008
386,548335723,0.13226828,-0.33055493,0.0026355444,-0.93446887,0.0787428617477417,0.32284408807754517,7.7088727951049805,7.39273738861084,-94.00181579589844, 17.027585983276367
387,548352390,0.13491322,-0.34035105,-0.00019615842,-0.93056965,-2.048919677734375,-1.1633049249649048,7.469814777374268,16.246267318725586,-72.87906646728516, 14.183955192565918
388,548369057,0.13747028,-0.34724328,-0.0030603097,-0.9276395,-2.3420612812042236,-1.525701880455017,8.656941413879395,18.948883056640625,-52.22541809082031, 12.60369873046875
389,548385724,0.1406037,-0.35236883,-0.0044713016,-0.9252282,-1.7842353582382202,-1.244069218635559,10.225313186645508,12.724333763122559,-38.51895523071289, 19.176677703857422
390,548402391,0.14418925,-0.35643107,-0.0042686933,-0.9231188,-0.858305811882019,0.04027950391173363,11.199657440185547,4.576649188995361,-29.648052215576172, 25.6032657623291
391,548419058,0.14736599,-0.35951006,-0.0028219032,-0.92142737,-0.7841140627861023,0.9379681944847107,12.155484199523926,-3.3882787227630615,-21.35887336730957, 25.596466064453125
392,548435725,0.15002704,-0.36096212,-0.0025598346,-0.9204304,-0.3772123456001282,-0.2577381134033203,12.078567504882812,4.433687210083008,-10.753443717956543, 18.666662216186523
393,548452392,0.15166742,-0.36091188,-0.003725966,-0.9201772,1.6228923797607422,-0.46836650371551514,10.984108924865723,12.447274208068848,-1.0880281925201416, 7.852839469909668
394,548469059,0.15233096,-0.359652,-0.004536421,-0.92055726,3.2604422569274902,-1.2534832954406738,10.63819408416748,8.994717597961426,8.338520050048828, 1.8517413139343262
395,548485726,0.1523115,-0.35775363,-0.0032717509,-0.9213052,3.6405560970306396,-2.539252758026123,10.496479034423828,-5.17921257019043,15.332895278930664, 2.238865852355957
396,548502393,0.15224732,-0.3548307,-0.001133856,-0.9224506,2.438673257827759,-2.690171003341675,10.07127571105957,-9.741888999938965,23.617158889770508, 3.6344573497772217
397,548519060,0.15262547,-0.35066226,0.0013375374,-0.9239805,1.5519968271255493,-2.1821255683898926,9.924622535705566,-9.459668159484863,32.699867248535156, 6.807326793670654
398,548535727,0.15370227,-0.34507528,0.0028266755,-0.92590004,1.2506688833236694,-2.3944809436798096,9.748638153076172,-0.03423158824443817,41.49641036987305, 8.452519416809082
399,548552394,0.15573853,-0.33689234,0.0021081595,-0.9285716,1.147972822189331,-2.908094882965088,8.926351547241211,19.066606521606445,57.33819580078125, 8.546987533569336
400,548569061,0.15758647,-0.32563028,0.0009978246,-0.93227196,1.8989182710647583,-1.9318193197250366,9.34068489074707,24.469036102294922,78.86054229736328, 5.345736980438232
401,548585728,0.15862294,-0.312964,0.0031045573,-0.93642044,2.7201194763183594,-1.2696853876113892,9.905973434448242,3.5665414333343506,92.26600646972656, 6.853057384490967
402,548602395,0.15912628,-0.29998165,0.007389682,-0.9405508,2.5675673484802246,0.20217952132225037,9.582371711730957,-11.261666297912598,96.57185363769531, 8.127521514892578
403,548619062,0.15942663,-0.2865174,0.013144228,-0.94462633,2.100325345993042,1.1839293241500854,8.534976959228516,-20.682640075683594,101.12455749511719, 9.939031600952148
404,548635729,0.15959898,-0.2729223,0.01806078,-0.94853354,1.651691198348999,2.4683611392974854,8.487092018127441,-15.40417194366455,100.6766357421875, 7.6686787605285645
405,548652396,0.15914114,-0.25832468,0.01911875,-0.9526687,3.2091922760009766,2.620225667953491,7.6950364112854,9.644425392150879,103.42501068115234, -3.778273344039917
406,548669063,0.1568573,-0.24012142,0.015269666,-0.9578648,7.407252311706543,3.014017105102539,7.587758541107178,42.56864547729492,123.78067779541016, -25.104270935058594
407,548685730,0.15147708,-0.21518983,0.014431744,-0.96464527,13.013693809509277,4.845802307128906,8.474175453186035,24.986501693725586,174.3553924560547, -41.47525405883789
408,548702397,0.14437543,-0.18383725,0.0279959,-0.97189313,18.506715774536133,1.9647469520568848,12.40123462677002,-66.46061706542969,232.99945068359375, -31.359426498413086
409,548719064,0.13829927,-0.14713998,0.050011978,-0.9781219,19.750999450683594,-1.6503108739852905,11.741580963134766,-116.6160659790039,275.91143798828125, -11.714835166931152
410,548735731,0.13133255,-0.10007975,0.073967464,-0.9834964,19.155315399169922,1.1575348377227783,10.329373359680176,-121.02674865722656,347.2725524902344, -11.308037757873535
411,548752398,0.12256314,-0.047060702,0.09864397,-0.9864247,16.07545280456543,0.012709110975265503,16.66654396057129,-123.09820556640625,387.82781982421875, -17.665008544921875
412,548769065,0.11325375,0.008797601,0.1194683,-0.9863186,3.2941789627075195,-5.548978328704834,21.086124420166016,-96.90251159667969,403.49945068359375, -18.014633178710938
413,548785732,0.104789466,0.058917113,0.13170664,-0.9839726,12.158391952514648,-8.486987113952637,5.512566089630127,-45.020172119140625,357.2994689941406, -14.724618911743164
414,548802399,0.1016697,0.09553393,0.13229729,-0.98134315,24.118520736694336,-19.10370445251465,-17.78856658935547,21.752477645874023,252.97283935546875, 14.207139015197754
415,548819066,0.092076994,0.14141949,0.073092945,-0.9829447,8.756061553955078,-7.641103267669678,1.5420327186584473,440.58331298828125,277.4659118652344, 15.40407657623291
416,548835733,0.08640891,0.16960782,0.092031024,-0.9773933,-7.565486907958984,18.02740478515625,13.730531692504883,-106.47267150878906,212.2875213623047, -38.436622619628906
417,548852400,0.09097983,0.18095541,0.12601186,-0.9711331,-5.150506019592285,-7.823369979858398,-7.916698455810547,-230.38226318359375,102.2775650024414, 2.552985906600952
418,548869067,0.0966011,0.18341054,0.13546513,-0.96885425,-11.317950248718262,-5.059678077697754,0.535557210445404,-69.80253601074219,21.493656158447266, 29.961549758911133
419,548885734,0.09977838,0.17623761,0.13492595,-0.9699383,-14.104572296142578,-3.9670321941375732,4.689902305603027,-3.309194564819336,-51.45893478393555, 15.057942390441895
420,548902401,0.100618444,0.16340043,0.1265683,-0.97322005,-10.111598014831543,-6.079048156738281,6.24515962600708,49.892669677734375,-95.3171615600586, 2.108760356903076
421,548919068,0.100868285,0.14980279,0.10761062,-0.97765297,-8.2168550491333,-4.42239236831665,9.80636215209961,122.07109832763672,-108.65928649902344, 8.553380012512207
422,548935735,0.101438746,0.13746338,0.086511336,-0.9814939,-7.5153703689575195,-0.0890466570854187,12.967885971069336,136.63143920898438,-101.39688110351562, 14.196198463439941
423,548952402,0.103294715,0.12608233,0.07198597,-0.983998,-7.3541178703308105,1.8771092891693115,13.202056884765625,90.89015197753906,-89.90617370605469, 18.0977725982666
424,548969069,0.10589376,0.11596654,0.06518848,-0.9854387,-7.4122138023376465,1.9722964763641357,14.239361763000488,38.27136993408203,-75.37492370605469, 17.759410858154297
425,548985736,0.10801122,0.1091707,0.060631055,-0.98627573,-8.000917434692383,1.4330694675445557,15.364727973937988,25.5626220703125,-50.629886627197266, 14.60240650177002
426,549002403,0.10887574,0.10569765,0.055840045,-0.9868417,-6.717222690582275,1.1937580108642578,13.546428680419922,30.389110565185547,-27.632984161376953, 7.839128494262695
427,549019070,0.109101094,0.10376706,0.052174397,-0.98722225,-5.526840686798096,1.1478980779647827,11.165427207946777,24.257827758789062,-16.01825523376465, 3.393660306930542
428,549035737,0.10965972,0.100770324,0.05286972,-0.9874337,-5.119443416595459,1.4129153490066528,8.218212127685547,-6.477934837341309,-20.0444393157959, 2.272995948791504
429,549052404,0.11190543,0.09403569,0.060880963,-0.98738474,-5.961204528808594,-0.29874008893966675,7.308342933654785,-60.26514434814453,-40.40626907348633, 7.485713958740234
430,549069071,0.11471047,0.08252902,0.0744789,-0.98715967,-7.2125067710876465,-2.055276393890381,8.35265827178955,-102.30353546142578,-68.71299743652344, 5.790323734283447
431,549085738,0.11494023,0.06551031,0.08849697,-0.98725176,-3.2371249198913574,0.7150270342826843,5.140791416168213,-107.8562240600586,-104.7635498046875, -15.023262977600098
432,549102405,0.11569446,0.043201115,0.09950098,-0.9873442,1.2361493110656738,-3.903364419937134,4.040309906005859,-91.84103393554688,-143.42672729492188, -13.338238716125488
433,549119072,0.11547974,0.019228546,0.09316049,-0.9887449,3.4493730068206787,-5.336921691894531,6.640105724334717,25.82864761352539,-168.20689392089844, -16.941513061523438
434,549135739,0.11594965,-0.0064685894,0.074717745,-0.9904201,4.823257923126221,-5.452824592590332,9.266645431518555,106.90204620361328,-189.950439453125, -12.004537582397461
435,549152406,0.120900534,-0.03610198,0.052525364,-0.99061674,3.4798970222473145,-5.8627543449401855,-12.585517883300781,128.81646728515625,-222.03399658203125, 17.499162673950195
436,549169073,0.1243438,-0.08279235,0.021242134,-0.98855114,28.633974075317383,4.105188846588135,-12.890506744384766,175.55657958984375,-345.8392639160156, 0.6393054723739624
437,549185740,0.123457305,-0.12474307,0.01848206,-0.9843051,30.72059440612793,8.820863723754883,35.42448806762695,-17.193775177001953,-289.20062255859375, -9.900153160095215
438,549202407,0.12469145,-0.16550004,0.012910114,-0.9782105,13.705950736999512,-5.566012382507324,15.543477058410645,4.262975692749023,-284.9479675292969, 3.9379730224609375
439,549219074,0.13085471,-0.1992693,0.005398767,-0.97115415,11.973295211791992,-5.19213342666626,11.675877571105957,28.92255973815918,-240.96307373046875, 36.30535888671875
440,549235741,0.13851717,-0.22936279,0.0029839792,-0.96343005,12.645630836486816,-1.2500972747802734,8.218172073364258,0.32331913709640503,-212.67503356933594, 53.99864959716797
441,549252408,0.14249839,-0.24934253,0.000651397,-0.95787406,12.859374046325684,4.0016021728515625,8.982928276062012,3.6902871131896973,-141.953369140625, 27.887834548950195
442,549269075,0.1434281,-0.26564035,0.0037347453,-0.9533364,9.220917701721191,3.010694980621338,8.475713729858398,-33.64048385620117,-110.52426147460938, 16.183334350585938
443,549285742,0.1440709,-0.27970898,0.0033863056,-0.9492079,4.583099842071533,2.7699296474456787,8.969267845153809,-9.495584487915039,-98.49405670166016, 7.755326271057129
444,549302409,0.14500044,-0.29278728,0.00029736198,-0.9451196,2.4762580394744873,0.62351393699646,9.008590698242188,9.888143539428711,-94.70941925048828, 4.382351398468018
445,549319076,0.14640176,-0.30453888,-0.0028563694,-0.9411775,-1.2387986183166504,-2.723132610321045,8.446026802062988,12.565444946289062,-85.92735290527344, 7.164672374725342
446,549335743,0.14860466,-0.3135236,-0.0053410046,-0.9378656,-5.325006484985352,-4.4123687744140625,7.701663017272949,12.711363792419434,-66.13252258300781, 13.001330375671387
447,549352410,0.1515798,-0.31991056,-0.005548073,-0.93522763,-5.662201881408691,-2.959627628326416,7.837757110595703,2.354820966720581,-45.74446487426758, 22.0029239654541
448,549369077,0.15503904,-0.32403046,-0.00533979,-0.9332414,-3.8587348461151123,-0.8194520473480225,9.708550453186035,3.1031553745269775,-29.460193634033203, 25.183866500854492
449,549385744,0.15866135,-0.3267924,-0.0040709414,-0.9316747,-1.395769476890564,0.46262097358703613,12.307126998901367,-1.9192442893981934,-18.847822189331055, 28.051828384399414
450,549402411,0.16179216,-0.32900995,-0.00199392,-0.93036157,0.4486868381500244,1.0769505500793457,12.634841918945312,-7.647894382476807,-14.088521957397461, 26.407060623168945
451,549419078,0.16372606,-0.33034852,-0.0018301952,-0.9295489,2.3603031635284424,0.013608301989734173,13.927525520324707,2.8137433528900146,-9.620100975036621, 13.852788925170898
452,549435745,0.1643305,-0.33073622,-0.0026104716,-0.9293027,4.631411075592041,-0.7024937868118286,11.341340065002441,6.85674524307251,-3.4617362022399902, 2.5498151779174805
453,549452412,0.16342835,-0.330339,-0.0020499188,-0.9296043,4.173771381378174,-0.511449933052063,11.466493606567383,-4.276681423187256,4.22233772277832, -4.6682868003845215
454,549469079,0.16172823,-0.3288103,0.0003494288,-0.93044555,2.7677550315856934,-1.002595067024231,9.8582763671875,-16.598018646240234,14.66304874420166, -6.219568729400635
455,549485746,0.1599554,-0.3257484,0.0031501355,-0.93182266,1.1537095308303833,-1.2178188562393188,9.638028144836426,-17.63704490661621,26.057872772216797, -6.384206295013428
456,549502413,0.15871857,-0.32150248,0.0059358017,-0.93349373,0.42845797538757324,-1.0380403995513916,10.186763763427734,-15.044050216674805,34.18553161621094, -3.307140827178955
457,549519080,0.15866853,-0.31598625,0.009174611,-0.93535775,-0.26134228706359863,-0.5553056001663208,9.480895042419434,-13.952184677124023,43.10977554321289, 5.12358283996582
458,549535747,0.15977219,-0.3085427,0.012423128,-0.9376147,0.030459940433502197,-0.4292873442173004,9.290966987609863,-9.39974308013916,56.193946838378906, 12.235648155212402
459,549552414,0.16130449,-0.29867524,0.015378487,-0.94049925,1.6984906196594238,-0.9585484266281128,8.440020561218262,-3.9045016765594482,72.70130920410156, 13.874086380004883
460,549569081,0.16290104,-0.28618118,0.017812619,-0.94405913,1.3426216840744019,-1.1405670642852783,9.06515121459961,2.5754261016845703,90.43109893798828, 12.734028816223145
461,549585748,0.16469169,-0.27307293,0.021055238,-0.94755787,-0.07425329089164734,-1.1320505142211914,9.441076278686523,-1.6180838346481323,95.11627960205078, 15.707098007202148
462,549602415,0.16679472,-0.26234803,0.024318215,-0.95013857,-0.22218579053878784,0.369022399187088,9.147541046142578,-4.0049943923950195,77.76026153564453, 18.446392059326172
463,549619082,0.16874175,-0.25114828,0.026319357,-0.9527643,2.3025877475738525,1.4307562112808228,9.336971282958984,4.483407497406006,79.44339752197266, 15.172731399536133
464,549635749,0.16912687,-0.23420522,0.023177266,-0.9570832,5.775269031524658,3.827018976211548,7.24783182144165,42.41339874267578,114.2676010131836, -4.846652030944824
465,549652416,0.16678073,-0.2107703,0.021262886,-0.96296924,8.360129356384277,5.719926834106445,8.254140853881836,37.686180114746094,161.4081573486328, -21.552175521850586
466,549669083,0.16195767,-0.18023749,0.027352575,-0.96981305,12.745823860168457,4.627346038818359,7.209233283996582,-10.703357696533203,219.41412353515625, -26.31393051147461
467,549685750,0.15588668,-0.14449938,0.04624618,-0.9760544,15.496784210205078,0.13500526547431946,11.402066230773926,-92.03646850585938,268.04852294921875, -17.010690689086914
468,549702417,0.15060517,-0.09798097,0.07140218,-0.98113257,17.30408477783203,-0.6578114032745361,8.146778106689453,-122.15875244140625,345.95928955078125, -0.7438127994537354
469,549719084,0.1427073,-0.04173997,0.09660415,-0.98415536,21.45168113708496,1.8004566431045532,14.675692558288574,-115.22789001464844,411.8201599121094, -11.378188133239746
470,549735751,0.13126583,0.021824557,0.11766081,-0.98409885,16.787696838378906,0.3562931716442108,24.242389678955078,-83.18138122558594,459.14520263671875, -28.524295806884766
471,549752418,0.12098869,0.0785933,0.13660702,-0.98006374,13.411983489990234,-11.051420211791992,13.166776657104492,-78.5943374633789,411.04541015625, -22.120975494384766
472,549769085,0.11117076,0.108600035,0.124838874,-0.9799306,30.42255973815918,-17.693655014038086,-31.144641876220703,109.6451187133789,202.6446075439453, -30.773773193359375
473,549785752,0.100850806,0.13727398,0.0853043,-0.9816871,1.9438475370407104,-12.011540412902832,0.3410640060901642,298.1550598144531,171.9141082763672, -16.019390106201172
474,549802419,0.09642075,0.14447999,0.102082886,-0.97949445,-10.786907196044922,15.82682991027832,10.409194946289062,-104.64208221435547,66.31843566894531, -39.32351303100586
475,549819086,0.10049622,0.141036,0.120766066,-0.9774592,-3.80920147895813,-12.608697891235352,-1.3388335704803467,-133.1755828857422,-10.440971374511719, 8.526826858520508
476,549835753,0.103432976,0.13352033,0.11747068,-0.97860926,-7.774220943450928,-4.38547945022583,8.7200288772583,15.717564582824707,-55.19647216796875, 16.570465087890625
477,549852420,0.106023915,0.11998238,0.11399261,-0.980495,-8.815086364746094,-5.209112167358398,9.713183403015137,13.642020225524902,-96.32451629638672, 8.981069564819336
478,549869087,0.10805544,0.10469029,0.10452991,-0.98307633,-7.147723197937012,-5.75633430480957,11.219476699829102,53.79545211791992,-112.74022674560547, 8.205513954162598
479,549885754,0.110133566,0.09087476,0.09064586,-0.98559487,-8.089470863342285,-1.391535758972168,15.342284202575684,84.78146362304688,-106.09471893310547, 12.743185997009277
480,549902421,0.11235434,0.08008331,0.08140569,-0.9870855,-9.20663833618164,1.566832423210144,18.479549407958984,54.86430740356445,-81.60448455810547, 13.422614097595215
481,549919088,0.11440774,0.07536887,0.07485044,-0.98773956,-8.938695907592773,1.803812861442566,17.65228843688965,40.89885711669922,-37.82809829711914, 14.830471992492676
482,549935755,0.11514873,0.07737833,0.06849659,-0.9879591,-8.103693962097168,0.8368562459945679,16.13260841369629,45.21528244018555,8.795463562011719, 9.592140197753906
483,549952422,0.11430841,0.08368526,0.06580702,-0.98772544,-8.076882362365723,1.8161051273345947,15.121522903442383,24.312881469726562,41.78425598144531, -0.737536609172821
484,549969089,0.11324973,0.0909869,0.068875514,-0.9869923,-7.758401393890381,1.1138348579406738,12.598773002624512,-14.165190696716309,53.360130310058594, -4.703207969665527
485,549985756,0.11323922,0.09749043,0.07504842,-0.98592174,-7.754664421081543,0.01631258800625801,9.844290733337402,-36.70751190185547,49.9864616394043, 0.3387901484966278
486,550002423,0.114181235,0.10170233,0.08194033,-0.98483837,-7.748285293579102,-1.1301355361938477,7.389184951782227,-44.02372360229492,34.43660354614258, 5.117609024047852
487,550019090,0.115717374,0.10306526,0.08675947,-0.98410445,-8.125619888305664,-2.4154012203216553,6.363032817840576,-32.43167495727539,12.84439754486084, 8.678767204284668
488,550035757,0.117356285,0.100961134,0.08920225,-0.98390996,-7.239555835723877,-2.940854787826538,5.959308624267578,-18.825395584106445,-13.046724319458008, 8.516181945800781
489,550052424,0.11952508,0.0946765,0.08969125,-0.98422927,-5.759871959686279,-3.842949151992798,6.058900833129883,-8.988548278808594,-43.66861343383789, 10.430035591125488
490,550069091,0.12278397,0.082526796,0.089720964,-0.98491895,-2.6909520626068115,-4.121693134307861,5.15188455581665,-11.126669883728027,-84.71121978759766, 14.147351264953613
491,550085758,0.12500241,0.06609711,0.08843799,-0.9859948,0.5459697246551514,-3.346513032913208,4.608371257781982,-4.963536262512207,-114.4007568359375, 4.8416972160339355
492,550102425,0.12547939,0.047757633,0.08272374,-0.98748803,-0.11820323765277863,0.2632109224796295,7.461641788482666,24.51976203918457,-130.26707458496094, -6.47621488571167
493,550119092,0.12803932,0.02582208,0.08052894,-0.98815775,-1.6671161651611328,-0.9134117960929871,11.801729202270508,-3.6577553749084473,-152.5533905029297, 5.185480117797852
494,550135759,0.13964358,-0.009729166,0.08173578,-0.98677534,-3.262725353240967,-14.26302433013916,-36.95677185058594,-41.521366119384766,-246.76126098632812, 60.30896759033203
495,550152426,0.14693101,-0.06671756,0.045889385,-0.9858275,46.65416717529297,-2.164931297302246,-5.662467002868652,189.68197631835938,-425.6352844238281, 15.834397315979004
496,550169093,0.14862578,-0.109900504,0.040686615,-0.9819258,30.464893341064453,5.18336296081543,54.94306564331055,-7.696443557739258,-299.7861633300781, -0.4358486235141754
497,550185760,0.15532443,-0.1523743,0.028641915,-0.97562164,23.049196243286133,-4.979902744293213,14.798113822937012,42.21668243408203,-304.9228820800781, 31.100017547607422
498,550202427,0.1586137,-0.1839087,0.016228296,-0.96992666,16.903099060058594,7.334502220153809,12.1317777633667,52.99628829956055,-230.30242919921875, 9.380485534667969
499,550219094,0.16181433,-0.2155884,0.011100008,-0.9629206,16.10350227355957,0.97419273853302,10.386554718017578,3.9379358291625977,-224.8094024658203, 19.594486236572266
500,550235761,0.15926698,-0.23745947,0.010702565,-0.9581932,11.518647193908691,5.400445938110352,7.366276741027832,-24.79555320739746,-150.62274169921875, -13.147381782531738
501,550252428,0.15591216,-0.25613087,0.009863819,-0.9539354,0.5473977327346802,0.11011748760938644,6.272618293762207,-19.694570541381836,-129.11526489257812, -19.322751998901367
502,550269095,0.15256916,-0.2749534,0.009495061,-0.94922847,-2.1172080039978027,0.2738202214241028,6.081781387329102,-22.942916870117188,-130.44903564453125, -17.948394775390625
503,550285762,0.15016758,-0.2903353,0.0069592805,-0.945044,-0.062049493193626404,-0.2356896996498108,8.301856994628906,-3.3841731548309326,-109.42388916015625, -16.25416374206543
504,550302429,0.14970565,-0.30352592,0.0036792017,-0.94098276,-0.18148672580718994,-3.223714590072632,7.406739711761475,7.589860916137695,-95.87700653076172, -5.186574459075928
505,550319096,0.1506639,-0.3135933,-0.00013064267,-0.93752944,-2.2728750705718994,-3.5728952884674072,8.00562858581543,17.22675132751465,-75.05170440673828, 2.2672388553619385
506,550335763,0.1527085,-0.32062465,-0.00036891084,-0.9348163,-2.971611738204956,-2.3250012397766113,8.652073860168457,-0.2989799678325653,-50.285919189453125, 16.10511016845703
507,550352430,0.15629792,-0.3256572,0.0015703202,-0.93247944,-3.381289482116699,-0.5559436678886414,9.279561042785645,-8.798450469970703,-34.43825149536133, 30.352514266967773
508,550369097,0.16022538,-0.32933575,0.0017493151,-0.9305185,-0.5997310876846313,0.7642471194267273,10.12720775604248,4.683351993560791,-26.940412521362305, 28.138471603393555
509,550385764,0.16304189,-0.3322976,0.0007897185,-0.9289763,3.1353185176849365,1.8793272972106934,10.799910545349121,10.21822738647461,-22.75307846069336, 17.980833053588867
510,550402431,0.16400254,-0.33471146,0.00051508006,-0.9279402,5.319317817687988,-0.5173934698104858,12.54627799987793,2.1903557777404785,-17.388032913208008, 7.148929119110107
511,550419098,0.16393095,-0.3366066,0.0016051275,-0.9272659,5.8172078132629395,-3.145785331726074,12.122406959533691,-8.32303237915039,-11.763203620910645, 3.290907382965088
512,550435765,0.16288166,-0.3374303,0.003364745,-0.9271466,3.829254150390625,-2.4645349979400635,11.151771545410156,-13.644737243652344,-2.9302351474761963, -2.0522444248199463
513,550452432,0.16112646,-0.33677325,0.005186472,-0.92768353,2.2958500385284424,-1.2724236249923706,10.095052719116211,-14.01755142211914,8.056400299072266, -7.1520466804504395
514,550469099,0.15922076,-0.3346296,0.007705684,-0.9287702,0.5999494791030884,-0.1876031756401062,9.543235778808594,-17.16835594177246,19.521533966064453, -7.082391262054443
515,550485766,0.15772098,-0.33150712,0.0101603875,-0.9301212,-0.18096184730529785,0.3808440566062927,9.481268882751465,-14.765332221984863,26.20723533630371, -4.895972728729248
516,550502433,0.15723494,-0.32746142,0.01209877,-0.9316122,-0.01399766281247139,0.4290350377559662,9.050811767578125,-8.17440128326416,31.71198844909668, 0.30757132172584534
517,550519100,0.15753008,-0.32182422,0.01297674,-0.933513,-0.15416286885738373,-0.037227340042591095,9.582428932189941,2.100862503051758,41.5372428894043, 2.599929094314575
518,550535767,0.15863375,-0.31480289,0.013410908,-0.9357115,1.2416008710861206,-1.2574373483657837,9.380541801452637,8.234758377075195,50.44429016113281, 6.584567546844482
519,550552434,0.15959604,-0.3070397,0.014836678,-0.9381028,2.018371343612671,-0.2524397671222687,9.899896621704102,2.359142780303955,56.66631317138672, 7.645140171051025
520,550569101,0.16031897,-0.29934397,0.018460788,-0.9403996,2.853374481201172,-1.0362098217010498,9.384015083312988,-12.429105758666992,58.411163330078125, 10.82762622833252
521,550585768,0.16149865,-0.2908495,0.01990178,-0.94283086,2.9607510566711426,-2.0208914279937744,9.685338973999023,3.5099802017211914,61.34787368774414, 9.220229148864746
522,550602435,0.16150129,-0.27744964,0.018315662,-0.9468922,1.6111985445022583,-0.0954231470823288,9.899940490722656,26.445648193359375,93.17009735107422, -5.631138324737549
523,550619102,0.1610999,-0.26234317,0.01783733,-0.95126545,0.4430096745491028,2.0189743041992188,8.181358337402344,20.376007080078125,106.10494232177734, -6.292826175689697
524,550635769,0.16153352,-0.24584134,0.016312584,-0.95561713,0.7539389133453369,2.8590729236602783,8.172462463378906,30.23828887939453,113.87940979003906, -2.5042762756347656
525,550652436,0.16148238,-0.22427174,0.012157587,-0.9609782,4.642258167266846,4.183457374572754,6.79892635345459,52.408260345458984,145.9761199951172, -10.651256561279297
526,550669103,0.16005068,-0.19626528,0.010969507,-0.96733886,10.628250122070312,4.7316508293151855,8.255946159362793,37.86505126953125,193.48220825195312, -15.689159393310547
527,550685770,0.15727115,-0.16084042,0.023577116,-0.9740848,16.335538864135742,3.9683640003204346,10.307306289672852,-47.58235168457031,258.7395324707031, -5.774499416351318
528,550702437,0.15415911,-0.119248234,0.051374797,-0.97947764,19.287933349609375,-0.3229276239871979,9.577008247375488,-143.3457489013672,315.2354431152344, 11.416050910949707
529,550719104,0.14858179,-0.06661995,0.080590606,-0.98335725,23.244525909423828,1.9581081867218018,12.806827545166016,-143.83302307128906,390.97637939453125, 1.600101351737976
530,550735771,0.14060012,-0.006509889,0.10628962,-0.98432356,19.5946044921875,1.3046088218688965,19.266151428222656,-115.26124572753906,438.2646789550781, -8.950078964233398
531,550752438,0.13120031,0.05359039,0.12716416,-0.9817051,4.962546348571777,-6.031764507293701,20.444395065307617,-85.48026275634766,434.5751647949219, -15.137521743774414
532,550769105,0.120204926,0.09639453,0.122525625,-0.98043233,25.417617797851562,-14.891027450561523,-15.802865028381348,72.87860107421875,295.5840759277344, -32.869754791259766
533,550785772,0.113121316,0.12550281,0.09975049,-0.9805628,19.575428009033203,-21.489059448242188,-19.37792205810547,182.61026000976562,184.32691955566406, -7.231503963470459
534,550802439,0.10056517,0.14657983,0.08245377,-0.98061395,-9.21632194519043,23.790987014770508,15.035148620605469,144.41409301757812,138.48898315429688, -54.467105865478516
535,550819106,0.10361004,0.14482017,0.11371392,-0.9774265,-4.431108474731445,-12.949953079223633,-4.750156879425049,-216.81719970703125,12.37221908569336, -8.758760452270508
536,550835773,0.106255434,0.13835752,0.11364467,-0.9780864,-8.701525688171387,-6.358541488647461,5.320852756500244,-5.935750961303711,-45.150535583496094, 13.239583015441895
537,550852440,0.10998173,0.12299183,0.11351695,-0.97974086,-9.945008277893066,-4.676394462585449,9.85759449005127,-12.172783851623535,-106.93732452392578, 12.79981517791748
538,550869107,0.11270808,0.103616245,0.107389085,-0.98235905,-6.639685153961182,-7.582980632781982,10.815530776977539,26.89590072631836,-138.6077880859375, 7.216291427612305
539,550885774,0.114713974,0.08606714,0.09076982,-0.9854922,-5.95076847076416,-4.454333782196045,15.601702690124512,100.1908950805664,-134.2717742919922, 10.687287330627441
540,550902441,0.116253726,0.07235991,0.073469274,-0.98785245,-7.287839889526367,0.8791137337684631,19.093154907226562,107.67948150634766,-108.04692840576172, 10.878898620605469
541,550919108,0.118076056,0.06323381,0.064101845,-0.9889143,-8.416659355163574,2.4387781620025635,20.970993041992188,56.61984634399414,-70.13143157958984, 12.196859359741211
542,550935775,0.119435795,0.060875446,0.05886177,-0.9892248,-8.68308162689209,1.5456031560897827,20.357938766479492,33.86156463623047,-20.304471969604492, 10.854297637939453
543,550952442,0.11936197,0.06513458,0.055014066,-0.9891839,-8.233881950378418,1.178627610206604,18.71023941040039,30.238187789916992,26.495513916015625, 3.483379364013672
544,550969109,0.11814004,0.072990425,0.054676156,-0.988801,-7.438760757446289,0.9403162598609924,15.786763191223145,9.664511680603027,54.3493537902832, -4.266353607177734
545,550985776,0.11707386,0.08128685,0.058912963,-0.9880366,-7.2563090324401855,0.9659228324890137,12.544163703918457,-21.333797454833984,61.12333679199219, -5.038848400115967
546,551002443,0.11725385,0.08805428,0.066678725,-0.9869412,-7.1895623207092285,-0.20097538828849792,9.388589859008789,-47.397186279296875,53.18435287475586, 1.0913447141647339
547,551019110,0.11870601,0.09205724,0.07500109,-0.9858044,-7.385788440704346,-1.878908395767212,6.635768413543701,-54.19439697265625,34.241485595703125, 8.121758460998535
548,551035777,0.12058213,0.09222751,0.08176969,-0.9850223,-7.127990245819092,-2.9197590351104736,5.0124335289001465,-46.84706115722656,6.474860191345215, 9.664640426635742
549,551052444,0.12265564,0.08820701,0.086209275,-0.9847559,-6.137248992919922,-2.94814395904541,4.205870151519775,-34.33367919921875,-24.348590850830078, 9.63196849822998
550,551069111,0.12538262,0.07918061,0.088992395,-0.984932,-4.099926948547363,-2.909242868423462,4.013547420501709,-27.422340393066406,-60.354740142822266, 11.65859317779541
551,551085778,0.12920198,0.064023696,0.09219583,-0.9852456,-0.3021916449069977,-4.286269664764404,3.7660791873931885,-36.01980209350586,-102.29026794433594, 14.9153470993042
552,551102445,0.13249113,0.043728054,0.09235248,-0.9859038,2.8376152515411377,-4.257721900939941,3.4016213417053223,-19.434171676635742,-139.61758422851562, 9.061943054199219
553,551119112,0.13501221,0.021374438,0.08670289,-0.9868124,1.6216926574707031,-2.5456717014312744,7.308398246765137,18.493022918701172,-158.40525817871094, 4.052030086517334
554,551135779,0.13906907,-0.0036789759,0.07986322,-0.9870507,-1.3908597230911255,-0.36463701725006104,-1.1331539154052734,23.455772399902344,-178.6234588623047, 13.663731575012207
555,551152446,0.15156461,-0.057990476,0.055553705,-0.98518026,13.071786880493164,-17.31804847717285,-50.73365783691406,113.17433166503906,-398.8094177246094, 56.43686294555664
556,551169113,0.1537843,-0.10336583,0.037441093,-0.9819701,44.85386276245117,15.252181053161621,51.498199462890625,76.14057922363281,-328.1148376464844, -6.172338485717773
557,551185780,0.16173834,-0.14877047,0.029180957,-0.97511935,13.016051292419434,-11.450274467468262,21.447376251220703,12.520525932312012,-321.5413513183594, 44.04195022583008
558,551202447,0.16964848,-0.17729251,0.0105173895,-0.96936935,30.393266677856445,1.991058349609375,12.550688743591309,101.35987091064453,-218.621337890625, 35.14287567138672
559,551219114,0.17666762,-0.20778202,0.009423711,-0.9620435,10.651853561401367,7.960150718688965,9.424417495727539,-19.199817657470703,-212.80087280273438, 52.56260299682617
560,551235781,0.17799614,-0.23180175,0.0038800568,-0.9563324,17.626869201660156,6.9815568923950195,11.68203067779541,10.074955940246582,-172.66351318359375, 7.210781097412109
561,551252448,0.17413752,-0.25100598,0.0075778347,-0.9521638,8.658388137817383,1.83596670627594,9.20368766784668,-53.00684356689453,-126.97806549072266, -13.68979549407959
562,551269115,0.16841833,-0.26540968,0.0069567277,-0.94928694,2.456515073776245,1.0962769985198975,7.216094017028809,-22.106910705566406,-98.37508392333984, -34.53538131713867
563,551285782,0.16402067,-0.27986848,0.0035671853,-0.9459171,-0.4345022439956665,-2.975969076156616,8.038043975830078,-1.7103445529937744,-102.93384552001953, -30.382156372070312
564,551302449,0.16107045,-0.29265103,0.0022498525,-0.9425537,-3.601579427719116,-4.517973899841309,8.205780029296875,-10.502326011657715,-89.77734375, -17.03632164001465
565,551319116,0.16072048,-0.302956,0.001302287,-0.939354,-4.672443389892578,-4.649786472320557,6.161318778991699,-4.920984268188477,-73.11599731445312, 0.2735680341720581
566,551335783,0.16162229,-0.31079516,0.0011829057,-0.9366345,-5.074735164642334,-2.1174862384796143,7.1537933349609375,-4.938849449157715,-55.37663269042969, 9.428044319152832
567,551352450,0.163752,-0.31559455,0.0014628756,-0.93465716,-3.8447153568267822,-1.079431414604187,8.919513702392578,-1.525103211402893,-33.88496780395508, 17.284927368164062
568,551369117,0.16756082,-0.3187744,0.0023922422,-0.93289965,-2.491455316543579,-0.6941648721694946,9.87380599975586,-0.25739604234695435,-22.39139175415039, 29.17316246032715
569,551385784,0.17167807,-0.32110298,0.003326311,-0.9313481,-0.2670447528362274,0.8938236236572266,11.032509803771973,1.3445252180099487,-16.577377319335938, 30.875198364257812
570,551402451,0.17459808,-0.323473,0.0054000607,-0.92997444,3.6451773643493652,1.924560546875,11.118134498596191,-8.671156883239746,-15.16563606262207, 25.49374771118164
571,551419118,0.17634931,-0.32544556,0.006722273,-0.92894655,5.862628936767578,0.3150479793548584,12.854214668273926,-5.995174407958984,-12.767732620239258, 15.97779655456543
572,551435785,0.1778148,-0.32629338,0.0068566147,-0.9283688,7.031789779663086,-1.3253118991851807,12.48446273803711,2.3203389644622803,-6.047596454620361, 11.01198673248291
573,551452452,0.17835812,-0.3263393,0.008207551,-0.92823726,5.091986179351807,0.1382351666688919,10.802205085754395,-6.5236592292785645,1.5752006769180298, 7.338098526000977
574,551469119,0.17769587,-0.32507253,0.01168409,-0.9287713,2.66782283782959,0.05345112830400467,9.890896797180176,-21.163963317871094,14.084399223327637, 3.6818532943725586
575,551485786,0.1770079,-0.322407,0.015082309,-0.9297823,0.08753790706396103,-0.1511588841676712,9.188236236572266,-19.000751495361328,23.937480926513672, 2.8648343086242676
576,551502453,0.17683133,-0.3180633,0.017137384,-0.9312752,-2.021963596343994,0.31002214550971985,8.853549003601074,-7.2202887535095215,33.98061752319336, 2.717665910720825
577,551519120,0.17733625,-0.31208012,0.017808033,-0.9331889,-1.3531146049499512,0.3420166075229645,8.866952896118164,5.137564182281494,43.5565299987793, 3.6986584663391113
578,551535787,0.17809272,-0.30458513,0.017383128,-0.93552625,0.24825549125671387,-0.4293123781681061,8.728349685668945,14.564128875732422,52.72843933105469, 2.600055694580078
579,551552454,0.17887183,-0.29641804,0.017155103,-0.93800193,1.6075615882873535,-1.756679654121399,9.536622047424316,14.156306266784668,57.52719497680664, 3.0382094383239746
580,551569121,0.18029813,-0.28999555,0.018602489,-0.93970716,1.8494380712509155,-2.127031087875366,10.015362739562988,2.4118456840515137,46.6474494934082, 11.32111644744873
581,551585788,0.18199751,-0.2839613,0.021314265,-0.9411638,2.9783411026000977,-1.1235096454620361,10.750021934509277,-5.743374347686768,45.133995056152344, 15.814208984375
582,551602455,0.18339387,-0.274805,0.021470457,-0.9436039,4.958929061889648,0.6194680333137512,9.576239585876465,14.23479175567627,64.06849670410156, 8.068861961364746
583,551619122,0.18247904,-0.26185983,0.022005236,-0.9474425,5.020894527435303,3.8982248306274414,8.833632469177246,12.379298210144043,92.10069274902344, -7.3862128257751465
584,551635789,0.18015487,-0.24470907,0.0236547,-0.95241934,5.599794864654541,4.559201240539551,8.104349136352539,8.004411697387695,123.15184020996094, -15.250672340393066
585,551652456,0.17771098,-0.22190198,0.024161313,-0.9584337,7.434384822845459,3.6700127124786377,8.023690223693848,22.42445182800293,160.5521697998047, -18.21373176574707
586,551669123,0.17402387,-0.19241206,0.030288842,-0.9652856,11.569547653198242,3.4616856575012207,8.383575439453125,-8.253191947937012,212.98622131347656, -17.631141662597656
587,551685790,0.1691451,-0.15588556,0.047976922,-0.97200227,13.657683372497559,-0.27810776233673096,10.183797836303711,-78.24044036865234,273.69036865234375, -8.469747543334961
588,551702457,0.16384654,-0.111813545,0.07433647,-0.9773057,13.91054916381836,-2.680511713027954,9.02999496459961,-128.4290771484375,332.9658508300781, 2.2582802772521973
589,551719124,0.15648046,-0.0586537,0.10174021,-0.9806748,14.86170482635498,1.3524861335754395,12.890621185302734,-127.8783950805664,394.9430847167969, -3.923956871032715
590,551735791,0.14589103,-0.000027684291,0.12754537,-0.9810446,10.239914894104004,-1.651871919631958,17.565593719482422,-114.78650665283203,431.2591857910156, -19.10930633544922
591,551752458,0.13492782,0.055958983,0.13787366,-0.9796195,8.795693397521973,-11.373045921325684,11.658642768859863,-14.721415519714355,398.2326965332031, -22.066818237304688
592,551769125,0.121882334,0.09460187,0.119256556,-0.9808025,27.34063720703125,-12.32734203338623,-20.863052368164062,167.47161865234375,255.53024291992188, -43.905555725097656
593,551785792,0.11244455,0.12552416,0.0954534,-0.9810653,11.090648651123047,-12.330366134643555,-3.608379364013672,192.9964141845703,197.03851318359375, -21.833160400390625
594,551802459,0.10465834,0.14280787,0.09333791,-0.9797657,-4.518011093139648,12.040628433227539,8.582863807678223,33.79674530029297,122.17532348632812, -37.276695251464844
595,551819126,0.10426207,0.14688312,0.099518634,-0.97859657,-4.2240118980407715,-10.320063591003418,-0.8914108276367188,-38.997100830078125,34.235435485839844, -4.095586776733398
596,551835793,0.1048531,0.14396556,0.09836474,-0.97908366,-8.717705726623535,-1.9501594305038452,6.597508430480957,5.657464027404785,-20.453847885131836, 3.843902349472046
597,551852460,0.10754657,0.13227016,0.1025491,-0.98001146,-8.368555068969727,-4.757471561431885,8.110298156738281,-38.3438835144043,-77.62488555908203, 6.413763046264648
598,551869127,0.11112036,0.11551227,0.09899187,-0.9820949,-7.112318992614746,-7.372303009033203,10.961162567138672,10.185303688049316,-119.1909408569336, 14.889520645141602
599,551885794,0.11516087,0.09741626,0.08713575,-0.9847111,-7.030701637268066,-4.342217445373535,15.500153541564941,65.31851196289062,-135.33712768554688, 23.218141555786133
600,551902461,0.119126745,0.08101678,0.07391702,-0.9868038,-6.463810920715332,-0.7626559734344482,18.033933639526367,75.68551635742188,-124.55508422851562, 24.9968318939209
601,551919128,0.12282018,0.06836263,0.06441199,-0.98797435,-6.705684661865234,2.0601539611816406,19.726839065551758,53.238037109375,-95.47136688232422, 23.733150482177734
602,551935795,0.12527683,0.061041046,0.058886293,-0.9884901,-7.587526798248291,3.1064274311065674,21.04322624206543,30.959857940673828,-55.067665100097656, 16.405250549316406
603,551952462,0.12562732,0.059823986,0.05401429,-0.9887982,-7.486537933349609,2.5684316158294678,19.955711364746094,32.51730728149414,-12.12733268737793, 4.503231048583984
604,551969129,0.12464511,0.06327844,0.04905027,-0.988966,-6.4812912940979,1.3965277671813965,16.935405731201172,37.62174606323242,20.05272674560547, -2.6419544219970703
605,551985796,0.123426065,0.06828845,0.04650393,-0.9889087,-5.351688861846924,0.4640691876411438,12.468927383422852,22.508344650268555,32.8350830078125, -4.585198879241943
606,552002463,0.1235964,0.07134524,0.048237808,-0.9885886,-4.716975212097168,-1.1483268737792969,8.62785816192627,-9.002716064453125,22.825899124145508, 2.4386348724365234
607,552019130,0.12542453,0.070510484,0.05396044,-0.9881223,-4.82567834854126,-1.5331566333770752,6.615941524505615,-40.267147064208984,-0.7545546889305115, 10.550505638122559
608,552035797,0.12762704,0.06569976,0.06286823,-0.9876451,-6.0805768966674805,-2.224275827407837,6.214215278625488,-65.49295043945312,-25.200790405273438, 10.040297508239746
609,552052464,0.12950808,0.057292443,0.07247801,-0.98726517,-6.020668983459473,-2.1245460510253906,6.261384010314941,-73.18850708007812,-48.97394943237305, 5.843204498291016
610,552069131,0.13157602,0.045237187,0.08229246,-0.9868484,-3.4546945095062256,-2.4359066486358643,7.307465553283691,-77.8799057006836,-73.69225311279297, 5.187864780426025
611,552085798,0.13274515,0.029978044,0.088922255,-0.9866983,-2.0315864086151123,-2.661921501159668,7.514273643493652,-58.705318450927734,-97.91799926757812, -2.0103566646575928
612,552102465,0.13262303,0.011578013,0.09319361,-0.986708,0.9331949949264526,-0.8766164779663086,4.412797927856445,-45.175907135009766,-120.63947296142578, -12.381613731384277
613,552119132,0.13276616,-0.007853047,0.08884711,-0.98712623,3.594855785369873,-3.5811095237731934,5.994266510009766,12.603448867797852,-135.68800354003906, -10.914443016052246
614,552135799,0.13409841,-0.02804125,0.075115524,-0.98771936,2.7467539310455322,-3.773716688156128,9.522300720214844,75.82440185546875,-150.07264709472656, -3.9776904582977295
615,552152466,0.14482735,-0.065742485,0.059403215,-0.985482,-1.0291619300842285,-10.889806747436523,-47.92984390258789,73.53644561767578,-276.2598571777344, 53.0216064453125
616,552169133,0.15041018,-0.11625713,0.049167197,-0.9805325,55.63246536254883,2.523742914199829,21.00314712524414,20.41397476196289,-356.7727966308594, 17.774534225463867
617,552185800,0.15382561,-0.15540762,0.026687166,-0.97543555,25.94890594482422,1.605680227279663,38.42870330810547,112.9876708984375,-291.6545104980469, -2.026880979537964
618,552202467,0.1627872,-0.1880852,0.016388327,-0.9684297,15.649036407470703,-2.12433123588562,9.596895217895508,43.7370719909668,-238.21726989746094, 51.65192794799805
619,552219134,0.16762695,-0.21474253,0.012534582,-0.9620968,19.656635284423828,9.46191692352295,8.810513496398926,2.39618182182312,-189.4455108642578, 32.528236389160156
620,552235801,0.1653554,-0.23616943,0.01101115,-0.95747626,15.143011093139648,5.870789051055908,12.935234069824219,-17.280973434448242,-148.88430786132812, -12.24494743347168
621,552252468,0.15927558,-0.2460361,0.0114512155,-0.95601606,7.101049423217773,-0.7845330834388733,9.371447563171387,-22.968055725097656,-65.0632553100586, -36.617149353027344
622,552269135,0.15266249,-0.26009855,0.010540249,-0.9533793,-2.402695894241333,-1.8913218975067139,5.710618019104004,-19.65160369873047,-96.06746673583984, -41.43035888671875
623,552285802,0.14781517,-0.2722022,0.011551803,-0.95074904,-6.698111057281494,-2.7819530963897705,6.437399864196777,-27.03220558166504,-81.38697052001953, -26.367395401000977
624,552302469,0.14421055,-0.28087747,0.011371728,-0.94877934,-8.187698364257812,-3.60125994682312,7.003245830535889,-13.398005485534668,-59.14875411987305, -21.019393920898438
625,552319136,0.14304984,-0.28735065,0.0092604915,-0.9470382,-9.974828720092773,-4.216545581817627,6.2409210205078125,6.088694095611572,-46.556541442871094, -9.038717269897461
626,552335803,0.14436132,-0.2923359,0.007999537,-0.94532335,-8.173215866088867,-1.578874111175537,7.590691089630127,6.860991477966309,-36.253841400146484, 8.603522300720215
627,552352470,0.14756995,-0.29557118,0.00619184,-0.9438343,-5.081465244293213,-0.08113992214202881,8.594268798828125,15.934889793395996,-25.185012817382812, 19.569705963134766
628,552369137,0.15175743,-0.29584184,0.0044273306,-0.94309497,-3.211080551147461,0.7785435914993286,13.566404342651367,20.649093627929688,-4.513755798339844, 25.297021865844727
629,552385804,0.15590604,-0.2972475,0.0071511483,-0.9419589,-0.1888960301876068,-1.4148192405700684,13.76351261138916,-9.772239685058594,-8.105023384094238, 34.494537353515625
630,552402471,0.15889606,-0.29909298,0.009812342,-0.94085056,4.384284496307373,1.1670340299606323,14.285706520080566,-12.237713813781738,-10.991076469421387, 26.732921600341797
631,552419138,0.16048285,-0.2993302,0.011125099,-0.9404911,6.917516231536865,3.632373809814453,11.375550270080566,-4.611851692199707,-0.4781894385814667, 14.189130783081055
632,552435805,0.16080573,-0.29854777,0.012085487,-0.94067276,6.6641740798950195,1.644504427909851,11.35975170135498,-3.77051043510437,6.918459415435791, 4.874116897583008
633,552452472,0.16012682,-0.29628682,0.0111580575,-0.9415146,4.696310520172119,0.05795999616384506,10.53670597076416,8.066326141357422,15.816047668457031, -6.027482509613037
634,552469139,0.159164,-0.293504,0.0121005755,-0.94253725,2.1923725605010986,-1.450461983680725,10.720843315124512,-4.0433430671691895,21.61927604675293, -4.20645809173584
635,552485806,0.159115,-0.2900239,0.014284164,-0.9435917,-1.2669936418533325,-1.2855064868927002,9.789348602294922,-9.502814292907715,27.441816329956055, 4.194828510284424
636,552502473,0.16029115,-0.28528017,0.016801065,-0.94479644,-2.863424777984619,-1.4797190427780151,9.357186317443848,-7.860783576965332,36.118797302246094, 12.697632789611816
637,552519140,0.16287364,-0.2790327,0.01815129,-0.9461945,-1.94330894947052,-2.199038028717041,8.7984619140625,4.112364292144775,44.74567413330078, 19.41228675842285
638,552535807,0.16640322,-0.2706154,0.018768735,-0.9480115,-0.5554051995277405,-2.6584205627441406,9.261802673339844,13.143895149230957,58.66944885253906, 23.875967025756836
639,552552474,0.1703999,-0.26002866,0.019429376,-0.9502484,0.5304417610168457,-2.3485355377197266,9.683365821838379,16.238719940185547,73.53401184082031, 26.709733963012695
640,552569141,0.17475566,-0.24801666,0.019536344,-0.9526632,1.7191855907440186,-1.2453927993774414,9.24639892578125,22.165658950805664,82.4304428100586, 27.968650817871094
641,552585808,0.17853521,-0.23643412,0.020139761,-0.95489216,2.229011297225952,1.7082606554031372,9.348963737487793,17.374818801879883,79.94830322265625, 25.17512321472168
642,552602475,0.18083636,-0.22403459,0.021839878,-0.9574083,4.652001857757568,3.0193889141082764,9.084358215332031,8.793912887573242,87.30510711669922, 17.0498104095459
643,552619142,0.18116626,-0.20689274,0.020473566,-0.961226,7.295734405517578,4.808432102203369,8.358527183532715,32.015235900878906,117.01179504394531, -1.4663134813308716
644,552635809,0.17858036,-0.18353033,0.024025174,-0.9663587,10.017004013061523,6.3445820808410645,8.056744575500488,3.270686388015747,166.5637664794922, -14.342439651489258
645,552652476,0.17382663,-0.15440488,0.03772301,-0.97186476,13.490178108215332,3.062413215637207,10.0506591796875,-59.800811767578125,218.20635986328125, -15.223079681396484
646,552669143,0.1680298,-0.117935464,0.05910873,-0.9769155,14.912796974182129,-2.006516218185425,9.94111442565918,-103.70548248291016,276.357666015625, -11.379983901977539
647,552685810,0.16218019,-0.07198352,0.08307225,-0.98062015,16.22783851623535,-0.5638574957847595,11.12507152557373,-110.74522399902344,342.1002502441406, -4.109457969665527
648,552702477,0.1529379,-0.01717599,0.106703684,-0.9823085,17.87989044189453,1.6259440183639526,17.360347747802734,-101.61202239990234,402.5425109863281, -19.683012008666992
649,552719144,0.14120926,0.040964488,0.1274189,-0.98089087,6.285167217254639,-4.482161045074463,19.749481201171875,-81.22098541259766,423.5535888671875, -30.86858558654785
650,552735811,0.12975004,0.08884773,0.1310828,-0.9788202,17.86239242553711,-13.062334060668945,-1.3067822456359863,23.049161911010742,337.6666564941406, -32.585487365722656
651,552752478,0.11834578,0.11960614,0.11565608,-0.9789347,25.645641326904297,-13.700685501098633,-20.921483993530273,138.2420654296875,204.12637329101562, -38.04286193847656
652,552769145,0.10846934,0.1470972,0.09062288,-0.9789715,-1.9633347988128662,-1.3462634086608887,9.264315605163574,199.09764099121094,173.44427490234375, -22.551803588867188
653,552785812,0.10465652,0.15654495,0.10346152,-0.9766458,-6.828779220581055,1.9731389284133911,6.732326030731201,-76.97407531738281,78.82959747314453, -29.547422409057617
654,552802479,0.105714425,0.15737192,0.10448785,-0.97628963,-4.8609619140625,-9.307842254638672,0.5455928444862366,-7.748627662658691,6.785525798797607, 8.33191967010498
655,552819146,0.10780583,0.15125515,0.10465064,-0.9770101,-9.800238609313965,-2.26310133934021,8.338162422180176,-7.15234375,-42.37910079956055, 10.256489753723145
656,552835813,0.110836856,0.13825159,0.105383486,-0.97851765,-8.945121765136719,-6.048365592956543,8.991753578186035,-16.435787200927734,-89.77708435058594, 10.374035835266113
657,552852480,0.11395226,0.1222846,0.096400246,-0.981208,-6.734746932983398,-6.278289794921875,11.097078323364258,47.579933166503906,-118.34566497802734, 17.0137882232666
658,552869147,0.116949126,0.10671653,0.08022968,-0.98412323,-7.161435604095459,-2.2728376388549805,15.104650497436523,96.74779510498047,-121.40632629394531, 22.238636016845703
659,552885814,0.11944238,0.09373553,0.06617364,-0.9861891,-8.281745910644531,1.172971248626709,17.343290328979492,84.4548568725586,-101.31132507324219, 19.349191665649414
660,552902481,0.1220409,0.08453395,0.056341242,-0.9873128,-8.025111198425293,1.9380779266357422,16.412660598754883,58.40312576293945,-71.6886215209961, 19.842647552490234
661,552919148,0.12401166,0.0800573,0.048241273,-0.98786914,-7.777645111083984,1.2494523525238037,16.4118595123291,50.725955963134766,-37.62861633300781, 16.89202880859375
662,552935815,0.124868155,0.07946282,0.04349613,-0.9880296,-8.358630180358887,2.533198595046997,14.778009414672852,31.712974548339844,-7.855844497680664, 9.101516723632812
663,552952482,0.12523752,0.08062705,0.04459772,-0.98783946,-7.587220191955566,2.0535569190979004,11.273599624633789,-6.368191242218018,9.389179229736328, 3.4327757358551025
664,552969149,0.1262624,0.0821534,0.048267405,-0.9874106,-7.059909343719482,0.41527149081230164,8.256461143493652,-23.96095085144043,13.930036544799805, 6.775224685668945
665,552985816,0.12799463,0.082539655,0.053497363,-0.9868857,-6.863962173461914,0.8599496483802795,6.349323749542236,-35.9721565246582,7.302544593811035, 10.36280345916748
666,553002483,0.13017875,0.080381505,0.06145206,-0.9863147,-6.536072254180908,-0.022493503987789154,5.1856303215026855,-56.97447967529297,-7.7685017585754395, 10.959695816040039
667,553019150,0.1326832,0.07501733,0.06932878,-0.98588127,-5.5076704025268555,-2.1475653648376465,4.122995376586914,-59.419273376464844,-29.853492736816406, 11.653075218200684
668,553035817,0.13502476,0.065423615,0.074539475,-0.9858665,-4.146275997161865,-2.852072238922119,4.164399147033691,-44.87466812133789,-61.142356872558594, 9.446188926696777
669,553052484,0.13741818,0.050442476,0.07971982,-0.9860108,-2.038858652114868,-3.840181589126587,5.270974159240723,-49.5580940246582,-97.82137298583984, 6.825504302978516
670,553069151,0.13809031,0.031844646,0.07957334,-0.9867044,-0.04663970321416855,-3.4508450031280518,4.736046314239502,-15.904735565185547,-126.63142395019531, -5.568905353546143
671,553085818,0.13761772,0.012261277,0.06900929,-0.9880028,0.1372237354516983,-1.7379977703094482,8.767048835754395,54.46613693237305,-142.70816040039062, -12.2123384475708
672,553102485,0.14006376,-0.011784158,0.05580487,-0.9884987,-2.960413932800293,-1.5667617321014404,-8.507792472839355,67.57610321044922,-176.8328399658203, 6.4774065017700195
673,553119152,0.14655706,-0.06664579,0.028197711,-0.986552,25.190898895263672,-8.44357967376709,-35.735389709472656,135.30528259277344,-402.1408386230469, 23.27102279663086
674,553135819,0.149593,-0.10381713,0.013238468,-0.98319346,33.69491958618164,7.6055827140808105,50.57930374145508,65.54289245605469,-268.9249572753906, 10.494767189025879
675,553152486,0.15733618,-0.1445488,-0.00037215115,-0.9769091,17.29730987548828,-6.021879196166992,16.337467193603516,55.856746673583984,-293.90032958984375, 46.520774841308594
676,553169153,0.1658135,-0.17295997,-0.0128051955,-0.970787,18.676950454711914,2.465787172317505,18.990318298339844,62.11408996582031,-209.52169799804688, 52.41122055053711
677,553185820,0.17501006,-0.20187186,-0.013036928,-0.9635612,17.0373477935791,-0.3778976500034332,10.735763549804688,-18.867778778076172,-200.0849609375, 73.22402954101562
678,553202487,0.1774465,-0.22550876,-0.014845154,-0.95783037,24.953292846679688,9.143299102783203,12.374688148498535,-11.479647636413574,-165.4495391845703, 24.107223510742188
679,553219154,0.17419219,-0.24387337,-0.006748166,-0.95401156,15.530385971069336,5.331264495849609,10.570418357849121,-79.17999267578125,-116.11165618896484, -0.44004395604133606
680,553235821,0.16862442,-0.2582925,-0.0050407327,-0.9512235,1.8223868608474731,1.6042747497558594,9.233752250671387,-36.37792205810547,-96.21154022216797, -27.48406219482422
681,553252488,0.1637764,-0.27436066,-0.0043131025,-0.9475684,-3.2910330295562744,-0.6651571393013,5.793333053588867,-30.547645568847656,-109.69857025146484, -23.454294204711914
682,553269155,0.16039822,-0.2863938,-0.0039629433,-0.9445825,-7.767739772796631,-2.0426299571990967,5.735199451446533,-20.784635543823242,-82.5987319946289, -15.556986808776855
683,553285822,0.15867218,-0.29532567,-0.005737291,-0.94211143,-8.223576545715332,-2.6327290534973145,6.034181594848633,-0.35981249809265137,-63.83866500854492, -9.837445259094238
684,553302489,0.15794432,-0.3015975,-0.008629426,-0.94022286,-6.514226913452148,-1.7962651252746582,7.527252197265625,11.736353874206543,-46.70186233520508, -6.574782848358154
685,553319156,0.1587152,-0.30601186,-0.011101763,-0.9386394,-4.620926380157471,-1.7267104387283325,9.123138427734375,14.076812744140625,-33.60578918457031, 3.3821792602539062
