PacketCounter,SampleTimeFine,Quat_W,Quat_X,Quat_Y,Quat_Z,Acc_X,Acc_Y,Acc_Z,Gyr_X,Gyr_Y,Gyr_Z 
1,985825245,0.7300973,-0.17110978,-0.64196396,-0.15988013,0.11699660122394562,-0.0928562581539154,0.05763410031795502,0.19240598380565643,0.27695414423942566, 0.05614665523171425
2,985841912,0.7291667,-0.17268611,-0.64314455,-0.15767232,9.784539222717285,-0.3846447765827179,1.0009416341781616,1.7285696268081665,8.478618621826172, 2.2421298027038574
3,985858579,0.72855765,-0.17245473,-0.644222,-0.15633738,9.354717254638672,-0.3764209747314453,1.0291739702224731,0.5869086384773254,5.408358573913574, 1.9322925806045532
4,985875246,0.72813475,-0.1718152,-0.64504254,-0.15562621,9.316990852355957,-0.4522657096385956,0.9160081148147583,-0.302857369184494,0.783511757850647, 1.119307041168213
5,985891913,0.72743905,-0.17126977,-0.64614886,-0.15489036,9.428633689880371,-0.46551311016082764,1.1144721508026123,-0.7756295800209045,-2.954028367996216, -0.10045301169157028
6,985908580,0.7269391,-0.1711312,-0.64675075,-0.15487818,9.649728775024414,-0.3117047846317291,1.716958999633789,-4.036753177642822,-3.632239580154419, -1.5396817922592163
7,985925247,0.72701806,-0.17141211,-0.64625853,-0.15624553,9.75008487701416,-0.23319491744041443,1.0631006956100464,-9.172281265258789,-3.9455604553222656, -2.5246572494506836
8,985941914,0.7266707,-0.17161359,-0.6463111,-0.15741907,9.697915077209473,-0.42677751183509827,0.6914704442024231,-8.379032135009766,-5.672306060791016, -1.772233247756958
9,985958581,0.7258977,-0.17193241,-0.6469108,-0.15817116,9.525405883789062,-0.32750415802001953,0.801766037940979,-6.37962532043457,-6.432784557342529, -1.3943684101104736
10,985975248,0.72474086,-0.17257056,-0.64783585,-0.15899393,9.459573745727539,-0.305679589509964,0.7758508920669556,-5.282505512237549,-8.716824531555176, -1.0193345546722412
11,985991915,0.72328186,-0.17309178,-0.64918464,-0.1595679,9.481812477111816,-0.43378275632858276,0.8303622603416443,-3.7900280952453613,-11.58492374420166, -1.3139320611953735
12,986008582,0.721611,-0.17372207,-0.650715,-0.16021262,9.72895336151123,-0.5765496492385864,1.4803324937820435,-2.1110639572143555,-13.553019523620605, -2.1094374656677246
13,986025249,0.7201245,-0.1745969,-0.65182334,-0.16144043,10.036198616027832,-0.500154972076416,1.9392741918563843,-4.48656702041626,-12.669496536254883, -4.036000728607178
14,986041916,0.718986,-0.175654,-0.6524349,-0.16289234,10.293334007263184,-0.6107276082038879,0.8597168922424316,-8.158456802368164,-11.420839309692383, -3.892390489578247
15,986058583,0.71790296,-0.17693338,-0.65290314,-0.16440043,10.334598541259766,-0.7943626642227173,0.04267119988799095,-5.226196765899658,-9.818352699279785, -3.1278886795043945
16,986075250,0.7169926,-0.17795956,-0.6533501,-0.16548574,10.060763359069824,-0.3988094925880432,-0.29221028089523315,-2.486366033554077,-6.607271194458008, -2.8280651569366455
17,986091917,0.7162564,-0.17887609,-0.6536813,-0.1663762,9.8080415725708,-0.14287060499191284,-0.34723421931266785,-0.7942498326301575,-3.0560691356658936, -1.7840014696121216
18,986108584,0.71587855,-0.17910421,-0.65401703,-0.16643749,9.5432767868042,-0.021142536774277687,-0.3653453290462494,-0.24597157537937164,0.1990683227777481, -0.3627014458179474
19,986125251,0.7156776,-0.17946066,-0.65408164,-0.16666375,9.504387855529785,-0.111030213534832,-0.2738628089427948,0.14236178994178772,3.408557415008545, 0.7010388374328613
20,986141918,0.71574837,-0.17986348,-0.6538255,-0.16693075,9.517496109008789,-0.1354030966758728,-0.370434433221817,0.4362804591655731,6.785772800445557, 1.7946631908416748
21,986158585,0.71601695,-0.18042612,-0.6532683,-0.16735339,9.447159767150879,-0.2981927692890167,-0.4543980658054352,-0.03661336749792099,9.646675109863281, 2.6456198692321777
22,986175252,0.7165067,-0.18085778,-0.65254843,-0.16759823,9.511104583740234,-0.3876292109489441,0.018554387614130974,0.6684213280677795,11.846294403076172, 3.2903945446014404
23,986191919,0.7170874,-0.1820856,-0.65125906,-0.16879643,9.704551696777344,-0.2552112936973572,0.7660089731216431,-2.398439407348633,14.91224479675293, 3.3587565422058105
24,986208586,0.7180158,-0.18275635,-0.6498872,-0.16941169,10.022454261779785,-0.21976391971111298,0.9727826118469238,-7.289229393005371,16.370241165161133, 3.4050521850585938
25,986225253,0.7187701,-0.18415394,-0.6483415,-0.17061722,9.915104866027832,-0.47602882981300354,0.642643928527832,-11.155933380126953,15.387970924377441, 4.0939202308654785
26,986241920,0.7198454,-0.18344516,-0.6477367,-0.16913801,9.637845039367676,-0.491525799036026,0.7057785987854004,-12.969465255737305,11.977131843566895, 4.626420021057129
27,986258587,0.71972185,-0.18608852,-0.6465275,-0.17138816,9.421768188476562,-0.2746019959449768,0.8594719767570496,-13.123406410217285,8.458504676818848, 3.6416096687316895
28,986275254,0.7201329,-0.18554127,-0.64647067,-0.17046651,9.437684059143066,-0.40800219774246216,1.187604546546936,-11.87134075164795,5.817332744598389, 1.4395818710327148
29,986291921,0.7200308,-0.18576828,-0.6464927,-0.17056678,9.593259811401367,-0.4776335060596466,1.2575281858444214,-9.578986167907715,2.4457507133483887, 0.14238743484020233
30,986308588,0.7198509,-0.1853984,-0.6469401,-0.1700324,9.682084083557129,-0.5819959044456482,1.3583014011383057,-6.603991508483887,-0.4775872230529785, -0.37940093874931335
31,986325255,0.7193258,-0.18553273,-0.6474693,-0.1700937,9.688774108886719,-0.5981383323669434,1.3946683406829834,-5.206191062927246,-3.058694362640381, -1.051900863647461
32,986341922,0.7186773,-0.18551764,-0.64821297,-0.17001806,9.722780227661133,-0.6407469511032104,1.4526066780090332,-4.258419513702393,-5.080727577209473, -1.6043797731399536
33,986358589,0.7178651,-0.1855373,-0.649074,-0.1701434,9.690529823303223,-0.5610194802284241,1.1430249214172363,-2.7635083198547363,-6.7008466720581055, -2.6479434967041016
34,986375256,0.7169407,-0.18554966,-0.65004647,-0.17031483,9.7024564743042,-0.6303499341011047,0.8957343697547913,-1.5576624870300293,-7.960110187530518, -3.1183218955993652
35,986391923,0.71608734,-0.18525603,-0.6510812,-0.17027198,9.711368560791016,-0.6806114315986633,0.6025417447090149,1.428414225578308,-7.967293739318848, -3.4809842109680176
36,986408590,0.71548885,-0.18435374,-0.6521385,-0.16972005,9.706279754638672,-0.522266149520874,0.49466389417648315,6.484862804412842,-6.814390659332275, -3.5754830837249756
37,986425257,0.7150421,-0.18323554,-0.65314704,-0.16893347,9.682456970214844,-0.3924679756164551,0.4957222044467926,8.227269172668457,-5.860393047332764, -3.2178781032562256
38,986441924,0.71472925,-0.18206151,-0.65406036,-0.167991,9.720144271850586,-0.3120152950286865,0.5522529482841492,8.956962585449219,-4.869526386260986, -2.4321186542510986
39,986458591,0.714512,-0.18098575,-0.65480894,-0.1671589,9.789523124694824,-0.16738559305667877,0.31967687606811523,9.1957368850708,-3.6478004455566406, -2.074014663696289
40,986475258,0.7143106,-0.18029337,-0.65533054,-0.16672325,9.87381362915039,-0.217533141374588,0.35748448967933655,7.332718849182129,-2.408618927001953, -1.756980299949646
41,986491925,0.7142724,-0.17970106,-0.6556244,-0.16637103,9.895764350891113,-0.3263632357120514,0.25817951560020447,5.891401290893555,-0.4878706932067871, -1.2323293685913086
42,986508592,0.7144171,-0.17923135,-0.65568066,-0.16603397,9.833937644958496,-0.3817073702812195,0.24432574212551117,5.284751892089844,1.4552432298660278, -0.2302069365978241
43,986525259,0.714779,-0.17871335,-0.6555421,-0.16558117,9.75618839263916,-0.3669751286506653,0.2962535619735718,5.160363674163818,3.408749580383301, 0.5324304103851318
44,986541926,0.71527374,-0.17805782,-0.6553383,-0.1649574,9.649165153503418,-0.3224658966064453,0.45006343722343445,4.731184959411621,4.395761013031006, 0.8313819766044617
45,986558593,0.71582943,-0.17745087,-0.6550208,-0.16446048,9.722914695739746,-0.3168922960758209,0.7609274983406067,3.3546431064605713,5.350334167480469, 0.6003041863441467
46,986575260,0.7164503,-0.17704344,-0.654508,-0.16423838,9.85642147064209,-0.34839051961898804,0.7358269095420837,2.556999683380127,6.580434799194336, 0.5914677381515503
47,986591927,0.7172676,-0.17615433,-0.65404284,-0.16347724,9.854353904724121,-0.42872610688209534,0.724461019039154,2.592332124710083,7.261246681213379, 0.8324577212333679
48,986608594,0.7179877,-0.175789,-0.6534012,-0.16327517,9.712808609008789,-0.40444064140319824,0.6884301900863647,2.1672892570495605,7.546482086181641, 0.9254830479621887
49,986625261,0.7189163,-0.1744732,-0.6530509,-0.16199744,9.669682502746582,-0.3338897228240967,0.8097366094589233,2.005429744720459,7.184856414794922, 0.9583057761192322
50,986641928,0.7194987,-0.17442384,-0.6523984,-0.16209355,9.624463081359863,-0.31231459975242615,0.9614170789718628,-0.07992445677518845,6.876570224761963, 0.7873282432556152
51,986658595,0.7200768,-0.17387044,-0.6520088,-0.16168882,9.624414443969727,-0.3397471308708191,0.9626204967498779,-2.3164892196655273,5.733486175537109, 0.04984872043132782
52,986675262,0.7200827,-0.17489146,-0.6513696,-0.16313143,9.661745071411133,-0.4498980939388275,1.0518766641616821,-3.9328298568725586,4.186901092529297, -0.9860889315605164
53,986691929,0.72029775,-0.1743943,-0.6513106,-0.1629489,9.70683479309082,-0.42041346430778503,1.054172396659851,-3.923647880554199,2.5469720363616943, -1.6375479698181152
54,986708596,0.7201676,-0.1749027,-0.6511065,-0.16379331,9.721184730529785,-0.43471410870552063,0.9033087491989136,-3.773326873779297,1.3557250499725342, -1.504272222518921
55,986725263,0.7200251,-0.17508781,-0.6511002,-0.16424587,9.650547981262207,-0.4080503582954407,0.8043727874755859,-2.2243223190307617,0.2609998285770416, -1.4574137926101685
56,986741930,0.7199417,-0.1746868,-0.65137136,-0.16396338,9.592155456542969,-0.3618871867656708,0.7885183691978455,-0.8141251802444458,-0.88555908203125, -1.186508297920227
57,986758597,0.71970594,-0.17463146,-0.65164393,-0.16397458,9.593597412109375,-0.36885806918144226,0.8377260565757751,-0.046576689928770065,-1.7749727964401245, -0.9037184715270996
58,986775264,0.7194812,-0.17441183,-0.6520128,-0.16372722,9.659452438354492,-0.3512406349182129,0.8570449352264404,0.5605403780937195,-2.2896602153778076, -0.5996445417404175
59,986791931,0.7192318,-0.17439543,-0.65231043,-0.16365486,9.734474182128906,-0.32208189368247986,0.8595038056373596,1.204226016998291,-2.1828296184539795, -0.26688429713249207
60,986808598,0.71910274,-0.1741279,-0.6526124,-0.16330263,9.780052185058594,-0.31531572341918945,0.6980249881744385,1.1903053522109985,-1.6363056898117065, -0.10899484157562256
61,986825265,0.7189987,-0.17396629,-0.6528259,-0.16307986,9.7772216796875,-0.356649786233902,0.6759754419326782,1.1311016082763672,-1.0873231887817383, -0.034756436944007874
62,986841932,0.71898663,-0.17351215,-0.6530892,-0.16256194,9.709953308105469,-0.41860947012901306,0.7295482158660889,0.8695704340934753,-0.8186715245246887, -0.12414476275444031
63,986858599,0.7190236,-0.17288007,-0.6533802,-0.16190086,9.670990943908691,-0.3477073609828949,0.753600001335144,0.17168830335140228,-0.6236947774887085, -0.4040146768093109
64,986875266,0.71898276,-0.17254606,-0.653593,-0.16157949,9.718737602233887,-0.3500361144542694,0.8201186656951904,-0.3164961040019989,-0.6205316781997681, -0.5014965534210205
65,986891933,0.71903485,-0.17198612,-0.6538195,-0.16102754,9.738323211669922,-0.32184988260269165,0.7502557635307312,-1.005618691444397,-0.19885700941085815, -0.5446540713310242
66,986908600,0.7190433,-0.17172301,-0.6539408,-0.16077766,9.752212524414062,-0.3357555568218231,0.6898060441017151,-0.9280248284339905,0.03650449588894844, -0.35838568210601807
67,986925267,0.71910566,-0.17145091,-0.6540115,-0.16050158,9.739218711853027,-0.3312879502773285,0.667765200138092,-0.8015238642692566,0.5144374966621399, -0.15062829852104187
68,986941934,0.7190511,-0.17171113,-0.6539379,-0.1607675,9.66610050201416,-0.3023720383644104,0.7089149951934814,-0.11336179822683334,0.5352221727371216, 0.12853093445301056
69,986958601,0.7191475,-0.17125626,-0.65409094,-0.16019778,9.635114669799805,-0.33190423250198364,0.7919153571128845,-0.002036209451034665,0.17869339883327484, 0.2930028736591339
70,986975268,0.7191364,-0.17116341,-0.65417165,-0.16001679,9.673887252807617,-0.35247814655303955,0.8417426347732544,-0.09009266644716263,-0.03097856044769287, 0.28245043754577637
71,986991935,0.7191184,-0.1710604,-0.6542528,-0.15987617,9.75831127166748,-0.3783341348171234,0.8434985280036926,-0.24892982840538025,-0.021028025075793266, 0.02704060636460781
72,987008602,0.7190764,-0.17111976,-0.6542687,-0.15993625,9.7903470993042,-0.41683200001716614,0.8368217945098877,-0.7199345231056213,0.18998858332633972, -0.07371333986520767
73,987025269,0.719063,-0.1709851,-0.6543551,-0.15978731,9.755875587463379,-0.3910331726074219,0.8002551198005676,-0.5017911791801453,-0.008810768835246563, -0.1253613531589508
74,987041936,0.7189763,-0.17092285,-0.65448743,-0.15970215,9.676916122436523,-0.3664039075374603,0.8645659685134888,-0.48697423934936523,-0.601642370223999, -0.19384971261024475
75,987058603,0.7188982,-0.17043917,-0.6548439,-0.15910818,9.652677536010742,-0.32418447732925415,0.8977482318878174,-0.6783267259597778,-1.6443737745285034, -0.23970927298069
76,987075270,0.71861804,-0.17048481,-0.6551492,-0.15906827,9.676924705505371,-0.3465920388698578,0.8468927145004272,-1.0452669858932495,-2.433885097503662, -0.32520443201065063
77,987091937,0.7183381,-0.17033766,-0.6555535,-0.15882508,9.707976341247559,-0.37096866965293884,0.8331615328788757,-0.9550849199295044,-2.8924553394317627, -0.4615408480167389
78,987108604,0.7179993,-0.17042576,-0.65590626,-0.15880568,9.714335441589355,-0.34720250964164734,0.7157886028289795,-0.9342746138572693,-2.9930877685546875, -0.31955692172050476
79,987125271,0.71774274,-0.17025775,-0.65630317,-0.15850544,9.734718322753906,-0.3250102996826172,0.7630961537361145,-0.955174446105957,-2.79132342338562, -0.26849794387817383
80,987141938,0.7175105,-0.17008679,-0.65668124,-0.15817438,9.713664054870605,-0.3158344328403473,0.6764450073242188,-0.7281306982040405,-2.628247022628784, -0.07095998525619507
81,987158605,0.71720785,-0.1701909,-0.6569988,-0.15811515,9.647624015808105,-0.3340018689632416,0.6406643390655518,-0.43560802936553955,-2.73396372795105, 0.06967294961214066
82,987175272,0.7169211,-0.17019306,-0.6573579,-0.1579221,9.651403427124023,-0.31953251361846924,0.6822929978370667,-0.6818484663963318,-2.8572118282318115, 0.12767291069030762
83,987191939,0.716658,-0.17022036,-0.65767336,-0.15777278,9.730110168457031,-0.3326113820075989,0.663670003414154,-1.1632519960403442,-2.505242347717285, 0.09513197094202042
84,987208606,0.71641105,-0.17042235,-0.65787166,-0.15784949,9.791300773620605,-0.3739355206489563,0.6149689555168152,-1.3928314447402954,-1.8422960042953491, 0.06455041468143463
85,987225273,0.7162495,-0.17059243,-0.65798575,-0.15792349,9.74256420135498,-0.3695388436317444,0.5398876070976257,-1.3746978044509888,-0.997153639793396, 0.10957753658294678
86,987241940,0.7161758,-0.17077707,-0.65799725,-0.15800948,9.699302673339844,-0.33454737067222595,0.5381782650947571,-1.230523943901062,-0.09533046931028366, 0.35306471586227417
87,987258607,0.71619576,-0.170903,-0.6579402,-0.15802069,9.733938217163086,-0.3081165850162506,0.5479050278663635,-1.3790390491485596,0.6820213198661804, 0.5800700187683105
88,987275274,0.7163151,-0.17097907,-0.6577993,-0.15798435,9.767847061157227,-0.3440544009208679,0.5568153262138367,-1.453700065612793,1.5756356716156006, 0.7535449266433716
89,987291941,0.7165311,-0.17099804,-0.65757555,-0.15791582,9.770931243896484,-0.3784544765949249,0.5744249224662781,-1.1628036499023438,2.461207389831543, 0.8451870679855347
90,987308608,0.71688277,-0.17094177,-0.6572234,-0.15784706,9.781761169433594,-0.405489981174469,0.5911022424697876,-1.2543178796768188,3.8155431747436523, 0.7633032202720642
91,987325275,0.7173453,-0.17097244,-0.65668887,-0.15793733,9.785773277282715,-0.3933775722980499,0.5214539766311646,-0.9667642116546631,5.259997367858887, 0.820534884929657
92,987341942,0.71802044,-0.1706898,-0.6560748,-0.15772705,9.810957908630371,-0.3937816321849823,0.5866799354553223,-0.7682274580001831,6.721829891204834, 0.9813060164451599
93,987358609,0.7188057,-0.17048001,-0.65530074,-0.15759483,9.790823936462402,-0.37120774388313293,0.5609209537506104,-0.02045174315571785,7.974123954772949, 1.3478748798370361
94,987375276,0.7197422,-0.1701346,-0.6544221,-0.15734516,9.72718620300293,-0.3767787218093872,0.610857367515564,1.297469139099121,9.194775581359863, 1.605372428894043
95,987391943,0.7208108,-0.16958086,-0.6534975,-0.15689246,9.742294311523438,-0.3823785185813904,0.7356546521186829,1.9635279178619385,10.069565773010254, 1.7460120916366577
96,987408610,0.72195005,-0.16904397,-0.6524815,-0.15646203,9.716687202453613,-0.382465124130249,0.7569305300712585,1.8270763158798218,10.848461151123047, 1.8957053422927856
97,987425277,0.7230618,-0.16872619,-0.65138197,-0.15625167,9.688626289367676,-0.45129096508026123,0.7675565481185913,1.7266871929168701,11.0796537399292, 2.0414929389953613
98,987441944,0.72416776,-0.16845006,-0.65025383,-0.1561273,9.659491539001465,-0.4021453559398651,0.8462129235267639,1.6921615600585938,11.230130195617676, 1.8788268566131592
99,987458611,0.7255086,-0.16731776,-0.6493079,-0.1550535,9.68377685546875,-0.3631040155887604,0.8948358297348022,1.2922316789627075,11.58271312713623, 1.8844614028930664
100,987475278,0.72680956,-0.16643795,-0.64827555,-0.15422383,9.733112335205078,-0.3924708366394043,0.9479175209999084,1.241940975189209,11.748350143432617, 2.0744054317474365
101,987491945,0.7283248,-0.16476332,-0.64740914,-0.1525041,9.731554985046387,-0.4193481504917145,1.0192757844924927,1.7429388761520386,12.033000946044922, 2.1594529151916504
102,987508612,0.7295482,-0.16447581,-0.6461375,-0.15235947,9.7403564453125,-0.4502016305923462,1.020363450050354,1.664448618888855,12.467429161071777, 2.156891345977783
103,987525279,0.73091596,-0.16372953,-0.6449345,-0.15170386,9.767509460449219,-0.44934988021850586,1.0492470264434814,2.096035957336426,12.856424331665039, 2.2566401958465576
104,987541946,0.7323293,-0.16298723,-0.6436643,-0.15108016,9.739575386047363,-0.4563674032688141,1.0453124046325684,2.918447256088257,13.38370132446289, 2.337653636932373
105,987558613,0.73375833,-0.16231687,-0.64232695,-0.15056056,9.67811107635498,-0.47434738278388977,1.1106328964233398,3.691004753112793,13.763617515563965, 2.4102017879486084
106,987575280,0.7351999,-0.161599,-0.6409897,-0.14999755,9.664758682250977,-0.4563044607639313,1.2477810382843018,3.856718063354492,13.832191467285156, 2.3893399238586426
107,987591947,0.7367019,-0.16055104,-0.6397386,-0.14909181,9.664335250854492,-0.46094319224357605,1.2558395862579346,3.1039605140686035,13.803584098815918, 2.0999162197113037
108,987608614,0.738125,-0.15969059,-0.6384639,-0.1484401,9.643596649169922,-0.4883178472518921,1.3846112489700317,2.319430112838745,13.597426414489746, 1.7477798461914062
109,987625281,0.7395155,-0.15892135,-0.6371655,-0.14792255,9.626240730285645,-0.41789141297340393,1.3807651996612549,1.461173176765442,13.606118202209473, 1.4793968200683594
110,987641948,0.74087083,-0.15823594,-0.6358657,-0.14746808,9.618498802185059,-0.4232756495475769,1.3903300762176514,1.197682499885559,13.413142204284668, 1.5505361557006836
111,987658615,0.74217874,-0.1575898,-0.6345965,-0.14704925,9.591300964355469,-0.44915682077407837,1.4245160818099976,1.5928610563278198,13.006014823913574, 1.562855839729309
112,987675282,0.74342924,-0.15695032,-0.63339216,-0.1466091,9.599740028381348,-0.44186580181121826,1.4789866209030151,1.907384991645813,12.377708435058594, 1.6022223234176636
113,987691949,0.74463123,-0.15630707,-0.6322261,-0.14622931,9.66907787322998,-0.47529351711273193,1.7613825798034668,1.8629213571548462,12.022049903869629, 1.2133703231811523
114,987708616,0.74579036,-0.15579323,-0.6310366,-0.14600752,9.646270751953125,-0.44888272881507874,1.6248213052749634,0.6401192545890808,11.961820602416992, 0.9726618528366089
115,987725283,0.74685365,-0.15530333,-0.62995124,-0.14578134,9.587583541870117,-0.5523541569709778,1.554268717765808,0.5142838954925537,10.972579956054688, 0.883375883102417
116,987741950,0.7478474,-0.15477172,-0.6289627,-0.14552046,9.538344383239746,-0.4925921857357025,1.5844415426254272,0.838976263999939,10.176613807678223, 0.6861580014228821
117,987758617,0.7487143,-0.15442084,-0.62802786,-0.14547206,9.553709030151367,-0.46601608395576477,1.7699350118637085,0.7280988693237305,9.302669525146484, 0.48440679907798767
118,987775284,0.74950373,-0.15411706,-0.6271465,-0.14553137,9.569928169250488,-0.43314215540885925,1.7970675230026245,-0.03660055622458458,8.745387077331543, -0.004917639307677746
119,987791951,0.75017536,-0.15393099,-0.6263613,-0.1456496,9.51347827911377,-0.4567989408969879,1.7107410430908203,-0.9282940030097961,7.66912841796875, -0.01824904978275299
120,987808618,0.7507377,-0.15371281,-0.62572473,-0.14571881,9.522299766540527,-0.47585242986679077,1.7596287727355957,-0.5158782005310059,6.403271198272705, -0.1690182238817215
121,987825285,0.75120187,-0.15349261,-0.6252147,-0.14574827,9.51832389831543,-0.40367749333381653,1.7814478874206543,-0.3009236454963684,5.275787353515625, -0.20321117341518402
122,987841952,0.7515605,-0.15328564,-0.6248285,-0.14577305,9.524343490600586,-0.4217176139354706,1.786470890045166,-0.33917614817619324,4.153797149658203, -0.3542620539665222
123,987858619,0.75180376,-0.15308014,-0.62459135,-0.145751,9.501805305480957,-0.4900631904602051,1.758133053779602,-0.12458016723394394,2.8274049758911133, -0.376493901014328
124,987875286,0.7519115,-0.15285887,-0.62452644,-0.14570573,9.49890422821045,-0.47973209619522095,1.802282452583313,0.0856296643614769,1.338141918182373, -0.6430708169937134
125,987891953,0.7519139,-0.15267916,-0.6245709,-0.14569111,9.54495906829834,-0.4715966284275055,1.9224121570587158,-0.2620563209056854,0.3003408908843994, -0.8448092341423035
126,987908620,0.7518413,-0.15256701,-0.62466794,-0.14576706,9.601116180419922,-0.4443974196910858,1.8239656686782837,-1.0260063409805298,-0.2836734652519226, -1.1537113189697266
127,987925287,0.75171053,-0.15243384,-0.62484574,-0.14581968,9.597025871276855,-0.48589643836021423,1.7796707153320312,-0.7976563572883606,-0.965022623538971, -1.2648831605911255
128,987941954,0.75150657,-0.15230082,-0.6251201,-0.14583294,9.578007698059082,-0.4550284743309021,1.7431325912475586,-0.606803297996521,-1.8266335725784302, -1.2368117570877075
129,987958621,0.7512499,-0.15217641,-0.6254701,-0.14578474,9.53331184387207,-0.4522637724876404,1.6842671632766724,-0.37011629343032837,-2.522171974182129, -1.0146726369857788
130,987975288,0.7509059,-0.152033,-0.6259439,-0.14567363,9.483970642089844,-0.4258175492286682,1.7180196046829224,0.03390481323003769,-3.586482524871826, -0.9883685111999512
131,987991955,0.7504948,-0.15192689,-0.626483,-0.14558521,9.482207298278809,-0.4198026657104492,1.670747995376587,-0.27095675468444824,-4.231179714202881, -1.0807535648345947
132,988008622,0.75001097,-0.15181956,-0.62711334,-0.14547676,9.526172637939453,-0.42411524057388306,1.5697311162948608,-0.15458546578884125,-5.038095474243164, -1.147692322731018
133,988025289,0.74946076,-0.15171883,-0.627835,-0.14530425,9.548922538757324,-0.450160950422287,1.5075678825378418,0.11070450395345688,-5.866089820861816, -0.9494243860244751
134,988041956,0.74880207,-0.15156387,-0.6287325,-0.14498039,9.511412620544434,-0.4292394816875458,1.5977041721343994,1.113749384880066,-7.3387956619262695, -0.6949751973152161
135,988058623,0.7480408,-0.1514161,-0.6297491,-0.14465259,9.469003677368164,-0.35127031803131104,1.7183369398117065,1.1316652297973633,-8.408676147460938, -0.8657093048095703
136,988075290,0.7471866,-0.15110087,-0.6309497,-0.1441654,9.661641120910645,-0.5036060810089111,1.7261404991149902,1.149645447731018,-9.695906639099121, -1.3125486373901367
137,988091957,0.74635136,-0.1507185,-0.6320989,-0.14385742,9.572234153747559,-0.45242786407470703,1.7753658294677734,2.1732702255249023,-9.174446105957031, -2.215576171875
138,988108624,0.7455238,-0.15011632,-0.63328844,-0.14354603,9.518621444702148,-0.21434937417507172,1.9146232604980469,1.716774821281433,-9.08013916015625, -3.4471242427825928
139,988125291,0.7443968,-0.14977928,-0.63471246,-0.14345661,9.480677604675293,-0.40664932131767273,1.8118937015533447,-0.9478625059127808,-11.639031410217285, -3.9893851280212402
140,988141958,0.7428722,-0.14957562,-0.636597,-0.14322133,9.52022933959961,-0.5376495718955994,1.7578275203704834,-1.0196040868759155,-16.03495979309082, -3.530163526535034
141,988158625,0.74117684,-0.14936644,-0.6386826,-0.14293817,9.65219783782959,-0.43798336386680603,1.6090214252471924,-0.9284614324569702,-17.870115280151367, -3.7081856727600098
142,988175292,0.73949087,-0.14937171,-0.6406156,-0.14301434,9.698004722595215,-0.2885982096195221,1.4519858360290527,-2.7220566272735596,-16.948646545410156, -4.281295299530029
143,988191959,0.73798907,-0.14918186,-0.6423673,-0.1431138,9.690414428710938,-0.31302762031555176,1.3847295045852661,-4.062024116516113,-14.925186157226562, -5.180826663970947
144,988208626,0.7365593,-0.14895022,-0.64400375,-0.14336514,9.666272163391113,-0.3933667838573456,1.3217990398406982,-3.9681406021118164,-13.856123924255371, -5.8520073890686035
145,988225293,0.7354548,-0.14874434,-0.6451424,-0.14412786,9.752710342407227,-0.24220505356788635,1.4794553518295288,-3.651642322540283,-9.502800941467285, -7.126134395599365
146,988241960,0.73434734,-0.14823848,-0.64639276,-0.14469306,9.448328018188477,-0.37127289175987244,1.0616199970245361,-5.141470909118652,-9.873382568359375, -8.062601089477539
147,988258627,0.7326943,-0.14811026,-0.64817953,-0.14521097,9.592859268188477,-0.40290412306785583,1.2589532136917114,-3.293412208557129,-15.537562370300293, -6.797950267791748
148,988275294,0.7309185,-0.14763881,-0.6503527,-0.14492211,9.689953804016113,-0.2484453320503235,1.4157403707504272,-4.1128926277160645,-18.335681915283203, -5.517392635345459
149,988291961,0.72910583,-0.14781411,-0.65226233,-0.14529313,9.793843269348145,-0.2965156137943268,1.283830165863037,-5.211062908172607,-17.321645736694336, -5.083486080169678
150,988308628,0.72728086,-0.14831904,-0.65404403,-0.14591275,9.913412094116211,-0.24168112874031067,0.4558130204677582,-4.883847713470459,-16.908449172973633, -4.394209384918213
151,988325295,0.7257273,-0.1485549,-0.6556976,-0.14598666,9.848264694213867,-0.25396671891212463,0.5019730925559998,-4.968227386474609,-15.191826820373535, -2.8815720081329346
152,988341962,0.72445095,-0.14880542,-0.6570435,-0.14602,9.815011978149414,-0.20141848921775818,0.39814430475234985,-2.9610602855682373,-12.478618621826172, -1.832282543182373
153,988358629,0.72333163,-0.14956422,-0.6580077,-0.14645176,9.832527160644531,-0.16931121051311493,0.5107532143592834,-1.372917890548706,-10.082634925842285, -0.4090605676174164
154,988375296,0.72262824,-0.14958277,-0.65886295,-0.14605844,9.818989753723145,-0.1648433804512024,0.47972312569618225,-1.6196961402893066,-7.550931930541992, 0.15568041801452637
155,988391963,0.7220173,-0.15005857,-0.6594108,-0.14612022,9.805088996887207,-0.22933687269687653,0.5761066675186157,-1.8104594945907593,-5.674878120422363, 0.7605499029159546
156,988408630,0.72149706,-0.15070994,-0.65979004,-0.14630692,9.751644134521484,-0.2083505392074585,0.6998286247253418,-2.2280232906341553,-4.488511085510254, 1.2925386428833008
157,988425297,0.72107303,-0.15124567,-0.66012615,-0.14632827,9.748395919799805,-0.26340553164482117,0.9192710518836975,-3.116925001144409,-3.834157943725586, 1.540136694908142
158,988441964,0.72065943,-0.15191975,-0.6603969,-0.14644615,9.805094718933105,-0.2737603783607483,0.7303702235221863,-4.117114067077637,-3.5149974822998047, 1.7819589376449585
159,988458631,0.72056735,-0.15240651,-0.6603329,-0.14668158,9.85962963104248,-0.29329782724380493,0.7859633564949036,-2.207084894180298,-0.12214695662260056, 1.144881248474121
160,988475298,0.7206658,-0.15265286,-0.6601421,-0.14680095,9.755465507507324,-0.2994745671749115,0.624945878982544,-0.7920214533805847,1.5014739036560059, 0.9213719367980957
161,988491965,0.7208341,-0.15271506,-0.6599415,-0.14681186,9.713598251342773,-0.22647935152053833,0.9698712229728699,0.3328947126865387,1.9578285217285156, 0.6745169162750244
162,988508632,0.72100806,-0.1527164,-0.6597292,-0.14691001,9.65495491027832,-0.17621318995952606,0.8208001852035522,0.3421536982059479,2.18051815032959, -0.004008387681096792
163,988525299,0.72106946,-0.15281759,-0.65963084,-0.14694533,9.651317596435547,-0.2567610740661621,0.7862185835838318,0.1657973974943161,0.9347674250602722, 0.5357599854469299
164,988541966,0.7209623,-0.15296765,-0.6597359,-0.14684328,9.626362800598145,-0.29311540722846985,0.9684067368507385,0.2545197904109955,-1.023790717124939, 1.0282281637191772
165,988558633,0.720711,-0.15313941,-0.66001475,-0.14664447,9.680720329284668,-0.2694668769836426,1.0653544664382935,0.28949394822120667,-2.6648223400115967, 1.2478443384170532
166,988575300,0.7204173,-0.15325272,-0.66034204,-0.14649631,9.669713020324707,-0.25570574402809143,0.9898609519004822,0.6511197090148926,-3.0093514919281006, 0.6599048972129822
167,988591967,0.72005737,-0.15330519,-0.6607677,-0.1462917,9.677331924438477,-0.29186004400253296,0.8238009214401245,0.47117772698402405,-3.7879910469055176, 0.43045350909233093
168,988608634,0.7196113,-0.15350184,-0.6612183,-0.14624415,9.717507362365723,-0.27301767468452454,0.9535226225852966,0.15168482065200806,-4.317558765411377, 0.2837311029434204
169,988625301,0.71915436,-0.1537731,-0.6616607,-0.14620535,9.759235382080078,-0.25084924697875977,0.6465021967887878,-0.9244391918182373,-4.385176658630371, 0.5233123302459717
170,988641968,0.7186837,-0.15419304,-0.66207546,-0.14620014,9.730772972106934,-0.2421576827764511,0.6362210512161255,-1.7060234546661377,-4.423031806945801, 1.0617552995681763
171,988658635,0.718185,-0.15473716,-0.66249114,-0.14619312,9.686250686645508,-0.2233574241399765,0.6523734331130981,-2.3719663619995117,-4.6746506690979, 1.6007745265960693
172,988675302,0.7176581,-0.15541308,-0.6629015,-0.14620285,9.743946075439453,-0.269146591424942,0.7757351994514465,-3.042724847793579,-4.891386032104492, 2.10537052154541
173,988691969,0.71733314,-0.15588549,-0.66312754,-0.14627038,9.762758255004883,-0.27182939648628235,0.7001142501831055,-1.8474313020706177,-2.812018632888794, 1.3223516941070557
174,988708636,0.71712035,-0.15631147,-0.66324365,-0.14633204,9.744240760803223,-0.30529752373695374,0.5228522419929504,-0.9331346750259399,-1.7379882335662842, 1.4136865139007568
175,988725303,0.71700627,-0.15668023,-0.6632618,-0.146415,9.749063491821289,-0.2913038730621338,0.6598494648933411,-0.41265901923179626,-0.7249163389205933, 1.2745327949523926
176,988741970,0.71700394,-0.15693353,-0.66317976,-0.14652625,9.714932441711426,-0.25619110465049744,0.6832852363586426,-0.5118697285652161,0.4427987337112427, 0.7918485403060913
177,988758637,0.71705586,-0.1570055,-0.66313183,-0.1464121,9.698463439941406,-0.3345968425273895,0.6155304312705994,-0.9568265080451965,0.5366693139076233, 0.9225245118141174
178,988775304,0.71701247,-0.15727754,-0.6631158,-0.14640525,9.709407806396484,-0.3490935266017914,0.6998931765556335,-0.693732738494873,-0.19274836778640747, 1.298621416091919
179,988791971,0.7169238,-0.15761265,-0.6631337,-0.14639841,9.723240852355957,-0.27740368247032166,0.7528828978538513,-1.2405253648757935,-0.6243991255760193, 1.4853891134262085
180,988808638,0.71680033,-0.15799776,-0.6631854,-0.14635378,9.727381706237793,-0.34011706709861755,0.7493458986282349,-1.6097455024719238,-1.0359184741973877, 1.8100944757461548
181,988825305,0.7166714,-0.15837891,-0.6632396,-0.14632693,9.71684455871582,-0.32641005516052246,0.7186418771743774,-1.453712821006775,-1.0615310668945312, 1.7093337774276733
182,988841972,0.7165897,-0.15871681,-0.66323674,-0.14637375,9.730762481689453,-0.3682538568973541,0.8149144053459167,-1.228897213935852,-0.45667439699172974, 1.2820371389389038
183,988858639,0.7166424,-0.15886283,-0.66314185,-0.1463878,9.732985496520996,-0.33921995759010315,0.6189179420471191,-0.8258429765701294,0.7846129536628723, 0.7507785558700562
184,988875306,0.7167752,-0.15899692,-0.66295743,-0.14642748,9.70422077178955,-0.3325103223323822,0.5808254480361938,-0.6697975993156433,1.625874638557434, 0.7626244425773621
185,988891973,0.71687794,-0.15910695,-0.66282433,-0.14640738,9.706962585449219,-0.31745943427085876,0.7332528829574585,-0.4069729447364807,1.20539128780365, 0.8522945642471313
186,988908640,0.7170662,-0.15913624,-0.6625964,-0.1464853,9.717489242553711,-0.30281874537467957,0.7998685836791992,-0.07166433334350586,2.235316514968872, 0.21845713257789612
187,988925307,0.71722686,-0.15919484,-0.66238725,-0.14658102,9.706785202026367,-0.37949520349502563,0.6829386353492737,-0.16280709207057953,1.995478630065918, 0.2287277728319168
188,988941974,0.7173254,-0.15926795,-0.6622565,-0.14661036,9.68962287902832,-0.3927522897720337,0.6416618824005127,-0.4348140358924866,1.2567960023880005, 0.4355888068675995
189,988958641,0.7173436,-0.15935485,-0.66221845,-0.14659847,9.695935249328613,-0.36721211671829224,0.8437631726264954,-0.4797002673149109,0.3836590051651001, 0.5047686696052551
190,988975308,0.7172331,-0.15957738,-0.66226786,-0.14667372,9.695857048034668,-0.35871922969818115,0.8095405101776123,-1.2552143335342407,-0.6954488158226013, 0.48906806111335754
191,988991975,0.71710163,-0.15977181,-0.6623667,-0.14665912,9.73494815826416,-0.3648390471935272,0.8175234198570251,-1.6131261587142944,-1.0783072710037231, 0.661582350730896
192,989008642,0.7170097,-0.15996389,-0.66241336,-0.1466877,9.73669719696045,-0.34124889969825745,0.5745359659194946,-1.3907569646835327,-0.612399697303772, 0.5628582835197449
193,989025309,0.716918,-0.16015196,-0.6624665,-0.14669104,9.699494361877441,-0.3570062518119812,0.6762537360191345,-0.8259967565536499,-0.6763288974761963, 0.6904479265213013
194,989041976,0.7167639,-0.16030905,-0.6626121,-0.14661503,9.68209457397461,-0.3404815196990967,0.8053027391433716,-1.0841853618621826,-1.4422123432159424, 0.7167649269104004
195,989058643,0.71651053,-0.16061859,-0.66280574,-0.14663899,9.700692176818848,-0.34121936559677124,0.8834609985351562,-1.6679376363754272,-2.206777572631836, 0.8145414590835571
196,989075310,0.71616656,-0.16093491,-0.6631044,-0.14662236,9.731404304504395,-0.4163503646850586,0.6301901340484619,-1.7948484420776367,-3.1896135807037354, 0.8201634883880615
197,989091977,0.7157063,-0.16135119,-0.6635036,-0.14660728,9.674240112304688,-0.3914472460746765,0.6197634339332581,-1.3942275047302246,-4.345028877258301, 1.0908770561218262
198,989108644,0.7152353,-0.16171184,-0.66393805,-0.14654005,9.703253746032715,-0.3282981514930725,0.6538640260696411,-1.4162541627883911,-4.547214508056641, 1.0062652826309204
199,989125311,0.7150342,-0.16192164,-0.664084,-0.14662911,9.829113006591797,-0.27167820930480957,0.8432166576385498,-1.042833685874939,-1.5839020013809204, 0.16615596413612366
200,989141978,0.71504086,-0.16199301,-0.6640245,-0.146787,9.694070816040039,-0.3567509651184082,0.6300197243690491,-0.7997821569442749,0.5859865546226501, -0.3712560534477234
201,989158645,0.71501285,-0.1620823,-0.664007,-0.14690383,9.709379196166992,-0.366902619600296,0.6032997369766235,-0.8409672975540161,0.16403013467788696, -0.17538294196128845
202,989175312,0.71497047,-0.16213231,-0.66402656,-0.1469666,9.758450508117676,-0.38208556175231934,0.747649073600769,-0.6958586573600769,-0.09013108909130096, -0.1683010458946228
203,989191979,0.71500754,-0.1622167,-0.66391987,-0.14717549,9.752828598022461,-0.3315414786338806,0.6542845368385315,-0.6906464695930481,0.9828553795814514, -0.45517614483833313
204,989208646,0.7152095,-0.16211186,-0.66369826,-0.14730884,9.769268035888672,-0.34923481941223145,0.6605162620544434,-0.028084320947527885,2.4325594902038574, -0.689288854598999
205,989225313,0.7154666,-0.16205955,-0.66337395,-0.14757885,9.668599128723145,-0.348021000623703,0.5839177370071411,-0.03679264336824417,3.255354881286621, -0.8927690386772156
206,989241980,0.7156214,-0.16194598,-0.66322124,-0.14763941,9.68034839630127,-0.35184818506240845,0.6762614846229553,-0.2643614709377289,1.8337602615356445, -0.5349595546722412
207,989258647,0.7156857,-0.16185454,-0.6631754,-0.1476336,9.680181503295898,-0.3350270986557007,0.6972890496253967,-0.6537641286849976,0.8194334506988525, -0.3586290180683136
208,989275314,0.71559834,-0.1619419,-0.6632398,-0.14767207,9.70056438446045,-0.37685641646385193,0.8519765734672546,-0.648039698600769,-0.5904751420021057, 0.038387030363082886
209,989291981,0.7153925,-0.16214839,-0.663393,-0.14775431,9.721257209777832,-0.36423391103744507,0.657569169998169,-1.515452265739441,-1.6481645107269287, 0.14170867204666138
210,989308648,0.71508014,-0.16243982,-0.66364324,-0.14782277,9.703986167907715,-0.38751721382141113,0.6495511531829834,-1.6505464315414429,-2.7203118801116943, 0.3960171639919281
211,989325315,0.7147603,-0.16269362,-0.6639205,-0.1478458,9.735697746276855,-0.3451154828071594,0.7393993139266968,-1.7053446769714355,-2.8837337493896484, 0.3776272237300873
212,989341982,0.71452224,-0.16293101,-0.66409224,-0.1479622,9.740551948547363,-0.3041277527809143,0.766978919506073,-1.6473960876464844,-1.8901532888412476, 0.07311785966157913
213,989358649,0.71434987,-0.16314621,-0.6641834,-0.14814943,9.719381332397461,-0.3374881148338318,0.6437368392944336,-1.600102186203003,-1.1093499660491943, -0.20874349772930145
214,989375316,0.71414727,-0.16339098,-0.66430086,-0.14832936,9.710248947143555,-0.3629179894924164,0.6010269522666931,-1.3404148817062378,-1.4282281398773193, -0.06900060921907425
215,989391983,0.7139207,-0.16358791,-0.6644788,-0.14840534,9.707823753356934,-0.35496339201927185,0.6629387140274048,-1.3736090660095215,-1.8723397254943848, 0.08291471749544144
216,989408650,0.713661,-0.16383122,-0.6646768,-0.14850047,9.713296890258789,-0.3595360815525055,0.7648621201515198,-1.933694839477539,-2.141695499420166, 0.13104097545146942
217,989425317,0.7133429,-0.16409652,-0.6649355,-0.14857696,9.723259925842285,-0.41941317915916443,0.6613820791244507,-2.215498447418213,-2.7479476928710938, 0.17138096690177917
218,989441984,0.7129533,-0.16441531,-0.6652606,-0.14863974,9.70484447479248,-0.38956937193870544,0.5285981893539429,-2.152183771133423,-3.4824812412261963, 0.3544733226299286
219,989458651,0.7124621,-0.16486754,-0.6656569,-0.14871868,9.682210922241211,-0.3580250144004822,0.5050846934318542,-2.1860952377319336,-4.4377970695495605, 0.7396115064620972
220,989475318,0.71191216,-0.16528505,-0.6661586,-0.14864331,9.699002265930176,-0.3695244789123535,0.6082274317741394,-1.7406519651412964,-5.341054916381836, 1.1295393705368042
221,989491985,0.71131307,-0.16585818,-0.66663647,-0.14873008,9.723602294921875,-0.3406373858451843,0.8052867650985718,-1.8802286386489868,-5.480734348297119, 1.091632604598999
222,989508652,0.7107505,-0.16635098,-0.6671167,-0.14871629,9.77486515045166,-0.36193305253982544,0.5922460556030273,-2.34262752532959,-5.317863464355469, 1.1826602220535278
223,989525319,0.71018237,-0.16708663,-0.6674698,-0.14902191,9.76633358001709,-0.4159705638885498,0.5445067882537842,-1.591675877571106,-4.745150089263916, 1.0606284141540527
224,989541986,0.7097598,-0.1675726,-0.66776466,-0.14916793,9.728315353393555,-0.3750404417514801,0.5595840811729431,-1.8243924379348755,-3.632328748703003, 0.7859960794448853
225,989558653,0.70939696,-0.16796479,-0.6680291,-0.14926842,9.75471305847168,-0.35902824997901917,0.5007514357566833,-2.285959243774414,-3.122124671936035, 0.6148265600204468
226,989575320,0.7090698,-0.16842091,-0.6682183,-0.14946187,9.740217208862305,-0.380235880613327,0.47026327252388,-2.174467086791992,-2.5843985080718994, 0.622907280921936
227,989591987,0.7088568,-0.16869995,-0.66836274,-0.14951187,9.74197006225586,-0.3476257026195526,0.4121161699295044,-1.566293478012085,-1.7836172580718994, 0.624495267868042
228,989608654,0.7087035,-0.16904399,-0.66840655,-0.14965418,9.733372688293457,-0.3646508753299713,0.404465913772583,-1.0737099647521973,-1.025916576385498, 0.7183400988578796
229,989625321,0.70861536,-0.16924934,-0.6684406,-0.14968725,9.730895042419434,-0.38518133759498596,0.5484746694564819,-0.8046614527702332,-0.6198657751083374, 0.6435767412185669
230,989641988,0.70851016,-0.1695764,-0.66842204,-0.14989737,9.734444618225098,-0.38959822058677673,0.6930349469184875,-1.1937824487686157,-0.40815117955207825, 0.43880322575569153
231,989658655,0.7083879,-0.16982223,-0.66846097,-0.15002376,9.73224925994873,-0.3934377431869507,0.576854944229126,-1.5143893957138062,-0.7441514134407043, 0.3358401358127594
232,989675322,0.7082728,-0.16998406,-0.66852736,-0.15008779,9.722427368164062,-0.41995763778686523,0.4799703061580658,-1.0352013111114502,-0.8255997896194458, 0.20657284557819366
233,989691989,0.70813763,-0.17013873,-0.668618,-0.15014647,9.697068214416504,-0.4090555012226105,0.4388449788093567,-0.8891705274581909,-1.0379931926727295, 0.1590740829706192
234,989708656,0.70798,-0.17034228,-0.668704,-0.15027626,9.721325874328613,-0.365409791469574,0.5341914892196655,-1.0296945571899414,-1.1013588905334473, 0.041498977690935135
235,989725323,0.7077962,-0.17057219,-0.66881,-0.15040933,9.728936195373535,-0.3542912006378174,0.5710051655769348,-1.242113471031189,-1.3434244394302368, 0.09563141316175461
236,989741990,0.70763445,-0.17077504,-0.66891056,-0.15049301,9.747075080871582,-0.3669195771217346,0.5072434544563293,-1.4426223039627075,-1.2258493900299072, 0.21795766055583954
237,989758657,0.70746446,-0.17102407,-0.6689948,-0.15063494,9.723042488098145,-0.4240848422050476,0.4292336404323578,-1.0652705430984497,-1.2017861604690552, 0.19724981486797333
238,989775324,0.70735276,-0.17112638,-0.66908294,-0.1506516,9.721034049987793,-0.40223103761672974,0.4609329104423523,-0.768957257270813,-0.9024379253387451, 0.13832779228687286
239,989791991,0.7072324,-0.17126702,-0.66916084,-0.15071079,9.732926368713379,-0.3922150135040283,0.5103306174278259,-0.8230769038200378,-0.8966749310493469, 0.12450973689556122
240,989808658,0.7071014,-0.17142542,-0.66924506,-0.15077193,9.722070693969727,-0.40065139532089233,0.5381506681442261,-0.4236084222793579,-1.0152745246887207, 0.19981105625629425
241,989825325,0.706961,-0.1716416,-0.6693103,-0.15089497,9.743843078613281,-0.3860492706298828,0.550536572933197,-0.15505927801132202,-0.9926841259002686, 0.21712525188922882
242,989841992,0.70682615,-0.17174879,-0.6694302,-0.15087219,9.66486644744873,-0.39418917894363403,0.44410407543182373,0.19902987778186798,-1.2576603889465332, 0.32927045226097107
243,989858659,0.7066453,-0.1718503,-0.66960776,-0.15081628,9.661118507385254,-0.39384081959724426,0.4771919250488281,-0.03626758232712746,-1.7655730247497559, 0.3245833218097687
244,989875326,0.70639426,-0.17198236,-0.669845,-0.15078847,9.718363761901855,-0.3956231474876404,0.595380961894989,-0.24513916671276093,-2.3824164867401123, 0.19085943698883057
245,989891993,0.7060749,-0.17221127,-0.6700913,-0.15092812,9.81605052947998,-0.49443569779396057,0.5721994042396545,-0.8351276516914368,-2.679549217224121, -0.22751760482788086
246,989908660,0.7057775,-0.17238611,-0.6703204,-0.15110177,9.830370903015137,-0.5223626494407654,0.4371725618839264,-1.1030877828598022,-2.3886404037475586, -0.6197633147239685
247,989925327,0.705576,-0.1724505,-0.6704791,-0.15126562,9.832714080810547,-0.4873868227005005,0.33744192123413086,-1.293979287147522,-1.4680430889129639, -0.9443018436431885
248,989941994,0.7054992,-0.1725281,-0.6704837,-0.15151516,9.844611167907715,-0.4341862201690674,0.20434552431106567,-1.5021337270736694,-0.06372440606355667, -0.9732570648193359
249,989958661,0.705601,-0.17261246,-0.6702986,-0.15176369,9.8757905960083,-0.42688342928886414,0.29429736733436584,-0.7294368147850037,1.6501044034957886, -0.4964381158351898
250,989975328,0.70586216,-0.17270151,-0.6699327,-0.15206282,9.769113540649414,-0.301535040140152,0.45530053973197937,-1.3161214590072632,3.3354458808898926, -0.34939563274383545
251,989991995,0.70616895,-0.17292123,-0.6694629,-0.15245695,9.705772399902344,-0.2843301296234131,0.48089325428009033,-2.4902334213256836,4.027745246887207, -0.033859994262456894
252,990008662,0.7065117,-0.1731158,-0.6689818,-0.15275975,9.670455932617188,-0.3727526068687439,0.3477253019809723,-2.281848669052124,4.178668022155762, 0.33603227138519287
253,990025329,0.7068449,-0.17325968,-0.66855234,-0.15293595,9.585740089416504,-0.29600220918655396,0.45764365792274475,-1.624690294265747,3.799957513809204, 0.6420398950576782
254,990041996,0.707088,-0.17349517,-0.6681768,-0.15318589,9.616888999938965,-0.3080146908760071,0.5582859516143799,-1.9757381677627563,3.0937774181365967, 0.5693255066871643
255,990058663,0.7072245,-0.17371282,-0.66794443,-0.15332237,9.616433143615723,-0.421878844499588,0.61052405834198,-1.8112406730651855,1.8071743249893188, 0.737933874130249
256,990075330,0.70728445,-0.17368753,-0.6679187,-0.15318659,9.667939186096191,-0.4436054527759552,0.659057080745697,-1.182794451713562,0.4571802616119385, 0.5275255441665649
257,990091997,0.70717245,-0.17393242,-0.667949,-0.15329377,9.71042537689209,-0.4372822940349579,0.6678881645202637,-1.1240389347076416,-0.7175909876823425, 0.465773344039917
258,990108664,0.7069745,-0.1741188,-0.6681018,-0.15332945,9.737159729003906,-0.4082886874675751,0.6440184116363525,-1.2947860956192017,-1.7059211730957031, 0.261973112821579
259,990125331,0.7066948,-0.17437588,-0.66831475,-0.1533982,9.756697654724121,-0.38205191493034363,0.673517107963562,-1.372584581375122,-2.4347176551818848, 0.2873680889606476
260,990141998,0.7063607,-0.17465296,-0.6685822,-0.15345687,9.70925235748291,-0.37322279810905457,0.4532932639122009,-1.6392511129379272,-2.9823811054229736, 0.2948213517665863
261,990158665,0.7060103,-0.17487559,-0.66889805,-0.1534393,9.730321884155273,-0.4737679362297058,0.4904802143573761,-0.8978403210639954,-3.3294332027435303, 0.3466359078884125
262,990175332,0.70569414,-0.17504084,-0.66918606,-0.15344995,9.743847846984863,-0.45552703738212585,0.45561105012893677,-1.2884083986282349,-2.9198217391967773, -0.013241763226687908
263,990191999,0.70539606,-0.17520617,-0.6694473,-0.15349185,9.755345344543457,-0.43001246452331543,0.40953370928764343,-1.5145046710968018,-2.665334701538086, -0.1179080605506897
264,990208666,0.70515513,-0.17538695,-0.669633,-0.15358141,9.755184173583984,-0.42268145084381104,0.41664111614227295,-1.0958266258239746,-2.0251450538635254, -0.09803261607885361
265,990225333,0.7050089,-0.17553255,-0.6697315,-0.15365745,9.725922584533691,-0.3741823732852936,0.2683488428592682,-0.7383501529693604,-1.1484861373901367, 0.016372917219996452
266,990242000,0.704967,-0.17558587,-0.66976243,-0.15365352,9.711319923400879,-0.40075695514678955,0.24170154333114624,-0.4803789556026459,-0.3073267340660095, 0.14525602757930756
267,990258667,0.70498943,-0.17576048,-0.6696575,-0.15380907,9.736310005187988,-0.3977600932121277,0.32151535153388977,-0.3738301694393158,0.6548463106155396, 0.2231186181306839
268,990275334,0.705117,-0.17581387,-0.6694871,-0.15390453,9.776609420776367,-0.40107017755508423,0.5827220678329468,-0.0711904987692833,1.5420701503753662, 0.1211288571357727
269,990292001,0.7053223,-0.17581488,-0.6692436,-0.15402158,9.859159469604492,-0.41627418994903564,0.4297974109649658,-0.7302309274673462,2.36655592918396, -0.08319005370140076
270,990308668,0.7055776,-0.17564404,-0.6690377,-0.15394123,9.798087120056152,-0.50937819480896,0.348071813583374,0.07172196358442307,2.4027721881866455, 0.04453407973051071
271,990325335,0.70581657,-0.17559306,-0.6687836,-0.15400891,9.724613189697266,-0.4220908284187317,0.4663373827934265,0.12772412598133087,2.5571911334991455, -0.023269137367606163
272,990342002,0.7060123,-0.17561331,-0.66854936,-0.15410526,9.721683502197266,-0.3754173815250397,0.5326310396194458,-0.3452720046043396,2.2206404209136963, 0.11161375045776367
273,990358669,0.7061948,-0.17567489,-0.6683186,-0.15420002,9.701180458068848,-0.37019428610801697,0.4285961091518402,-0.5359841585159302,2.0915393829345703, 0.28018373250961304
274,990375336,0.7064002,-0.17564106,-0.6681205,-0.15415621,9.674590110778809,-0.3891839385032654,0.3649819791316986,-0.1641133427619934,2.008746385574341, 0.4699609875679016
275,990392003,0.7065983,-0.17571588,-0.6678799,-0.1542059,9.688946723937988,-0.4261355400085449,0.5000954866409302,-0.07023002952337265,2.1351964473724365, 0.6165040731430054
276,990408670,0.7068609,-0.17559516,-0.66766953,-0.15405072,9.724808692932129,-0.4207985997200012,0.48936548829078674,-0.08083367347717285,2.328981876373291, 0.6411691308021545
277,990425337,0.70709556,-0.17554857,-0.6674612,-0.15392949,9.725168228149414,-0.43918031454086304,0.5364851355552673,0.19760838150978088,2.118227958679199, 0.8301652073860168
278,990442004,0.7073466,-0.17542134,-0.6672699,-0.1537508,9.674627304077148,-0.399722695350647,0.3978394567966461,-0.05267252027988434,2.16499662399292, 0.6863499283790588
279,990458671,0.70760006,-0.17527686,-0.66708905,-0.15353373,9.663990020751953,-0.39712265133857727,0.4295141398906708,-0.3185707926750183,2.1262319087982178, 0.7630727291107178
280,990475338,0.70784974,-0.17513636,-0.66691643,-0.15329258,9.70950984954834,-0.4041188061237335,0.5003783702850342,-0.4142342209815979,2.045423984527588, 0.8672012090682983
281,990492005,0.7080504,-0.17514992,-0.666729,-0.15316637,9.706759452819824,-0.4353220760822296,0.4927250146865845,0.021431423723697662,1.7886691093444824, 1.0689139366149902
282,990508672,0.7081981,-0.17534208,-0.6665087,-0.15322097,9.718255996704102,-0.41212737560272217,0.5524713397026062,0.43233591318130493,1.641075849533081, 1.1314470767974854
283,990525339,0.7084186,-0.17533538,-0.66631794,-0.15303953,9.753070831298828,-0.4376377463340759,0.5288538336753845,0.4114872217178345,1.8496532440185547, 1.2809230089187622
284,990542006,0.7087399,-0.17508279,-0.6661422,-0.15260544,9.789759635925293,-0.5063510537147522,0.5166836977005005,0.4140741229057312,2.3064682483673096, 1.3424575328826904
285,990558673,0.7091049,-0.17493689,-0.66586345,-0.1522937,9.814558029174805,-0.4666909873485565,0.4636498987674713,1.3218010663986206,2.9485020637512207, 1.5012948513031006
286,990575340,0.7094702,-0.17487133,-0.6655485,-0.15204422,9.765558242797852,-0.509380042552948,0.5549657344818115,2.7707881927490234,3.0223047733306885, 1.742246150970459
287,990592007,0.70987093,-0.17449766,-0.66535246,-0.15145971,9.699867248535156,-0.5182535648345947,0.6082773208618164,3.9569129943847656,2.614269256591797, 1.736393928527832
288,990608674,0.71021354,-0.17389467,-0.66532975,-0.15064488,9.64569091796875,-0.47893521189689636,0.7458009123802185,4.613622665405273,1.5408025979995728, 1.4505817890167236
289,990625341,0.7103002,-0.17353371,-0.6654531,-0.15010643,9.594171524047852,-0.47967296838760376,0.7866539359092712,3.0362765789031982,-0.3185579180717468, 0.8259774446487427
290,990642008,0.71009195,-0.1731348,-0.6659162,-0.1494972,9.555553436279297,-0.5233528017997742,0.822381854057312,2.219334363937378,-3.3181896209716797, 0.20750771462917328
291,990658675,0.7094185,-0.1728855,-0.66680413,-0.14902486,9.500406265258789,-0.6125631332397461,0.9349010586738586,2.2311675548553467,-7.594204902648926, -0.6768797636032104
292,990675342,0.7082335,-0.17246397,-0.6683006,-0.14844473,9.506972312927246,-0.6270388960838318,1.500257968902588,3.926295042037964,-12.887665748596191, -2.1671302318573
293,990692009,0.7064985,-0.17223358,-0.6702012,-0.14841178,9.741512298583984,-0.5707862377166748,1.5768139362335205,0.7477700114250183,-16.992815017700195, -4.992753505706787
294,990708676,0.7039707,-0.17202921,-0.6728798,-0.14854038,9.73020076751709,-0.8522872924804688,1.1459726095199585,-0.9906758069992065,-24.265554428100586, -7.424716472625732
295,990725343,0.7006138,-0.17168958,-0.6763724,-0.14894128,9.74464225769043,-0.884113609790802,1.4298509359359741,0.08788391947746277,-31.684762954711914, -11.13554859161377
296,990742010,0.69623387,-0.17139731,-0.6807591,-0.1498297,9.75613784790039,-0.7573789358139038,1.45521080493927,-1.5390901565551758,-40.29957580566406, -15.380797386169434
297,990758677,0.69064724,-0.1714418,-0.6860469,-0.15150554,9.732563972473145,-0.8350740671157837,1.1060301065444946,-2.3736937046051025,-49.870792388916016, -19.874670028686523
298,990775344,0.68391806,-0.17118724,-0.69242436,-0.15329593,9.657867431640625,-0.9872996211051941,0.8868863582611084,0.9013689756393433,-60.04092025756836, -24.464637756347656
299,990792011,0.67608047,-0.17085743,-0.6997082,-0.15534331,9.629161834716797,-0.5764723420143127,0.7626256346702576,3.310974359512329,-69.21611022949219, -28.57335090637207
300,990808678,0.6675403,-0.16950068,-0.7078993,-0.15664706,9.617156982421875,-0.2279892861843109,0.5595230460166931,0.45082637667655945,-76.38172912597656, -31.645742416381836
301,990825345,0.6583741,-0.16817933,-0.7163926,-0.15824424,9.31200122833252,0.09648825228214264,-0.05345115810632706,-3.890123128890991,-80.5163345336914, -33.73196029663086
302,990842012,0.64865613,-0.16704549,-0.7250606,-0.16008833,8.617754936218262,0.15881402790546417,-0.9058216214179993,-6.559310436248779,-83.95902252197266, -34.71348571777344
303,990858679,0.6387754,-0.16564614,-0.733791,-0.16148828,7.754911422729492,-0.5751192569732666,-2.0424695014953613,-3.285707712173462,-85.25898742675781, -34.30274200439453
304,990875346,0.62866473,-0.16347837,-0.7428525,-0.16194327,7.64967679977417,0.08247281610965729,-2.866361379623413,4.958884239196777,-88.0550765991211, -34.68435287475586
305,990892013,0.61786836,-0.16104078,-0.75229573,-0.16234519,7.9604716300964355,0.801042377948761,-0.980505645275116,6.047789096832275,-92.90557861328125, -37.02814483642578
306,990908680,0.60681504,-0.15898418,-0.76141405,-0.16354847,9.843192100524902,0.884782075881958,-0.06278731673955917,-0.3598198890686035,-92.40125274658203, -38.3707275390625
307,990925347,0.59486735,-0.15692228,-0.77101934,-0.16443126,10.295478820800781,0.6825788021087646,-1.3405572175979614,0.9164655208587646,-99.51799011230469, -38.58563232421875
308,990942014,0.58231205,-0.15422611,-0.78123885,-0.16368575,8.668513298034668,0.2583388090133667,-1.802966594696045,12.185132026672363,-106.32115173339844, -36.635047912597656
309,990958681,0.56930006,-0.15108848,-0.7917134,-0.16204849,7.65103006362915,1.7122172117233276,-2.2447733879089355,18.54416847229004,-110.25460815429688, -36.229217529296875
310,990975348,0.55602044,-0.14811824,-0.8018563,-0.1610249,8.75796127319336,2.1733155250549316,-0.3380156457424164,13.91097354888916,-109.9580307006836, -37.63701629638672
311,990992015,0.54279804,-0.14509946,-0.8115643,-0.16025029,11.255427360534668,1.318314552307129,-1.4972864389419556,12.324284553527832,-107.74679565429688, -38.307254791259766
312,991008682,0.5291192,-0.14168504,-0.82153577,-0.1582327,10.128779411315918,1.2980990409851074,-5.490274429321289,20.58612632751465,-112.15592956542969, -36.63619613647461
313,991025349,0.51560116,-0.13845572,-0.83117217,-0.15536511,9.282703399658203,1.2854175567626953,-4.834485054016113,24.50563621520996,-111.00931549072266, -31.990673065185547
314,991042016,0.50259316,-0.13589743,-0.8401321,-0.1520206,8.414741516113281,2.2111849784851074,-5.317434310913086,24.616432189941406,-106.84162902832031, -25.270652770996094
315,991058683,0.49065176,-0.1337201,-0.84819585,-0.14813404,6.222145080566406,2.2804439067840576,-6.172621726989746,26.502702713012695,-98.44627380371094, -19.21101951599121
316,991075350,0.47995922,-0.1315228,-0.8554184,-0.14352894,5.1614251136779785,1.714816927909851,-6.704652309417725,31.06313133239746,-88.87860107421875, -14.81747055053711
317,991092017,0.47004688,-0.12987855,-0.8618867,-0.1390645,7.705698013305664,1.4573577642440796,-5.936019420623779,28.373903274536133,-82.1111068725586, -10.550219535827637
318,991108684,0.46061727,-0.12973842,-0.86754227,-0.13553658,13.066946983337402,1.9987515211105347,-5.118753433227539,17.61948585510254,-77.18597412109375, -3.467331886291504
319,991125351,0.45175672,-0.13121201,-0.8724457,-0.13243017,13.915518760681152,1.4585102796554565,-5.956331729888916,9.81494140625,-72.61628723144531, 6.027352809906006
320,991142018,0.44401243,-0.13402289,-0.87646437,-0.12923351,11.038080215454102,0.5883520245552063,-6.7450270652771,6.406097888946533,-64.5512924194336, 16.129878997802734
321,991158685,0.4375677,-0.13801828,-0.87938106,-0.12718049,7.757542133331299,1.165186882019043,-7.392990589141846,-3.898221731185913,-53.372764587402344, 21.921979904174805
322,991175352,0.4328204,-0.14225757,-0.88112164,-0.12670498,5.49867582321167,0.13321265578269958,-8.064285278320312,-13.593027114868164,-38.238075256347656, 21.25251579284668
323,991192019,0.43012765,-0.14537814,-0.8819246,-0.12674655,3.5342347621917725,-0.9930948615074158,-8.486360549926758,-12.227311134338379,-21.419057846069336, 15.627490043640137
324,991208686,0.42940733,-0.14803974,-0.8816691,-0.12787932,5.155997276306152,-0.4582938849925995,-7.976768493652344,-16.47940444946289,-4.694239139556885, 12.35818099975586
325,991225353,0.43088165,-0.15096563,-0.8801461,-0.1299739,10.008312225341797,1.803819179534912,-7.401128768920898,-22.000375747680664,13.19766902923584, 14.313629150390625
326,991242020,0.43473986,-0.15383077,-0.877482,-0.13176839,13.400885581970215,2.5052871704101562,-7.149567604064941,-18.5391788482666,30.744409561157227, 18.163957595825195
327,991258687,0.4410122,-0.156929,-0.8736615,-0.13265428,14.300827026367188,1.2282285690307617,-8.04172420501709,-12.227019309997559,47.526336669921875, 25.71746826171875
328,991275354,0.45024368,-0.16046266,-0.8682005,-0.13326858,13.494022369384766,0.7739576101303101,-8.110655784606934,-10.222234725952148,69.53214263916016, 33.61461639404297
329,991292021,0.4638226,-0.16417433,-0.8600964,-0.13472123,12.389657974243164,0.7610248327255249,-8.967788696289062,-13.412300109863281,104.40046691894531, 38.964332580566406
330,991308688,0.48402134,-0.16568498,-0.84855205,-0.13502383,13.739325523376465,0.6828890442848206,-9.203922271728516,4.68569803237915,155.28976440429688, 39.6203498840332
331,991325355,0.5133052,-0.16544935,-0.8315616,-0.13285221,19.74291229248047,-0.5415670275688171,-8.895216941833496,30.224088668823242,225.2728729248047, 52.296878814697266
332,991342022,0.5545875,-0.16447358,-0.80565083,-0.12770334,30.556053161621094,-0.8095250129699707,-3.747840404510498,55.36052703857422,322.6885681152344, 79.65097045898438
333,991358689,0.6072051,-0.16296409,-0.76831067,-0.120180085,38.52250289916992,-2.5224368572235107,2.828514814376831,73.35209655761719,426.75872802734375, 108.61795806884766
334,991375356,0.65779537,-0.16179581,-0.72773284,-0.107388586,29.431671142578125,0.5461862087249756,-0.43664371967315674,94.81200408935547,422.98504638671875, 134.32374572753906
335,991392023,0.6969324,-0.15390918,-0.69372,-0.096694574,20.925111770629883,15.370748519897461,-22.683313369750977,106.78157806396484,343.0096435546875, 75.46726989746094
336,991408690,0.7214791,-0.14297158,-0.67105436,-0.093344234,9.11829948425293,3.312312126159668,2.589210271835327,78.46562957763672,229.3644256591797, 4.468426704406738
337,991425357,0.7347604,-0.1199031,-0.66296023,-0.07895697,0.6447464823722839,0.13190074265003204,-6.546870708465576,187.81935119628906,101.96524047851562, -18.192615509033203
338,991442024,0.73601705,-0.11759956,-0.66165686,-0.08160633,-1.3937013149261475,6.294621467590332,-4.735922813415527,-0.9814939498901367,15.8086519241333, -21.729368209838867
339,991458691,0.73024684,-0.12509331,-0.6650559,-0.09376675,-1.3014285564422607,-7.782691955566406,-2.8936972618103027,-96.8827896118164,-37.64143753051758, -32.8682975769043
340,991475358,0.72080886,-0.13696632,-0.67080486,-0.10814672,-0.025411013513803482,-3.505765676498413,-3.046170949935913,-130.62535095214844,-67.0646743774414, -28.593351364135742
341,991492025,0.7097669,-0.15645763,-0.6745101,-0.12957019,1.174351453781128,-3.1126835346221924,1.3458095788955688,-203.89752197265625,-63.302371978759766, -27.725629806518555
342,991508692,0.69969594,-0.17741485,-0.67557824,-0.15014578,0.5046743750572205,-6.649156093597412,0.42207199335098267,-208.4159698486328,-48.19740295410156, -13.165535926818848
343,991525359,0.6930078,-0.18834949,-0.6775547,-0.15869656,0.21305717527866364,-7.3328752517700195,-0.46760988235473633,-99.24302673339844,-41.18356704711914, 0.3353031277656555
344,991542026,0.689833,-0.18867205,-0.681354,-0.15585391,0.016838565468788147,-3.969655752182007,1.3143359422683716,10.946446418762207,-36.66335678100586, 6.459781169891357
345,991558693,0.6886808,-0.18507883,-0.68520063,-0.14820535,0.09448060393333435,-1.7154124975204468,2.840691328048706,54.705284118652344,-29.491233825683594, 12.908642768859863
346,991575360,0.68871355,-0.18171033,-0.6877613,-0.14014135,-0.10046093165874481,-1.1821346282958984,3.4552695751190186,55.79048156738281,-18.66134262084961, 18.734317779541016
347,991592027,0.68974906,-0.17906693,-0.6886971,-0.13370785,-0.125611811876297,-0.18458665907382965,3.6978445053100586,44.32658004760742,-4.985731601715088, 17.410648345947266
348,991608694,0.69095963,-0.17837489,-0.6881858,-0.13098757,0.07979962974786758,1.2711483240127563,3.477961301803589,16.367633819580078,5.381407737731934, 10.983514785766602
349,991625361,0.6915177,-0.18026945,-0.68695515,-0.13190457,0.32457754015922546,1.3398715257644653,2.9131710529327393,-14.585116386413574,7.751161098480225, 6.274279594421387
350,991642028,0.69142616,-0.18360056,-0.68560576,-0.13478038,0.6485013961791992,0.644285261631012,2.4731757640838623,-31.585161209106445,6.299499034881592, 3.3408496379852295
351,991658695,0.69096416,-0.18690093,-0.6845489,-0.1379477,0.9796256422996521,0.26842987537384033,1.8768538236618042,-33.01447677612305,3.498561143875122, 1.114086389541626
352,991675362,0.6904571,-0.1889763,-0.68402594,-0.14023364,1.4920897483825684,0.425233393907547,1.4518769979476929,-22.601316452026367,0.7368979454040527, -1.185498833656311
353,991692029,0.69035715,-0.18884808,-0.6840129,-0.1409605,1.922128677368164,0.22505764663219452,1.6498256921768188,-3.7893736362457275,0.29715216159820557, -4.4033355712890625
354,991708696,0.69098336,-0.18606661,-0.6844387,-0.13951701,1.6024638414382935,-0.7760681509971619,1.8085901737213135,20.377029418945312,1.3439196348190308, -6.432767868041992
355,991725363,0.6925806,-0.1809546,-0.6849268,-0.13587835,1.4631025791168213,-0.2989908754825592,1.3780995607376099,43.07954788208008,5.000893592834473, -6.129236221313477
356,991742030,0.69484234,-0.17477904,-0.6849335,-0.13233519,1.4183050394058228,1.3959029912948608,0.6692613959312439,48.07126235961914,11.502579689025879, -10.36761474609375
357,991758697,0.69674736,-0.16969366,-0.6844458,-0.1314583,1.1351457834243774,2.2827072143554688,-0.3939206302165985,29.43067741394043,14.384475708007812, -17.654420852661133
358,991775364,0.69837046,-0.16577591,-0.6834958,-0.13278118,1.104835867881775,2.062066078186035,-0.5013104677200317,12.743276596069336,16.799549102783203, -22.347618103027344
359,991792031,0.699595,-0.1616751,-0.68272436,-0.13533524,1.3650165796279907,1.6373060941696167,-0.9796488285064697,7.549816131591797,15.660712242126465, -29.629606246948242
360,991808698,0.6990024,-0.15746199,-0.6838519,-0.13765132,1.535172462463379,0.8683682680130005,-2.824080228805542,8.959839820861816,-2.131869077682495, -32.76908874511719
361,991825365,0.69676995,-0.15228014,-0.68710923,-0.1385758,2.4508285522460938,0.5032581090927124,-3.4928038120269775,20.406021118164062,-20.586814880371094, -34.46775817871094
362,991842032,0.6908695,-0.14919916,-0.693729,-0.13848846,3.0628435611724854,2.338024377822876,-5.342636585235596,14.49100112915039,-56.989593505859375, -26.69458770751953
363,991858699,0.67847013,-0.15513842,-0.7032564,-0.14505455,2.2373154163360596,8.220671653747559,-7.399299144744873,-63.98502731323242,-103.42823791503906, -24.388160705566406
364,991875366,0.6602742,-0.17590684,-0.71163416,-0.16331482,-4.921822547912598,0.15479129552841187,-9.019396781921387,-197.04881286621094,-128.25112915039062, -11.588897705078125
365,991892033,0.62346494,-0.18212114,-0.7420521,-0.16577728,-7.71708345413208,18.637104034423828,-107.24897003173828,-51.408363342285156,-322.0163879394531, -58.65238571166992
366,991908700,0.5700788,-0.1880329,-0.77751404,-0.18741888,60.157020568847656,27.676177978515625,63.58055877685547,-162.98883056640625,-403.03631591796875, -167.26158142089844
367,991925367,0.55817914,-0.18564771,-0.78567797,-0.19152361,43.42555618286133,-16.385223388671875,-7.610321998596191,-17.854557037353516,-87.14015197753906, -53.47476577758789
368,991942034,0.5281648,-0.18938474,-0.8097896,-0.17151166,114.34464263916016,-52.40003204345703,46.45869827270508,86.7123794555664,-285.0650634765625, 27.440065383911133
369,991958701,0.5001805,-0.19428417,-0.8288082,-0.15858819,4.63225793838501,26.08708381652832,-24.787843704223633,39.168704986572266,-247.69908142089844, 15.931950569152832
370,991975368,0.47729144,-0.21000558,-0.83671725,-0.16731751,-30.76591682434082,2.2138826847076416,-12.408329010009766,-126.53636169433594,-163.16571044921875, 24.053340911865234
371,991992035,0.4702411,-0.19571035,-0.8466281,-0.1542453,1.444576382637024,-6.623622894287109,-15.190284729003906,122.61009216308594,-75.39576721191406, -61.699058532714844
372,992008702,0.46367475,-0.19406137,-0.85148805,-0.14937885,27.178730010986328,0.8893353343009949,-6.634382724761963,29.153186798095703,-58.564453125, -7.447044849395752
373,992025369,0.4589098,-0.19769065,-0.8531489,-0.14985718,14.323641777038574,6.572527885437012,-7.091999530792236,-19.85502815246582,-36.15477752685547, 12.512941360473633
374,992042036,0.45870906,-0.20170026,-0.85192573,-0.15207116,13.991992950439453,0.4518674314022064,-10.302350044250488,-27.942176818847656,1.6731878519058228, 17.985937118530273
375,992058703,0.4636879,-0.20435011,-0.8481463,-0.15453903,14.94823169708252,-3.370877742767334,-10.972322463989258,-20.64144515991211,41.84197235107422, 18.164321899414062
376,992075370,0.47406638,-0.20661587,-0.8410265,-0.15888783,13.468999862670898,-0.9459396004676819,-10.946096420288086,-26.399614334106445,87.0262680053711, 20.275833129882812
377,992092037,0.4926854,-0.20801793,-0.82858074,-0.16566114,15.376167297363281,0.6663169860839844,-10.710173606872559,-31.7364444732666,156.43289184570312, 23.909440994262695
378,992108704,0.52263695,-0.2048822,-0.8107753,-0.1658836,22.086811065673828,-1.8301310539245605,-9.221613883972168,31.06768226623535,234.97413635253906, 40.81413650512695
379,992125371,0.5674549,-0.19904208,-0.7827097,-0.16044551,34.09764099121094,-0.355942964553833,-3.3845484256744385,81.59874725341797,349.92047119140625, 77.45636749267578
380,992142038,0.62268066,-0.19607979,-0.7410218,-0.1571889,42.76677703857422,-7.446685314178467,4.371562957763672,57.86964416503906,459.0321044921875, 114.58360290527344
381,992158705,0.682793,-0.18373121,-0.69343156,-0.13852529,28.861621856689453,-15.08297061920166,0.6262509822845459,176.90330505371094,498.6493225097656, 145.89166259765625
382,992175372,0.72679245,-0.15165634,-0.6613568,-0.10667926,25.975662231445312,19.351594924926758,-31.342748641967773,326.9028015136719,350.8160095214844, 78.45686340332031
383,992192039,0.7437285,-0.14901441,-0.6433291,-0.1038769,-3.26326060295105,5.262535572052002,7.396622180938721,29.572284698486328,166.07803344726562, 33.0478401184082
384,992208706,0.7465577,-0.14561044,-0.64163977,-0.09873029,-4.650158882141113,5.929490089416504,-13.382658004760742,41.04318618774414,18.269611358642578, 14.924285888671875
385,992225373,0.73314786,-0.16173393,-0.6503733,-0.11554646,-3.2015256881713867,5.404995441436768,-4.378772258758545,-165.2855224609375,-98.07586669921875, -33.00647735595703
386,992242040,0.7119885,-0.1840462,-0.6631617,-0.13934179,0.5806555151939392,-0.32256364822387695,-3.3898704051971436,-233.1255645751953,-150.3220672607422, -51.098609924316406
387,992258707,0.6862705,-0.21501504,-0.6733397,-0.17150904,3.2362289428710938,-1.5426803827285767,0.6278793811798096,-322.01116943359375,-156.04837036132812, -53.695411682128906
388,992275374,0.66234267,-0.24272288,-0.6802333,-0.19917482,1.8404135704040527,-9.188416481018066,1.828904390335083,-286.9615783691406,-135.05311584472656, -40.60661697387695
389,992292041,0.64462304,-0.26038238,-0.6860535,-0.2144597,1.6190162897109985,-7.042238712310791,1.0749891996383667,-174.33741760253906,-107.97980499267578, -21.073253631591797
390,992308708,0.6350794,-0.26863283,-0.6907821,-0.21755648,0.14904098212718964,-7.220378875732422,2.833087682723999,-62.10997772216797,-72.48118591308594, 2.4651668071746826
391,992325375,0.6335669,-0.26878157,-0.6942627,-0.2105919,-0.8633883595466614,-3.910392999649048,4.736084461212158,34.007137298583984,-35.32954025268555, 22.132762908935547
392,992342042,0.63718593,-0.2661419,-0.6945764,-0.2018083,-0.3008626103401184,0.08273664116859436,4.772099018096924,59.72661209106445,3.6373233795166016, 29.98554801940918
393,992358709,0.6434759,-0.26300123,-0.6922053,-0.19396171,0.18818558752536774,1.1394262313842773,4.180420398712158,58.613677978515625,30.553525924682617, 32.12805938720703
394,992375376,0.651336,-0.25854012,-0.6884727,-0.18687946,0.4451777935028076,1.751063346862793,3.504216194152832,61.84746551513672,47.181697845458984, 27.053377151489258
395,992392043,0.65967727,-0.25271583,-0.6843842,-0.18049671,0.42550379037857056,2.142484188079834,2.4265780448913574,65.04684448242188,54.03788757324219, 18.760753631591797
396,992408710,0.6669493,-0.24733275,-0.68044806,-0.17605591,1.0088880062103271,2.749772071838379,1.3534722328186035,52.244869232177734,51.13747024536133, 10.481948852539062
397,992425377,0.6730123,-0.24339871,-0.67642516,-0.17395593,0.9824132919311523,1.8270565271377563,0.8183320760726929,32.494380950927734,48.103939056396484, 5.262351989746094
398,992442044,0.6784663,-0.23980488,-0.67265594,-0.17236927,0.6603217124938965,0.723159670829773,0.685533881187439,27.820276260375977,44.55349349975586, 3.3511147499084473
399,992458711,0.6835959,-0.2354386,-0.6694947,-0.17041779,1.05289888381958,0.9874037504196167,-0.00107093364931643,33.298248291015625,40.537261962890625, 0.10891266912221909
400,992475378,0.6883911,-0.23021194,-0.6668846,-0.16847931,1.5983136892318726,1.1354113817214966,-0.5341857075691223,37.389102935791016,37.44502639770508, -5.177709579467773
401,992492045,0.6928028,-0.22394602,-0.665018,-0.16620392,1.32817542552948,1.2111953496932983,-0.9481589198112488,44.108402252197266,32.84868240356445, -9.948479652404785
402,992508712,0.6966061,-0.21692628,-0.6640013,-0.16366197,1.0965827703475952,1.3136274814605713,-1.2226557731628418,48.953369140625,26.48246192932129, -14.109111785888672
403,992525379,0.6998735,-0.20924576,-0.6638253,-0.16040331,0.8054306507110596,0.2767278850078583,-1.3277558088302612,55.538414001464844,19.69925880432129, -15.529118537902832
404,992542046,0.7030587,-0.19995339,-0.6644444,-0.1556945,0.5409700870513916,0.329915314912796,-1.0599901676177979,70.6727523803711,15.20566463470459, -17.138879776000977
405,992558713,0.7061789,-0.18970823,-0.66532093,-0.15056652,0.27776622772216797,0.9487498998641968,-0.3101491630077362,77.3807144165039,14.123764038085938, -19.885507583618164
406,992575380,0.70947325,-0.17842816,-0.6660584,-0.14552489,0.647731602191925,1.0089982748031616,-0.2665638029575348,82.09402465820312,16.791645050048828, -24.665307998657227
407,992592047,0.7117341,-0.16644427,-0.66772014,-0.1409992,1.4836515188217163,1.7731033563613892,-2.1994316577911377,82.82202911376953,8.900952339172363, -32.560089111328125
408,992608714,0.71201813,-0.15397602,-0.6709698,-0.13827975,2.425325393676758,2.707209348678589,-2.1557395458221436,76.17634582519531,-5.385845184326172, -47.331207275390625
409,992625381,0.7089432,-0.14374357,-0.6767249,-0.13704307,2.150561571121216,1.5745989084243774,-2.059643030166626,57.21664810180664,-33.67952346801758, -50.08184814453125
410,992642048,0.70131725,-0.13678838,-0.6860903,-0.1368334,3.939492702484131,1.589633584022522,-6.008496284484863,35.36901092529297,-74.50330352783203, -47.67428207397461
411,992658715,0.6862725,-0.14027308,-0.69904524,-0.14383912,2.642967939376831,3.0691885948181152,-12.321614265441895,-52.605979919433594,-129.81085205078125, -43.54864501953125
412,992675382,0.64106804,-0.14686753,-0.7365883,-0.15779564,11.77867317199707,14.687984466552734,-72.53269958496094,-105.50553131103516,-387.3097229003906, -114.94820404052734
413,992692049,0.5867075,-0.16405752,-0.77040064,-0.187996,50.141170501708984,10.236494064331055,40.51567077636719,-247.86251831054688,-412.0834045410156, -138.82029724121094
414,992708716,0.55906606,-0.17177728,-0.784264,-0.20704569,33.115760803222656,-3.7926511764526367,18.28272819519043,-145.94419860839844,-190.43569946289062, -86.77459716796875
415,992725383,0.5390236,-0.16375414,-0.8048335,-0.18676539,57.06681823730469,-15.984343528747559,1.2882869243621826,145.22811889648438,-199.44252014160156, -17.686260223388672
416,992742050,0.5102288,-0.16745903,-0.8259339,-0.17163198,56.703975677490234,-14.355626106262207,0.5435469150543213,63.991756439208984,-259.2811279296875, 15.9775390625
417,992758717,0.4835569,-0.17992401,-0.84071803,-0.16429669,7.648911476135254,10.240776062011719,-11.655701637268066,-16.177425384521484,-226.58596801757812, 47.86661911010742
418,992775384,0.4646991,-0.1871835,-0.8498066,-0.16384795,-14.733695030212402,1.1498717069625854,-12.091790199279785,-35.380916595458984,-148.01365661621094, 10.862232208251953
419,992792051,0.4544127,-0.18358238,-0.8569582,-0.15946616,-2.129073143005371,-7.853971481323242,-13.527073860168457,31.154911041259766,-84.43748474121094, -27.852134704589844
420,992808718,0.44866207,-0.18030594,-0.86123264,-0.15643102,17.683425903320312,0.998907208442688,-8.878660202026367,24.688154220581055,-47.298828125, -21.634593963623047
421,992825385,0.4468332,-0.17990191,-0.8622653,-0.15644217,16.65684700012207,2.9170641899108887,-9.442363739013672,-0.8417491316795349,-13.414212226867676, -5.801037311553955
422,992842052,0.44852096,-0.18038389,-0.86107135,-0.15762968,17.240787506103516,0.7765721082687378,-8.079435348510742,-8.573834419250488,14.758378982543945, 2.3840131759643555
423,992858719,0.45555282,-0.18019347,-0.8573512,-0.15795907,15.410463333129883,0.21473602950572968,-8.758635520935059,2.4626166820526123,53.82364273071289, 9.957381248474121
424,992875386,0.46819702,-0.18046783,-0.84994054,-0.16069932,11.355790138244629,0.9689427614212036,-9.093730926513672,-10.270523071289062,100.93550872802734, 15.791845321655273
425,992892053,0.48853782,-0.1814941,-0.8375714,-0.16390519,10.12293815612793,0.2644488215446472,-11.257317543029785,-11.342716217041016,161.63975524902344, 33.33849334716797
426,992908720,0.52074206,-0.17909166,-0.8184882,-0.16380227,14.716477394104004,0.5602874755859375,-10.899312019348145,26.467998504638672,252.3160400390625, 46.44611740112305
427,992925387,0.5673864,-0.17438048,-0.7887518,-0.15979618,27.221006393432617,-3.064603567123413,-7.0946197509765625,62.51319122314453,369.6578063964844, 76.81793975830078
428,992942054,0.6288478,-0.16649954,-0.74496746,-0.14782481,45.57420349121094,-5.259079933166504,2.8077235221862793,120.48985290527344,498.9999694824219, 123.8284912109375
429,992958721,0.69368386,-0.15992542,-0.69024074,-0.12959228,44.13288116455078,-1.2255864143371582,-3.135216474533081,139.734130859375,555.16943359375, 173.54693603515625
430,992975388,0.7358996,-0.14112869,-0.65373284,-0.10567873,26.946348190307617,18.8503360748291,-35.608489990234375,216.32626342773438,365.0675354003906, 102.30210876464844
431,992992055,0.7559968,-0.12465254,-0.63657516,-0.08776429,-3.807770252227783,-7.586157321929932,10.276803970336914,170.14846801757812,171.9526824951172, 47.799415588378906
432,993008722,0.75966483,-0.102503754,-0.63907963,-0.063084915,-7.608659267425537,14.678325653076172,-15.914446830749512,227.0300750732422,-4.648784160614014, 31.239145278930664
433,993025389,0.7508023,-0.10503151,-0.6485128,-0.06852361,-2.044609546661377,3.521548271179199,3.1560261249542236,-40.05739212036133,-85.21466827392578, -27.75033950805664
434,993042056,0.73948,-0.11588337,-0.65814453,-0.081156746,1.1541069746017456,-1.774256706237793,-0.2509647607803345,-116.79376220703125,-95.95352172851562, -29.035520553588867
435,993058723,0.7303866,-0.132045,-0.6626213,-0.1001637,3.8804073333740234,-0.7129184007644653,4.8045244216918945,-173.73910522460938,-57.53786087036133, -32.08657455444336
436,993075390,0.7249813,-0.14955325,-0.6617117,-0.11905391,1.7725330591201782,-3.183669090270996,1.8875200748443604,-180.33424377441406,-14.750816345214844, -17.94333839416504
437,993092057,0.7229058,-0.16122936,-0.65922827,-0.12973268,0.7170582413673401,-5.214659214019775,0.5263301730155945,-111.75334930419922,4.563109874725342, 0.7549099326133728
438,993108724,0.72429174,-0.16287407,-0.6572526,-0.12997168,-1.0510624647140503,-4.179815292358398,2.9874327182769775,-10.286087036132812,15.10561752319336, 9.625823020935059
439,993125391,0.72817945,-0.15842623,-0.65513307,-0.12432445,-1.911555528640747,-1.056349754333496,2.8077893257141113,49.32291793823242,25.963516235351562, 13.739191055297852
440,993142058,0.7320277,-0.1536573,-0.6530755,-0.118395224,-0.16420480608940125,0.3953121304512024,-0.6859181523323059,52.210357666015625,25.427507400512695, 13.58420181274414
441,993158725,0.7350247,-0.15014383,-0.6513335,-0.1138433,1.1029952764511108,0.7254396080970764,-1.8082810640335083,39.066314697265625,20.463459014892578, 11.267743110656738
442,993175392,0.7365558,-0.14962247,-0.6500354,-0.11203991,0.8397793769836426,0.8338608741760254,-1.2512730360031128,10.473511695861816,12.176732063293457, 9.183448791503906
443,993192059,0.73630476,-0.15237561,-0.64946,-0.113307916,0.886856734752655,0.7560396790504456,-1.0803951025009155,-21.11017608642578,1.2098883390426636, 6.161344051361084
444,993208726,0.73457795,-0.15702544,-0.6498068,-0.11614485,0.4314119517803192,-0.5540414452552795,-0.4720120131969452,-38.54387283325195,-9.86211109161377, 4.585653305053711
445,993225393,0.732448,-0.1612153,-0.65086144,-0.11793702,-0.7890520095825195,-2.1547043323516846,1.227041482925415,-31.422531127929688,-15.9860200881958, 6.714610576629639
446,993242060,0.72999924,-0.16477504,-0.652477,-0.119264886,-0.8660612106323242,-0.6295256018638611,1.1176778078079224,-26.071975708007812,-20.243757247924805, 5.320451259613037
447,993258727,0.7266534,-0.16872244,-0.6547676,-0.12160268,-0.029491642490029335,1.6021218299865723,-0.32549765706062317,-33.0120964050293,-26.830280303955078, 0.4807341694831848
448,993275394,0.72223693,-0.17324688,-0.6577557,-0.1253675,0.5301141738891602,1.757468819618225,-0.6069632768630981,-42.977447509765625,-33.948081970214844, -5.730453968048096
449,993292061,0.71725756,-0.17678612,-0.6616041,-0.1287184,0.4129304587841034,0.3851429224014282,-0.3070281147956848,-36.14036560058594,-40.39442443847656, -9.612253189086914
450,993308728,0.71223336,-0.17769934,-0.6665496,-0.12984072,0.8560256361961365,0.1008588969707489,-0.044353581964969635,-12.135183334350586,-46.38212966918945, -11.933584213256836
451,993325395,0.7074209,-0.17549483,-0.6725584,-0.12815124,0.8486000299453735,-0.15934112668037415,0.3662436902523041,17.224605560302734,-51.261802673339844, -13.560636520385742
452,993342062,0.702616,-0.17111228,-0.67939585,-0.124389514,0.6933988928794861,-0.19120414555072784,0.7780396938323975,38.139591217041016,-55.83469772338867, -14.549399375915527
453,993358729,0.69787526,-0.16586557,-0.6863856,-0.11972358,0.9065418839454651,-0.1208580732345581,1.2356667518615723,46.74088668823242,-56.59452819824219, -14.34701919555664
454,993375396,0.693866,-0.15995419,-0.69260824,-0.11514531,1.3961145877838135,0.353420615196228,1.8795676231384277,49.7177734375,-48.82179260253906, -16.43213653564453
455,993392063,0.68998,-0.154393,-0.6981179,-0.112790726,1.2363662719726562,1.0510600805282593,0.7971184849739075,37.02763748168945,-42.677085876464844, -24.487794876098633
456,993408730,0.6849324,-0.14988197,-0.7041585,-0.11208965,2.093435049057007,0.7964692711830139,0.6419063210487366,23.289310455322266,-49.83045196533203, -28.74170684814453
457,993425397,0.6784247,-0.14450857,-0.7117292,-0.1109005,3.5015180110931396,-0.022581251338124275,0.6061941385269165,29.38818359375,-63.94496154785156, -33.31020736694336
458,993442064,0.66998196,-0.13859443,-0.72142017,-0.10709291,4.13953161239624,-0.73891681432724,0.9083030819892883,44.41731643676758,-85.49822235107422, -27.325822830200195
459,993458731,0.65975994,-0.13291256,-0.73257434,-0.101912856,5.483509063720703,0.451073557138443,-1.455641746520996,49.53192901611328,-102.55282592773438, -22.567691802978516
460,993475398,0.64750916,-0.13271722,-0.7436532,-0.100489266,3.830594062805176,0.5808078050613403,0.23574122786521912,3.8189308643341064,-112.82816314697266, -13.318094253540039
461,993492065,0.6271975,-0.1364518,-0.75916845,-0.10801606,-4.867219924926758,4.949663162231445,-71.76292419433594,-63.738792419433594,-168.3589324951172, -42.68275451660156
462,993508732,0.5721579,-0.1388964,-0.7996512,-0.11790314,33.13029861450195,31.930076599121094,-4.669914245605469,-84.55783081054688,-453.68499755859375, -108.76448822021484
463,993525399,0.5414186,-0.16064362,-0.8091724,-0.1621722,35.21344757080078,-8.504402160644531,32.13080978393555,-351.33160400390625,-180.91690063476562, -88.14049530029297
464,993542066,0.53298336,-0.13435486,-0.82376057,-0.13891019,72.48902893066406,-10.661413192749023,-14.555500984191895,233.689208984375,-97.11396026611328, -84.85331726074219
465,993558733,0.50448126,-0.1343529,-0.84197915,-0.13608524,80.433837890625,-30.074851989746094,33.370914459228516,6.3782124519348145,-230.51800537109375, -33.60086441040039
466,993575400,0.47900602,-0.1378939,-0.8575453,-0.12710163,-1.8190281391143799,22.569429397583008,-26.56566047668457,29.799436569213867,-213.56365966796875, 13.09976863861084
467,993592067,0.46161073,-0.14585038,-0.86576676,-0.1268516,-27.101078033447266,3.5842437744140625,-7.083700656890869,-34.824668884277344,-137.01028442382812, 24.662445068359375
468,993608734,0.45368612,-0.14121526,-0.87169635,-0.1198861,-3.314145088195801,2.945997953414917,-11.39976978302002,52.65098571777344,-68.85321044921875, -18.347150802612305
469,993625401,0.4489866,-0.140793,-0.8748383,-0.11509307,25.31620216369629,-0.7299100160598755,-7.897915840148926,27.341909408569336,-42.05523681640625, 5.525944709777832
470,993642068,0.44640923,-0.14543188,-0.8757853,-0.11210936,18.646713256835938,-0.8441001176834106,-8.885139465332031,1.1304171085357666,-24.872224807739258, 34.151336669921875
471,993658735,0.44568855,-0.15165533,-0.8752052,-0.11125849,15.322145462036133,1.3727545738220215,-9.103841781616211,-15.917771339416504,-8.143919944763184, 40.07789993286133
472,993675402,0.44962037,-0.15654899,-0.872171,-0.112481125,12.584772109985352,0.41047853231430054,-9.20766544342041,-21.34389305114746,30.527725219726562, 31.84149169921875
473,993692069,0.45834658,-0.16019231,-0.8665874,-0.115252994,9.620279312133789,-3.6360161304473877,-11.212064743041992,-23.585817337036133,69.79188537597656, 26.001319885253906
474,993708736,0.47372982,-0.16234806,-0.8573511,-0.1190484,9.888453483581543,-1.9575427770614624,-11.154869079589844,-20.605812072753906,123.31845092773438, 23.167373657226562
475,993725403,0.4973868,-0.16140956,-0.8437349,-0.12109723,13.434396743774414,-3.708009958267212,-11.830833435058594,5.394754409790039,186.99884033203125, 22.250455856323242
476,993742070,0.5326795,-0.15661947,-0.823314,-0.11780092,22.297840118408203,-3.822617769241333,-9.621217727661133,56.797828674316406,275.13134765625, 35.37936782836914
477,993758737,0.5815399,-0.15147084,-0.79134065,-0.11246309,33.556739807128906,-3.5120394229888916,-3.3901000022888184,74.92887115478516,392.4551086425781, 64.21593475341797
478,993775404,0.6419123,-0.14785466,-0.7453672,-0.1025451,48.466461181640625,-4.35720157623291,6.450719833374023,94.92945098876953,505.25189208984375, 114.36076354980469
479,993792071,0.7012027,-0.14750586,-0.6925983,-0.08285299,36.9716796875,-2.3058700561523438,-2.3011629581451416,124.76319885253906,517.2962646484375, 180.42349243164062
480,993808738,0.7367009,-0.13416672,-0.6593293,-0.06749836,25.09771156311035,31.415639877319336,-38.288909912109375,153.6546173095703,321.327880859375, 64.1643295288086
481,993825405,0.7561808,-0.12639706,-0.639598,-0.055939183,-7.064855098724365,-19.571334838867188,9.054940223693848,99.79068756103516,181.4374542236328, 50.75231170654297
482,993842072,0.7594145,-0.09952671,-0.64228535,-0.029216975,-7.351688385009766,17.942493438720703,-19.336652755737305,260.30267333984375,-12.542523384094238, 19.555757522583008
483,993858739,0.75033206,-0.10433727,-0.6517205,-0.03709282,-3.5521481037139893,3.268315076828003,2.9392685890197754,-64.98739624023438,-84.6000747680664, -28.038373947143555
484,993875406,0.7361382,-0.12214248,-0.6633244,-0.05641495,-0.4348052144050598,-2.347395181655884,-1.735308051109314,-186.45143127441406,-113.85199737548828, -31.683177947998047
485,993892073,0.72342044,-0.14421041,-0.6703548,-0.08056663,2.7931487560272217,-5.019052982330322,3.9726924896240234,-230.598388671875,-81.55012512207031, -32.300537109375
486,993908740,0.71541417,-0.1649342,-0.6712927,-0.10171209,2.69985294342041,-5.645554542541504,2.130927085876465,-208.7565155029297,-31.808622360229492, -14.952071189880371
487,993925407,0.7121196,-0.1797398,-0.6689538,-0.11436863,1.455452799797058,-6.1974711418151855,0.22936390340328217,-137.40670776367188,0.5502423048019409, 6.427340030670166
488,993942074,0.7134454,-0.18423378,-0.66624975,-0.11473847,0.23274840414524078,-5.36245584487915,0.43699946999549866,-24.991535186767578,16.519458770751953, 23.156280517578125
489,993958741,0.71750945,-0.18057954,-0.6643486,-0.105888724,-0.8629026412963867,-1.9297196865081787,1.2517452239990234,61.30047607421875,19.87554168701172, 32.120338439941406
490,993975408,0.722299,-0.17275937,-0.6631216,-0.09331876,-0.735148549079895,1.282606601715088,0.69119793176651,100.2348403930664,18.26628875732422, 31.103694915771484
491,993992075,0.7266963,-0.16372757,-0.66228586,-0.08052014,-0.23073285818099976,2.5154314041137695,-0.2985055148601532,107.08295440673828,15.034599304199219, 26.01278305053711
492,994008742,0.72991776,-0.15463918,-0.6622077,-0.06919409,-0.15565209090709686,2.5195472240448,-0.16164255142211914,99.76375579833984,7.591296672821045, 16.92604637145996
493,994025409,0.73140913,-0.14736994,-0.6630356,-0.060884267,-0.23047389090061188,2.516115188598633,0.21001964807510376,75.49824523925781,-2.4834835529327393, 8.317849159240723
494,994042076,0.7310913,-0.14295998,-0.6647451,-0.056409094,-0.3141452372074127,2.5553417205810547,0.42189404368400574,42.179264068603516,-12.473688125610352, 0.4509338438510895
495,994058743,0.7289728,-0.14172654,-0.6673739,-0.055895265,-0.05267169326543808,2.1091842651367188,0.550003707408905,6.699329853057861,-22.662986755371094, -6.510915756225586
496,994075410,0.7251722,-0.14316788,-0.67097867,-0.05844651,0.07547035813331604,1.380117654800415,0.9947598576545715,-22.029836654663086,-33.31465530395508, -11.167999267578125
497,994092077,0.7201948,-0.1461075,-0.67529285,-0.06286444,0.2713310718536377,0.8209855556488037,1.0204781293869019,-38.98234939575195,-41.053348541259766, -14.715327262878418
498,994108744,0.71447283,-0.14916763,-0.6801961,-0.06790468,0.5803866982460022,1.0150954723358154,0.7084845900535583,-42.961124420166016,-46.86404037475586, -18.13955307006836
499,994125411,0.7081646,-0.15192407,-0.6856009,-0.073304646,1.004652976989746,1.4333398342132568,0.5099234580993652,-43.51573944091797,-51.56340408325195, -22.099966049194336
500,994142078,0.701545,-0.15397549,-0.69129556,-0.07897313,1.420346736907959,1.5746852159500122,0.7958453893661499,-41.522193908691406,-53.81002426147461, -27.16907501220703
501,994158745,0.6951458,-0.15483044,-0.69686544,-0.08472614,1.3158332109451294,1.1339561939239502,1.4121953248977661,-35.9800910949707,-51.42782974243164, -32.98789978027344
502,994175412,0.6892458,-0.15468927,-0.7020331,-0.09033819,1.2987980842590332,0.7632789015769958,1.984482765197754,-30.24310874938965,-46.70001983642578, -36.351463317871094
503,994192079,0.68382543,-0.1543469,-0.70658594,-0.09641705,1.241610050201416,0.8176949620246887,1.779053807258606,-31.412805557250977,-40.87504577636719, -38.57246780395508
504,994208746,0.67881,-0.15399292,-0.7105073,-0.10335775,1.7715332508087158,1.0902765989303589,1.935204267501831,-35.52871322631836,-35.03926086425781, -41.731380462646484
505,994225413,0.6736284,-0.15376154,-0.71412474,-0.11228647,2.1280860900878906,0.9363417625427246,1.5950573682785034,-46.19975662231445,-32.4404296875, -50.19264221191406
506,994242080,0.6682802,-0.15383549,-0.7173954,-0.12280133,2.328005313873291,0.13790489733219147,1.56782865524292,-55.84147644042969,-30.233264923095703, -55.78954315185547
507,994258747,0.66204995,-0.15430515,-0.72099143,-0.13435453,2.5251526832580566,0.021862996742129326,1.0402836799621582,-63.43497848510742,-35.33800506591797, -59.69797134399414
508,994275414,0.65419847,-0.15656805,-0.7253518,-0.1462046,3.4162676334381104,0.4745774269104004,0.28916236758232117,-74.08139038085938,-48.212886810302734, -54.47138595581055
509,994292081,0.64430374,-0.16055605,-0.7310361,-0.15710129,4.223617076873779,0.5569689869880676,-1.8152462244033813,-77.94750213623047,-67.12757873535156, -45.056583404541016
510,994308748,0.6320958,-0.16846173,-0.73732996,-0.1685829,4.186397552490234,-0.9455552101135254,-3.3694710731506348,-100.1319580078125,-85.02320861816406, -31.12527084350586
511,994325415,0.6063729,-0.16936278,-0.7574346,-0.17297763,1.5028095245361328,7.972860336303711,-89.02820587158203,-33.41728591918945,-213.63755798339844, -67.52507019042969
512,994342082,0.5457206,-0.1718271,-0.7991362,-0.18451567,51.98590087890625,38.399925231933594,30.708106994628906,-92.26178741455078,-478.23095703125, -155.8367919921875
513,994358749,0.5129807,-0.19762783,-0.8051131,-0.22268212,38.353336334228516,-13.469493865966797,27.10347557067871,-338.1723327636719,-189.33282470703125, -49.378482818603516
514,994375416,0.5030123,-0.17799546,-0.8240364,-0.19042139,31.58683204650879,-17.24264144897461,-24.279212951660156,262.9049072265625,-135.61807250976562, -35.462303161621094
515,994392083,0.4829122,-0.18221729,-0.83890504,-0.17271702,67.69691467285156,-17.006282806396484,0.15732848644256592,79.93595886230469,-192.2789306640625, 40.787044525146484
516,994408750,0.460951,-0.19382398,-0.8501953,-0.16469516,18.089529037475586,12.280779838562012,-7.993973255157471,-7.211064338684082,-188.26821899414062, 53.19677734375
517,994425417,0.44809392,-0.19844691,-0.8567141,-0.16084749,-10.929771423339844,-1.0063669681549072,-13.02625846862793,-2.641084671020508,-106.47274017333984, 15.907360076904297
518,994442084,0.44139308,-0.19705631,-0.8615851,-0.15495858,-4.586154937744141,-7.01416015625,-12.653903007507324,34.448795318603516,-61.00272750854492, -4.155373573303223
519,994458751,0.4389407,-0.19695058,-0.8633497,-0.15221353,12.299749374389648,3.6660349369049072,-8.0869779586792,14.266802787780762,-23.316696166992188, 2.5962700843811035
520,994475418,0.44088382,-0.1990084,-0.86176044,-0.15292478,17.68878936767578,4.242970943450928,-8.475330352783203,-10.309541702270508,15.303764343261719, 14.171578407287598
521,994492085,0.4460294,-0.20331587,-0.85759896,-0.15570655,15.791938781738281,-0.10319235175848007,-8.988526344299316,-27.685302734375,42.49156188964844, 28.131298065185547
522,994508752,0.45533437,-0.2071785,-0.85132647,-0.15808553,15.409123420715332,-0.7922638654708862,-10.338068008422852,-20.408367156982422,73.37757110595703, 34.12847137451172
523,994525419,0.4712839,-0.20950444,-0.8411101,-0.16289061,13.765359878540039,1.411675214767456,-9.798501968383789,-24.64525032043457,129.74729919433594, 30.354183197021484
524,994542086,0.49507895,-0.20997274,-0.8259181,-0.16931558,12.887252807617188,-2.381523370742798,-11.670305252075195,-22.26432991027832,195.68722534179688, 30.317686080932617
525,994558753,0.53069985,-0.20437169,-0.8050606,-0.16872315,19.226970672607422,-4.7865142822265625,-10.62343692779541,48.700965881347656,279.1715087890625, 41.65090560913086
526,994575420,0.58066607,-0.19541045,-0.77314425,-0.16398038,31.889013290405273,-4.085103988647461,-4.741479873657227,91.263427734375,397.1653747558594, 70.32192993164062
527,994592087,0.6426495,-0.18562718,-0.72694165,-0.1552419,47.53459167480469,-7.480282783508301,6.166049957275391,115.8853759765625,513.8131103515625, 114.63501739501953
528,994608754,0.7059498,-0.17611349,-0.67321163,-0.13192888,40.4569091796875,-5.4595112800598145,0.8339459896087646,181.29710388183594,534.6341552734375, 191.4004669189453
529,994625421,0.74250865,-0.15734017,-0.64235836,-0.10630555,24.637161254882812,28.137514114379883,-44.49089050292969,225.21755981445312,304.84100341796875, 107.57794952392578
530,994642088,0.7604744,-0.14294894,-0.62825984,-0.08083397,-7.204774379730225,-16.872377395629883,8.023853302001953,194.36444091796875,134.73687744140625, 94.83295440673828
531,994658755,0.76171887,-0.10584631,-0.637977,-0.039578818,-7.704967021942139,19.44688606262207,-19.529157638549805,378.20513916015625,-65.11355590820312, 46.28470993041992
532,994675422,0.7487935,-0.10765581,-0.6526275,-0.042374928,-1.1645691394805908,10.551957130432129,4.749893665313721,-27.90839958190918,-131.32643127441406, -20.958351135253906
533,994692089,0.7299005,-0.13012788,-0.6678522,-0.0654663,0.9773630499839783,3.0499367713928223,-0.4041486978530884,-229.64642333984375,-152.1766357421875, -34.73654556274414
534,994708756,0.7127699,-0.15610214,-0.67701787,-0.09611568,3.027056932449341,-2.7445781230926514,4.116481781005859,-283.0970153808594,-108.49114990234375, -50.311431884765625
535,994725423,0.7004983,-0.17671783,-0.6808999,-0.120201446,1.7951475381851196,-5.264212131500244,0.8065921664237976,-224.52328491210938,-63.53213119506836, -34.21644973754883
536,994742090,0.6932895,-0.18656884,-0.6836611,-0.13095637,0.7795616984367371,-6.673063278198242,1.0127869844436646,-105.02532196044922,-41.73516082763672, -14.919079780578613
537,994758757,0.6913239,-0.18622117,-0.6861307,-0.12890957,0.15409336984157562,-5.343642234802246,3.03259539604187,10.19812297821045,-22.945880889892578, 3.1661789417266846
538,994775424,0.6932347,-0.18153405,-0.6868509,-0.121272705,-0.6206556558609009,-0.7997336387634277,3.5214624404907227,60.584442138671875,0.3004474937915802, 14.862515449523926
539,994792091,0.69663894,-0.17752519,-0.68557906,-0.114719056,-0.3236059844493866,0.6235411763191223,1.956907868385315,52.43285369873047,17.581512451171875, 16.619422912597656
540,994808758,0.7005022,-0.17268781,-0.68389153,-0.108480394,0.16582660377025604,0.5610940456390381,1.0756654739379883,55.150779724121094,22.74636459350586, 12.081583976745605
541,994825425,0.70402765,-0.16730624,-0.6824425,-0.103083245,0.19101138412952423,1.8308392763137817,1.0561290979385376,53.5931396484375,21.40134620666504, 4.9415998458862305
542,994842092,0.70653665,-0.16379516,-0.6810281,-0.100885436,0.41879427433013916,2.613617420196533,0.5624346137046814,28.390153884887695,18.804054260253906, -2.5032927989959717
543,994858759,0.7078444,-0.16320667,-0.6795573,-0.10257608,0.5546886920928955,2.0689189434051514,-0.0417877659201622,-5.39619255065918,15.799578666687012, -8.439945220947266
544,994875426,0.70835364,-0.16455905,-0.67809963,-0.106472775,0.3296298682689667,0.6188057661056519,0.13058099150657654,-26.0272274017334,13.116186141967773, -10.65545654296875
545,994892093,0.7086782,-0.16632192,-0.6766586,-0.1106592,-0.04508098587393761,-0.3986887037754059,0.5630775094032288,-29.571231842041016,12.203046798706055, -10.297562599182129
546,994908760,0.70905024,-0.16743039,-0.675389,-0.114300594,-0.4116935133934021,-0.9923238754272461,0.7121501564979553,-23.664316177368164,11.458609580993652, -10.852027893066406
547,994925427,0.7093256,-0.16727231,-0.67477095,-0.11645381,-0.2328731268644333,-1.9200414419174194,0.6327731609344482,-10.183952331542969,7.108779430389404, -10.319469451904297
548,994942094,0.70919657,-0.16524005,-0.67543566,-0.11628875,0.5976608395576477,-1.2521201372146606,-0.16839130222797394,10.265032768249512,-2.1939468383789062, -9.5361909866333
549,994958761,0.7081573,-0.16278668,-0.6772395,-0.11558868,0.8523591756820679,0.26808640360832214,-0.7708341479301453,14.674825668334961,-12.237920761108398, -10.922642707824707
550,994975428,0.7062348,-0.16090761,-0.6797004,-0.11553587,0.8913580179214478,0.40258216857910156,-0.6327106356620789,8.400900840759277,-19.263442993164062, -12.832974433898926
551,994992095,0.7034886,-0.1592576,-0.6829178,-0.11560404,0.9239004850387573,0.20303945243358612,-0.41927263140678406,6.41533088684082,-26.82073402404785, -13.835500717163086
552,995008762,0.69987327,-0.1577437,-0.6869234,-0.11589108,0.9584363698959351,0.6670997738838196,-0.24160775542259216,4.405721187591553,-34.570987701416016, -15.80534839630127
553,995025429,0.6956516,-0.15603335,-0.6914405,-0.11675802,1.1202425956726074,1.1140581369400024,-0.012076517567038536,2.3653552532196045,-39.10295486450195, -20.552154541015625
554,995042096,0.69112384,-0.15390857,-0.69615686,-0.118430585,1.5858081579208374,0.18742603063583374,0.9916186928749084,0.3511466085910797,-40.310791015625, -26.819061279296875
555,995058763,0.6865957,-0.15029119,-0.70121247,-0.11958402,2.6550369262695312,-0.6098440885543823,0.16883286833763123,10.210724830627441,-41.2725830078125, -31.852293014526367
556,995075430,0.6807773,-0.14545198,-0.7079703,-0.119012974,3.506246328353882,0.20080631971359253,-0.581092357635498,24.351539611816406,-56.306373596191406, -32.43068313598633
557,995092097,0.67190933,-0.14118697,-0.7172611,-0.11891613,4.32573127746582,2.3230342864990234,-1.6064512729644775,18.37704849243164,-82.99250030517578, -36.88108444213867
558,995108764,0.6587819,-0.13964723,-0.7291975,-0.121557795,5.70147180557251,3.6532649993896484,-1.751369833946228,-9.66589641571045,-115.7703857421875, -42.11249923706055
559,995125431,0.64165133,-0.14494845,-0.7418244,-0.13027115,5.4590630531311035,0.14603829383850098,-1.2482261657714844,-74.34871673583984,-138.84103393554688, -39.275577545166016
560,995142098,0.6109685,-0.14519507,-0.76625216,-0.13599128,3.6079764366149902,6.392426490783691,-72.30370330810547,-39.71056365966797,-258.522705078125, -75.76554107666016
561,995158765,0.55241144,-0.14489074,-0.80906343,-0.13879772,42.4850959777832,20.581531524658203,13.934765815734863,-32.71377182006836,-484.156494140625, -110.83232116699219
562,995175432,0.5245099,-0.15965763,-0.818256,-0.1727888,25.256418228149414,-3.0014519691467285,24.599706649780273,-264.82025146484375,-169.36312866210938, -82.39295959472656
563,995192099,0.5158008,-0.14246011,-0.82992154,-0.15775016,59.0485954284668,-1.98688542842865,-4.583287715911865,150.40835571289062,-86.65699005126953, -65.37288665771484
564,995208766,0.4932648,-0.1431832,-0.8451708,-0.14790186,68.11207580566406,-32.002445220947266,1.5785213708877563,47.53928756713867,-192.98422241210938, -0.14592306315898895
565,995225433,0.4706179,-0.1475971,-0.85936236,-0.13501981,11.779815673828125,13.196243286132812,-8.13908863067627,51.10929870605469,-197.35733032226562, 32.104827880859375
566,995242100,0.45551014,-0.15424027,-0.8664731,-0.13396008,-14.042428016662598,6.076695919036865,-11.215911865234375,-24.76685333251953,-119.92867279052734, 21.32364845275879
567,995258767,0.44795403,-0.15252838,-0.8713391,-0.12977083,-3.399993896484375,-3.8924319744110107,-11.59235954284668,26.034879684448242,-63.22962951660156, -9.239411354064941
568,995275434,0.44387674,-0.15197152,-0.87410134,-0.12579761,16.408952713012695,-1.41499662399292,-8.377862930297852,22.887422561645508,-36.51350021362305, 2.2974934577941895
569,995292101,0.4424914,-0.15512565,-0.87434566,-0.12512855,17.36712074279785,2.0703284740448,-8.78804874420166,-7.693276882171631,-12.455314636230469, 19.447856903076172
570,995308768,0.4435704,-0.16048087,-0.8725651,-0.12697072,14.16463565826416,1.1790993213653564,-8.327341079711914,-28.590818405151367,9.252114295959473, 29.32109832763672
571,995325435,0.44861433,-0.16550483,-0.86868757,-0.12936561,14.282890319824219,0.6086310148239136,-9.715153694152832,-28.3531551361084,40.30805587768555, 31.419523239135742
572,995342102,0.4589461,-0.16891794,-0.862016,-0.13328075,12.075340270996094,-0.9746648669242859,-9.56425952911377,-28.941253662109375,83.66770935058594, 24.983671188354492
573,995358769,0.4754315,-0.17116363,-0.8516137,-0.13936351,10.81085205078125,-2.026198148727417,-11.098052024841309,-34.401466369628906,135.52574157714844, 21.17518424987793
574,995375436,0.50008523,-0.16996889,-0.83700424,-0.14300165,11.879349708557129,-2.885505199432373,-11.709942817687988,-3.294085741043091,197.6050262451172, 21.769363403320312
575,995392103,0.53711027,-0.1647747,-0.81508493,-0.14141695,21.069759368896484,-3.3589062690734863,-9.842039108276367,47.76104736328125,291.8987121582031, 37.37883758544922
576,995408770,0.5883014,-0.15979004,-0.7808123,-0.13675098,34.274818420410156,-3.0081264972686768,-2.833296298980713,68.29264068603516,413.3762512207031, 77.67103576660156
577,995425437,0.6515841,-0.1547517,-0.73165214,-0.12718295,50.555538177490234,-6.157720565795898,7.784836769104004,94.1847152709961,533.3294067382812, 124.94837951660156
578,995442104,0.713679,-0.14365081,-0.6783042,-0.099650785,42.17462158203125,-2.076101303100586,-5.871249198913574,206.94248962402344,532.072021484375, 178.3512420654297
579,995458771,0.7456182,-0.122087106,-0.6504729,-0.07767683,14.418930053710938,27.754531860351562,-38.03574752807617,219.92002868652344,278.3886413574219, 56.2320556640625
580,995475438,0.75599754,-0.110124975,-0.6422867,-0.061710577,-6.708172798156738,-10.919681549072266,1.906004548072815,136.3093719482422,81.6957778930664, 40.741153717041016
581,995492105,0.74572766,-0.09975159,-0.6567548,-0.051120397,-8.649491310119629,16.152393341064453,-17.33486557006836,98.24273681640625,-123.8965072631836, -6.2759857177734375
582,995508772,0.72438025,-0.11254561,-0.6768131,-0.06731053,0.5226883292198181,-1.3437414169311523,-1.5631835460662842,-147.06085205078125,-192.12509155273438, -46.49666213989258
583,995525439,0.6992569,-0.13623904,-0.6953816,-0.09446304,4.414839267730713,0.7854787707328796,2.693431854248047,-256.0346984863281,-198.84365844726562, -50.9781608581543
584,995542106,0.67880493,-0.16446964,-0.70420593,-0.12754494,2.6133933067321777,-6.0291266441345215,6.832495212554932,-308.1770935058594,-127.0827865600586, -45.58721923828125
585,995558773,0.66614455,-0.18642955,-0.705941,-0.15212767,0.9811098575592041,-6.871191024780273,3.865443706512451,-235.13626098632812,-60.46277618408203, -21.479900360107422
586,995575440,0.66185546,-0.1971754,-0.705327,-0.15994777,0.0561184287071228,-7.584988594055176,3.007394790649414,-94.13455963134766,-18.878116607666016, 12.552935600280762
587,995592107,0.66404665,-0.1957056,-0.70544803,-0.15193614,-0.4855860471725464,-3.6299266815185547,3.1435203552246094,47.777591705322266,1.127311110496521, 31.38585090637207
588,995608774,0.6695503,-0.18792208,-0.7052387,-0.1379352,-0.6234083771705627,-0.12170356512069702,3.0551035404205322,109.7501449584961,17.186872482299805, 31.963045120239258
589,995625441,0.6756895,-0.1785656,-0.7040436,-0.12601843,-0.26599812507629395,3.2572922706604004,2.5932252407073975,106.7704086303711,28.937705993652344, 16.6140193939209
590,995642108,0.6801424,-0.17359257,-0.7017695,-0.12162113,0.33387911319732666,3.8968911170959473,2.1648759841918945,47.01742172241211,31.17604637145996, 2.806716203689575
591,995658775,0.6826814,-0.17455256,-0.69862974,-0.12407433,0.5027564167976379,2.627793550491333,1.8719799518585205,-16.767148971557617,29.16790008544922, -1.1159623861312866
592,995675442,0.6838132,-0.1794955,-0.6950797,-0.13055773,0.4502646028995514,0.6189458966255188,1.4105995893478394,-56.844261169433594,25.74464225769043, -1.5738322734832764
593,995692109,0.68409574,-0.18457061,-0.6922248,-0.1370103,0.33134177327156067,-0.7050137519836426,0.4214093089103699,-57.73907470703125,18.24141502380371, -2.4101734161376953
594,995708776,0.68417436,-0.18781209,-0.6904357,-0.14117694,0.5709211826324463,-1.0731472969055176,0.49416130781173706,-37.493247985839844,11.08232307434082, -1.9400570392608643
595,995725443,0.6849694,-0.18902624,-0.6889239,-0.14307314,0.5141096115112305,-1.4109315872192383,0.7058640122413635,-15.990208625793457,12.211453437805176, -0.5607523322105408
596,995742110,0.6871171,-0.18758452,-0.68740565,-0.14197187,0.23305347561836243,-2.292263984680176,0.7816718816757202,12.45986270904541,17.35755729675293, 2.2965216636657715
597,995758777,0.69017893,-0.18344305,-0.6862327,-0.13815445,0.27627667784690857,-1.272114872932434,0.5562837719917297,39.55522537231445,19.169782638549805, 2.786431074142456
598,995775444,0.69300073,-0.17874432,-0.6854717,-0.13389993,0.7214022874832153,0.4579722285270691,0.1333499550819397,44.34419631958008,16.05454444885254, 1.468919038772583
599,995792111,0.69500977,-0.17457138,-0.68515813,-0.13055564,1.199702501296997,0.9413663744926453,-0.13550826907157898,36.96544647216797,10.726815223693848, -1.679356575012207
600,995808778,0.69619596,-0.17002004,-0.68573916,-0.1271464,1.1122839450836182,0.3290579617023468,0.07387145608663559,38.901912689208984,2.8419556617736816, -4.947900772094727
601,995825445,0.6966225,-0.16423988,-0.6875281,-0.122669436,0.7715738415718079,0.054938651621341705,0.3644547760486603,49.98744201660156,-6.6943254470825195, -7.699337482452393
602,995842112,0.69613737,-0.15757975,-0.6904236,-0.11779886,0.7653664350509644,0.7053002715110779,0.5161502957344055,55.96788787841797,-16.010530471801758, -11.988492012023926
603,995858779,0.6948118,-0.1514216,-0.6937225,-0.11426777,1.1613948345184326,0.9241626858711243,0.8896146416664124,46.62576675415039,-20.891559600830078, -17.121524810791016
604,995875446,0.6937941,-0.14635895,-0.69608194,-0.1126887,1.4095371961593628,-0.06996269524097443,1.9103991985321045,31.669452667236328,-13.7779541015625, -19.985929489135742
605,995892113,0.69328344,-0.14138792,-0.6976241,-0.112640955,1.637885570526123,-0.24072220921516418,1.0069231986999512,23.783397674560547,-6.012107849121094, -25.63446617126465
606,995908780,0.6907084,-0.13894293,-0.7004243,-0.11411715,2.852872371673584,1.0711361169815063,-0.8249146938323975,3.3973135948181152,-22.3994140625, -23.60539436340332
607,995925447,0.68497,-0.13749719,-0.7059965,-0.11610204,3.9370696544647217,1.814352035522461,-1.8642526865005493,-4.637694835662842,-51.0787353515625, -26.32310676574707
608,995942114,0.67534375,-0.13627045,-0.7150433,-0.118550405,4.866701602935791,1.7998908758163452,-4.137791156768799,-8.801250457763672,-86.0213394165039, -33.806060791015625
609,995958781,0.66102755,-0.1378058,-0.7273833,-0.12233418,6.173760890960693,2.235234260559082,-8.221956253051758,-29.897031784057617,-125.30599975585938, -33.31332015991211
610,995975448,0.6260154,-0.13853626,-0.75641197,-0.12943567,3.9436120986938477,15.807343482971191,-79.56629180908203,-48.39628219604492,-300.7984924316406, -85.63673400878906
611,995992115,0.5679937,-0.15526167,-0.7929366,-0.15661593,40.06593704223633,14.590298652648926,29.70075798034668,-237.03221130371094,-446.82489013671875, -116.3436279296875
612,996008782,0.5400824,-0.16197245,-0.8055059,-0.18230854,40.29285430908203,-8.083592414855957,19.097976684570312,-183.1036834716797,-180.2453155517578, -106.89485931396484
613,996025449,0.5231885,-0.1420275,-0.8255195,-0.15690665,49.854408264160156,-14.224879264831543,-4.157871246337891,220.51963806152344,-170.9073486328125, -59.41972351074219
614,996042116,0.4968174,-0.14189695,-0.84350574,-0.14675213,68.17513275146484,-11.865549087524414,4.059175491333008,51.037353515625,-224.16395568847656, -10.249786376953125
615,996058783,0.47061723,-0.15224099,-0.8576577,-0.1405896,12.021713256835938,14.260814666748047,-12.311861038208008,-11.766254425048828,-217.34019470214844, 40.59325408935547
616,996075450,0.4530669,-0.16119458,-0.86580324,-0.13831773,-18.108989715576172,3.3540236949920654,-10.351848602294922,-26.835174560546875,-141.3692626953125, 34.560813903808594
617,996092117,0.44392225,-0.16012189,-0.8715494,-0.13302577,-3.9908664226531982,-8.19068717956543,-12.944510459899902,29.429950714111328,-77.33256530761719, -5.013422966003418
618,996108784,0.43976355,-0.15867865,-0.8744701,-0.12935036,18.41437339782715,0.193739652633667,-9.608341217041016,23.653684616088867,-36.487518310546875, -4.551918983459473
619,996125451,0.4388816,-0.16060805,-0.87438387,-0.13054082,18.145763397216797,1.733466625213623,-9.354753494262695,-14.914416313171387,-5.437158584594727, 7.194403171539307
620,996142118,0.44034493,-0.1645266,-0.8721598,-0.13551691,17.322856903076172,-0.42178916931152344,-9.62990951538086,-42.99945831298828,17.454792022705078, 12.19118595123291
621,996158785,0.44690058,-0.16673084,-0.8677174,-0.13981205,15.195159912109375,-0.709530234336853,-9.65649700164795,-30.055652618408203,55.49494171142578, 11.205326080322266
622,996175452,0.4595234,-0.16804335,-0.86001724,-0.14481172,11.524775505065918,-1.4382281303405762,-9.897592544555664,-27.722116470336914,103.35631561279297, 13.264276504516602
623,996192119,0.4793314,-0.16816643,-0.8482729,-0.14964916,10.246770858764648,0.6843483448028564,-10.143888473510742,-18.763778686523438,159.65908813476562, 18.54366111755371
624,996208786,0.5100085,-0.16622403,-0.83021075,-0.15169427,16.54522705078125,-0.06621917337179184,-10.343671798706055,10.398423194885254,242.86366271972656, 34.18052291870117
625,996225453,0.5547629,-0.1630443,-0.80218595,-0.14883707,28.87717056274414,-0.5566361546516418,-5.846382141113281,48.4292106628418,353.9756164550781, 70.37346649169922
626,996242120,0.6117262,-0.15961668,-0.76148623,-0.14301217,43.534629821777344,-2.8195650577545166,4.3430585861206055,66.49317932128906,466.69677734375, 107.03719329833984
627,996258787,0.67243516,-0.15004629,-0.7141193,-0.123900056,36.205169677734375,-11.67089557647705,0.9815318584442139,159.580078125,505.6687316894531, 141.76087951660156
628,996275454,0.71724194,-0.124804735,-0.67956233,-0.09045934,27.186655044555664,10.720025062561035,-29.687288284301758,296.89898681640625,366.5767822265625, 104.10689544677734
629,996292121,0.7332682,-0.118736416,-0.66354585,-0.089030914,1.080134391784668,16.15424919128418,2.729738712310791,39.48360824584961,156.42115783691406, 2.0826380252838135
630,996308788,0.73502934,-0.11104005,-0.6645682,-0.075837076,-6.177837371826172,-2.6118969917297363,-18.43575096130371,100.226806640625,-3.2400174140930176, 31.562103271484375
631,996325455,0.7211213,-0.10998964,-0.6795907,-0.07773688,-1.5667173862457275,7.8343963623046875,-3.309739112854004,-6.9809889793396,-137.22213745117188, -33.26460266113281
632,996342122,0.7009072,-0.11937027,-0.6974574,-0.08962871,1.30338716506958,1.9453290700912476,-2.617514133453369,-108.60872650146484,-178.77745056152344, -39.48401641845703
633,996358789,0.67718583,-0.13759647,-0.71412,-0.111889735,4.881924629211426,-1.9325834512710571,1.3496171236038208,-204.6007080078125,-186.71498107910156, -48.1837272644043
634,996375456,0.655452,-0.15271315,-0.72806084,-0.13034047,3.2119340896606445,-8.562844276428223,5.369565486907959,-171.6227569580078,-165.50579833984375, -41.6176872253418
635,996392123,0.6389364,-0.16080932,-0.73919123,-0.13963239,1.6243255138397217,-5.522951126098633,6.599949359893799,-91.22266387939453,-130.11184692382812, -27.956954956054688
636,996408790,0.62840843,-0.16842148,-0.74516207,-0.14652856,-0.08750644326210022,-3.503932476043701,7.339182376861572,-75.28779602050781,-79.30238342285156, -8.505032539367676
637,996425457,0.62465656,-0.17515108,-0.74590033,-0.1508613,-2.0971455574035645,-3.5106990337371826,7.825120449066162,-55.79452133178711,-24.172183990478516, 10.891441345214844
638,996442124,0.6265546,-0.18112773,-0.74214965,-0.15438984,-1.4357764720916748,-1.5375925302505493,6.129819393157959,-46.31382369995117,23.775772094726562, 21.70301628112793
639,996458791,0.63266593,-0.18473001,-0.7357719,-0.15571913,-0.22965143620967865,-1.1048576831817627,4.031239986419678,-22.414196014404297,56.28232955932617, 26.78263282775879
640,996475458,0.6411093,-0.18483938,-0.7289239,-0.15324253,0.3149319291114807,-0.09303418546915054,3.2820420265197754,14.486563682556152,68.97000885009766, 28.74582862854004
641,996492125,0.6503234,-0.18224321,-0.7223653,-0.14851046,1.3372693061828613,1.5473291873931885,1.9336328506469727,39.005123138427734,71.48980712890625, 25.573699951171875
642,996508792,0.6594662,-0.17872676,-0.7158381,-0.1440037,1.490930438041687,1.685774326324463,0.8418182134628296,41.95562744140625,72.18609619140625, 19.908056259155273
643,996525459,0.6677649,-0.17462365,-0.7099035,-0.14012049,1.2424497604370117,1.599920392036438,-0.0034218630753457546,41.11237716674805,66.6787109375, 12.656944274902344
644,996542126,0.674929,-0.17041604,-0.7046792,-0.13731925,1.2183542251586914,1.3554178476333618,-0.2901298403739929,35.648555755615234,59.2816047668457, 5.260239601135254
645,996558793,0.6811226,-0.16642831,-0.6999745,-0.13568112,0.9606475234031677,0.8375755548477173,-0.3438105881214142,28.361865997314453,53.33127975463867, -0.5741928815841675
646,996575460,0.6865699,-0.16390376,-0.69514215,-0.13614295,0.8475698232650757,0.9349483847618103,0.09771324694156647,10.43511962890625,51.38722229003906, -3.902529716491699
647,996592127,0.6915431,-0.16315192,-0.68983805,-0.13882834,0.6125138401985168,0.024265587329864502,0.18659569323062897,-9.525983810424805,52.19804382324219, -5.825679302215576
648,996608794,0.69592375,-0.16346462,-0.68462485,-0.14233148,0.7635578513145447,-0.5749638080596924,-0.3837164044380188,-19.03923225402832,48.8603630065918, -5.333627700805664
649,996625461,0.69968796,-0.164226,-0.6798667,-0.14576636,0.8946440815925598,-0.3537430465221405,-1.04447340965271,-21.11370849609375,43.27974319458008, -4.019664764404297
650,996642128,0.7028631,-0.16510825,-0.6756367,-0.14912342,0.6867403984069824,-0.1923466920852661,-1.4776201248168945,-21.46546745300293,37.80112075805664, -4.2736735343933105
651,996658795,0.7062285,-0.16535224,-0.67145765,-0.15180436,0.1834437996149063,-1.323797345161438,-1.3368889093399048,-14.971442222595215,38.3590202331543, -3.838111400604248
652,996675462,0.71028435,-0.16338202,-0.6678401,-0.15097092,-0.023690465837717056,-2.7231788635253906,-1.3807646036148071,13.36967945098877,37.16602325439453, 3.0691421031951904
653,996692129,0.71391267,-0.15783863,-0.6665747,-0.14523739,1.1560455560684204,-1.4286949634552002,-1.536351203918457,55.26561737060547,21.949724197387695, 7.472579002380371
654,996708796,0.71624476,-0.1475589,-0.6683455,-0.13614069,2.9177892208099365,1.1032894849777222,-2.293379545211792,95.54794311523438,2.214449405670166, -2.326629877090454
655,996725463,0.7140424,-0.13729465,-0.67478275,-0.12634045,3.0881102085113525,0.6823222041130066,-4.323782444000244,98.48089599609375,-42.290184020996094, -7.743917465209961
656,996742130,0.707639,-0.12915827,-0.6845445,-0.11817039,2.8797929286956787,-0.10179851949214935,-0.9853410124778748,79.39494323730469,-78.33689880371094, -12.645913124084473
657,996758797,0.69657606,-0.12549818,-0.6971267,-0.11422141,5.001974105834961,1.6137570142745972,-4.283085823059082,35.90485382080078,-113.8602523803711, -18.39965057373047
658,996775464,0.6764466,-0.13173753,-0.71391606,-0.1240532,3.4251315593719482,7.940001487731934,-37.95294189453125,-82.09109497070312,-173.28990173339844, -47.68270492553711
659,996792131,0.620958,-0.14145441,-0.7575085,-0.14346714,28.847259521484375,29.372751235961914,-33.318607330322266,-154.5287322998047,-465.5431213378906, -129.61119079589844
660,996808798,0.57167715,-0.16638711,-0.782065,-0.18405183,51.513465881347656,4.101459980010986,42.567317962646484,-342.4215087890625,-345.7724609375, -115.69448852539062
661,996825465,0.546659,-0.15714386,-0.80218947,-0.18155436,25.635330200195312,-14.74370002746582,-11.35629653930664,46.15497589111328,-204.599853515625, -94.30135345458984
662,996842132,0.525659,-0.14496726,-0.8222413,-0.1630538,51.882469177246094,-11.053577423095703,0.910834550857544,149.52481079101562,-195.760498046875, -45.43008804321289
663,996858799,0.49911004,-0.15244253,-0.8389148,-0.15450685,41.84596252441406,4.104261875152588,-4.186171054840088,12.73020076751709,-227.3919677734375, 26.677902221679688
664,996875466,0.48038894,-0.16333306,-0.84839934,-0.1508894,4.993598937988281,8.114752769470215,-9.170146942138672,-26.842056274414062,-156.25245666503906, 45.29277420043945
665,996892133,0.46860498,-0.16778165,-0.85486156,-0.14652821,-9.386377334594727,-3.143751621246338,-12.724019050598145,3.5066161155700684,-99.84290313720703, 20.821348190307617
666,996908800,0.4628401,-0.16656047,-0.8592423,-0.14049728,3.3286125659942627,-5.18520975112915,-10.327695846557617,36.365814208984375,-53.69857406616211, 1.3340762853622437
667,996925467,0.4617338,-0.16652179,-0.86021644,-0.13820307,18.923643112182617,1.2021528482437134,-9.202712059020996,12.482471466064453,-12.080525398254395, 4.792006969451904
668,996942134,0.464827,-0.16759604,-0.85834104,-0.13819651,18.060333251953125,1.4845939874649048,-8.24665355682373,-2.483400344848633,23.321243286132812, 11.358318328857422
669,996958801,0.47033498,-0.17102334,-0.85417134,-0.14116468,17.666582107543945,-1.015061378479004,-8.68239974975586,-26.953218460083008,46.04853057861328, 20.67177963256836
670,996975468,0.48114356,-0.17387997,-0.84697944,-0.14454341,13.562114715576172,-0.15664143860340118,-8.508455276489258,-24.24935531616211,87.95614624023438, 24.667604446411133
671,996992135,0.4985461,-0.17615466,-0.83543056,-0.14992434,11.022631645202637,-0.9592662453651428,-10.519564628601074,-30.447412490844727,143.755615234375, 26.40317726135254
672,997008802,0.5258108,-0.1755139,-0.8179648,-0.15379201,11.9869384765625,-0.7372772097587585,-11.702082633972168,-5.942739009857178,221.95208740234375, 32.15924072265625
673,997025469,0.5658867,-0.17035812,-0.7917841,-0.15436405,19.795578002929688,-3.442661762237549,-9.668408393859863,35.158138275146484,326.4809875488281, 42.729915618896484
674,997042136,0.6208259,-0.1627201,-0.75233614,-0.14861962,36.60736083984375,-6.750796318054199,-0.04485630989074707,82.54349517822266,454.5048522949219, 85.08904266357422
675,997058803,0.687012,-0.14996774,-0.69905204,-0.1298094,55.37750244140625,-5.243441104888916,7.732783794403076,170.54107666015625,562.5531005859375, 141.37060546875
676,997075470,0.7384479,-0.1372851,-0.6523212,-0.1016101,36.04955291748047,15.014056205749512,-21.418354034423828,205.9685821533203,450.4223937988281, 166.03860473632812
677,997092137,0.7599382,-0.12207382,-0.63241994,-0.08739001,2.718381881713867,15.477027893066406,-8.755304336547852,146.548828125,194.83786010742188, 37.542572021484375
678,997108804,0.76576895,-0.09715932,-0.6327815,-0.06120264,-5.660487174987793,-0.5601292848587036,-15.980047225952148,248.43165588378906,16.76397705078125, 31.673404693603516
679,997125471,0.7539372,-0.09572192,-0.6464243,-0.067468606,-3.0298690795898438,14.147665977478027,-0.2731611728668213,-22.606182098388672,-117.96351623535156, -53.40361404418945
680,997142138,0.7372783,-0.11248051,-0.66044635,-0.087060384,1.0993425846099854,-6.774919509887695,-2.3780367374420166,-179.12245178222656,-141.10165405273438, -43.89634704589844
681,997158805,0.7233288,-0.13039856,-0.66959006,-0.106962346,2.749582529067993,-4.146932125091553,2.6982462406158447,-187.263427734375,-104.47191619873047, -34.885154724121094
682,997175472,0.7140943,-0.1480147,-0.6725915,-0.12562518,1.373343586921692,-5.086357593536377,1.4349594116210938,-180.36253356933594,-53.141387939453125, -21.170862197875977
683,997192139,0.70934296,-0.15820162,-0.6735051,-0.13489175,0.4233875572681427,-7.326142311096191,0.8226315975189209,-97.69269561767578,-25.32012367248535, -3.4484894275665283
684,997208806,0.7080674,-0.15958567,-0.67477167,-0.13362794,-0.054407838732004166,-4.583160877227783,2.0245139598846436,-1.938652753829956,-14.244414329528809, 9.8912935256958
685,997225473,0.7085964,-0.1579599,-0.67566925,-0.12810656,-0.22326992452144623,-1.3759078979492188,1.6572154760360718,34.07688903808594,-6.015636444091797, 18.6546688079834
