PacketCounter,SampleTimeFine,Quat_W,Quat_X,Quat_Y,Quat_Z,Acc_X,Acc_Y,Acc_Z,Gyr_X,Gyr_Y,Gyr_Z 
2,1988192622,0.84665453,0.2257229,-0.27145517,0.39816752,6.4331374168396,1.9465640783309937,7.707294940948486,85.11189270019531,-61.2786750793457, 26.20204734802246
3,1988209289,0.84222144,0.2316423,-0.27578124,0.40118563,10.2446928024292,4.905170440673828,5.729656219482422,46.473636627197266,-95.90812683105469, 25.61589813232422
4,1988225956,0.8320351,0.25552616,-0.29438046,0.39466983,10.741146087646484,2.1251637935638428,12.557788848876953,1.5169907808303833,-91.28533172607422, 19.05912971496582
5,1988242623,0.8236533,0.26836348,-0.30514646,0.39555314,7.695385456085205,-0.2433532327413559,17.8696231842041,35.74576950073242,-82.1287841796875, 22.847822189331055
6,1988259290,0.821634,0.2649692,-0.30307174,0.403555,8.55428695678711,4.1469550132751465,15.210965156555176,53.08380126953125,-80.71902465820312, 23.50789451599121
7,1988275957,0.8237702,0.25859874,-0.29858395,0.40666574,8.374467849731445,4.199047565460205,12.756531715393066,8.568839073181152,-71.55001831054688, 20.337467193603516
8,1988292624,0.8257251,0.25480407,-0.29470754,0.4079223,8.3815279006958,2.8713250160217285,12.273910522460938,0.47124963998794556,-66.75247192382812, 18.142866134643555
9,1988309291,0.82663995,0.2539546,-0.29040417,0.40968165,8.3375883102417,2.7030107975006104,13.719339370727539,18.394668579101562,-55.56645584106445, 15.135345458984375
10,1988325958,0.8274601,0.2537021,-0.2847869,0.41211838,7.778769493103027,2.9025392532348633,14.958955764770508,27.380096435546875,-41.43986511230469, 13.758648872375488
11,1988342625,0.828846,0.25217232,-0.2775847,0.41517505,6.969089031219482,2.3231024742126465,14.322770118713379,25.13690948486328,-25.479244232177734, 15.143868446350098
12,1988359292,0.8299323,0.25027364,-0.26962596,0.41937783,6.9073262214660645,2.0452206134796143,11.373373031616211,28.995718002319336,-15.628963470458984, 20.3389892578125
13,1988375959,0.83053917,0.24918886,-0.2616576,0.42384556,7.1867289543151855,3.1533291339874268,9.392168045043945,34.068626403808594,-7.078019618988037, 19.8759708404541
14,1988392626,0.8310614,0.24777213,-0.2550336,0.42767256,7.450352668762207,3.019611358642578,8.462747573852539,22.830615997314453,-1.473221778869629, 19.894699096679688
15,1988409293,0.83121747,0.24673343,-0.24914165,0.43142623,7.755227088928223,3.1364481449127197,9.368941307067871,20.16763687133789,4.679563522338867, 20.728900909423828
16,1988425960,0.8314861,0.2452067,-0.24423243,0.43457487,7.521461486816406,3.3148138523101807,9.862020492553711,11.281049728393555,7.978222846984863, 18.911252975463867
17,1988442627,0.8320897,0.24238375,-0.24072021,0.4369561,8.352978706359863,3.6794958114624023,8.752045631408691,-3.5901622772216797,8.518481254577637, 17.739707946777344
18,1988459294,0.8327017,0.23960602,-0.2382639,0.4386656,8.298914909362793,3.1932389736175537,7.911887168884277,-9.528897285461426,7.860464572906494, 15.26572036743164
19,1988475961,0.8330273,0.23789786,-0.23652114,0.439918,8.187983512878418,3.3088912963867188,7.517632961273193,-6.863670825958252,5.172981262207031, 12.201712608337402
20,1988492628,0.8329571,0.23750372,-0.23592216,0.44058514,8.304588317871094,3.2785990238189697,5.378252029418945,-4.062534809112549,-2.244121551513672, 9.342204093933105
21,1988509295,0.8324536,0.23828979,-0.23634006,0.44088835,9.89004898071289,4.010101795196533,5.853969573974609,-1.416792631149292,-7.573973178863525, 7.9098005294799805
22,1988525962,0.8315728,0.24064504,-0.23772319,0.4405274,10.063925743103027,3.63509464263916,7.4792375564575195,2.830442190170288,-14.40502643585205, 4.117199897766113
23,1988542629,0.8303871,0.24421056,-0.23884499,0.44019482,10.853433609008789,4.235179901123047,7.282970905303955,10.769146919250488,-14.034930229187012, 2.349576711654663
24,1988559296,0.8299102,0.2461281,-0.24046794,0.43914166,9.84968376159668,4.062789440155029,7.255667209625244,-3.171710968017578,-9.059675216674805, -0.5496102571487427
25,1988575963,0.8301053,0.24706002,-0.24179108,0.43751988,9.845568656921387,3.733137845993042,6.9216718673706055,-10.290674209594727,-2.7487175464630127, -4.792560577392578
26,1988592630,0.831506,0.24648549,-0.24237914,0.43485072,9.551713943481445,3.9888007640838623,7.3424530029296875,-20.54008674621582,7.411967754364014, -13.390771865844727
27,1988609297,0.8343671,0.24471737,-0.2417282,0.43071178,9.05744457244873,3.2990736961364746,8.025114059448242,-28.726058959960938,18.503856658935547, -26.321409225463867
28,1988625964,0.83786297,0.24465312,-0.23830204,0.42584363,8.985066413879395,3.1605193614959717,7.381417751312256,-12.695257186889648,28.99469566345215, -40.2169075012207
29,1988642631,0.84293085,0.24232085,-0.23318906,0.41996568,9.426478385925293,2.983429431915283,7.375539779663086,-24.88720703125,46.237022399902344, -50.15481185913086
30,1988659298,0.8491981,0.23771621,-0.22620173,0.41374713,9.376656532287598,1.793668508529663,7.7287702560424805,-34.92061233520508,65.2187728881836, -55.58001708984375
31,1988675965,0.8560879,0.23195013,-0.2169513,0.40773138,9.411863327026367,1.2432583570480347,7.866852283477783,-35.185482025146484,83.1257553100586, -58.92841339111328
32,1988692632,0.86320937,0.22625795,-0.20507874,0.40202004,8.892594337463379,0.6727447509765625,7.326588153839111,-26.41227149963379,99.3364028930664, -63.034019470214844
33,1988709299,0.87048596,0.2195614,-0.19102094,0.3969362,8.319392204284668,0.3376704752445221,7.485396862030029,-24.7410888671875,116.47821044921875, -62.677032470703125
34,1988725966,0.8776355,0.21195582,-0.17485894,0.39275342,7.958759307861328,-0.09488622844219208,7.506328105926514,-22.072303771972656,132.8067626953125, -59.77634048461914
35,1988742633,0.88457954,0.20329821,-0.15687343,0.38933244,7.9226155281066895,0.01828932575881481,7.483978748321533,-21.22545623779297,147.5887451171875, -56.80443572998047
36,1988759300,0.89113516,0.19352444,-0.13752262,0.38667038,7.150857448577881,-0.7250865697860718,7.320372581481934,-22.08350944519043,159.73562622070312, -52.482295989990234
37,1988775967,0.89733434,0.18242687,-0.11693709,0.38449618,6.292879581451416,-0.18953925371170044,7.3558878898620605,-24.905160903930664,171.2504119873047, -49.47576904296875
38,1988792634,0.9029826,0.17000413,-0.09553359,0.3828766,5.452293395996094,-0.8722079396247864,6.583129405975342,-28.988292694091797,180.02761840820312, -44.81229782104492
39,1988809301,0.9080463,0.15642054,-0.07362798,0.38152784,4.925121784210205,-0.12667378783226013,6.385405540466309,-33.146949768066406,186.0858612060547, -41.56980895996094
40,1988825968,0.91241187,0.14118397,-0.05168329,0.3806582,4.739937782287598,-0.3348987400531769,6.702083587646484,-41.84565734863281,190.77220153808594, -35.894527435302734
41,1988842635,0.9158523,0.12481759,-0.029595604,0.38047248,5.150001525878906,0.06339351832866669,6.849133014678955,-46.86846923828125,194.95184326171875, -28.78943634033203
42,1988859302,0.91826135,0.10719761,-0.00802035,0.38110435,5.277552604675293,0.15591660141944885,6.933863639831543,-54.67280960083008,195.70574951171875, -20.056808471679688
43,1988875969,0.9195781,0.089382574,0.012558492,0.3823997,5.158117294311523,0.472434937953949,6.837446689605713,-57.371177673339844,190.6721649169922, -12.025018692016602
44,1988892636,0.9197706,0.07284921,0.032311507,0.38428015,4.280505180358887,0.4754633605480194,7.11100435256958,-50.63819122314453,182.8751678466797, -4.491987705230713
45,1988909303,0.9191072,0.058141544,0.05108208,0.3863321,3.11802339553833,0.7418073415756226,6.756799697875977,-41.17008590698242,172.25991821289062, 0.016963884234428406
46,1988925970,0.9178264,0.04499435,0.06883083,0.38837188,2.5957448482513428,1.0817145109176636,6.077301025390625,-33.766693115234375,161.77842712402344, 2.797553777694702
47,1988942637,0.9161024,0.033122953,0.08563782,0.3902892,2.003096580505371,1.0407285690307617,6.315208435058594,-28.15804100036621,152.44161987304688, 4.322310447692871
48,1988959304,0.91433704,0.022860868,0.10069171,0.39156926,1.3794293403625488,1.8542832136154175,5.516477584838867,-22.462215423583984,136.73336791992188, 1.9473307132720947
49,1988975971,0.9127621,0.01330269,0.113577574,0.392159,0.45315226912498474,1.5326093435287476,5.166903495788574,-23.763511657714844,120.64982604980469, -1.951804518699646
50,1988992638,0.91135275,0.0058480864,0.1243641,0.39234668,-0.47023046016693115,0.8318056464195251,4.6067914962768555,-16.19517707824707,101.1766357421875, -2.977778673171997
51,1989009305,0.9100461,0.00041171114,0.13298085,0.39259654,-1.0699254274368286,0.37949272990226746,4.75231409072876,-9.593360900878906,81.45064544677734, -0.9458993673324585
52,1989025972,0.90889794,-0.0028490094,0.13943283,0.3930077,-1.4951977729797363,0.6308842301368713,4.051816463470459,-2.008395195007324,61.25042724609375, 1.7247116565704346
53,1989042639,0.9079601,-0.0043318584,0.14355794,0.3936764,-2.0150041580200195,0.31880319118499756,3.793888807296753,2.478536605834961,41.019222259521484, 4.478874683380127
54,1989059306,0.9074478,-0.0035085334,0.14554736,0.39413488,-2.1499876976013184,0.8752443790435791,3.520256519317627,11.276928901672363,20.31304168701172, 4.276605606079102
55,1989075973,0.9072805,-0.002433277,0.14472026,0.39483243,-2.032132625579834,1.1305298805236816,3.251108169555664,4.8495988845825195,1.0172598361968994, 5.031308650970459
56,1989092640,0.90743184,-0.0010060376,0.14100322,0.3958342,-2.365650177001953,1.2712244987487793,2.8135862350463867,-1.2693288326263428,-18.911970138549805, 6.377103805541992
57,1989109307,0.9079684,0.0011803948,0.13423873,0.39695343,-1.9479951858520508,2.2679357528686523,2.5605626106262207,-5.128744125366211,-41.014163970947266, 6.7956743240356445
58,1989125974,0.9092773,0.0031778452,0.120696954,0.39829254,-2.060962438583374,2.182682514190674,-5.30565071105957,-25.35702133178711,-84.06442260742188, 5.93947172164917
59,1989142641,0.91221404,0.01396351,0.094218984,0.39848897,5.417118549346924,2.331099510192871,-21.249046325683594,-5.381820201873779,-191.2129669189453, 1.9363458156585693
60,1989159308,0.91526806,0.015521738,0.05707042,0.39848036,11.59534740447998,0.8063144683837891,4.690703392028809,-92.98698425292969,-233.83543395996094, -4.5226898193359375
61,1989175975,0.91672647,0.020076757,0.02413948,0.39827994,-0.17818540334701538,-2.369277238845825,13.545207023620605,-62.142242431640625,-215.42640686035156, -0.4300750195980072
62,1989192642,0.9177262,0.025963522,-0.009507054,0.39624998,4.959751129150391,-2.4092373847961426,-3.151733875274658,-54.901973724365234,-225.63478088378906, -10.194079399108887
63,1989209309,0.91719735,0.029508863,-0.040655337,0.39525354,-2.057807445526123,-1.9737054109573364,4.688155174255371,-62.39281463623047,-204.29591369628906, 0.2663188874721527
64,1989225976,0.9163928,0.035420064,-0.06659827,0.3931088,1.767813801765442,3.9972052574157715,3.425553560256958,-33.547630310058594,-179.02247619628906, -7.9136128425598145
65,1989242643,0.9153186,0.041305576,-0.08889344,0.39061967,4.511791706085205,0.35481053590774536,6.878259181976318,-24.105302810668945,-156.4601287841797, -10.19687271118164
66,1989259310,0.91424197,0.051725395,-0.10650972,0.38748127,6.604196071624756,0.4675191044807434,8.853461265563965,16.617280960083008,-139.48619079589844, -18.377567291259766
67,1989275977,0.9125201,0.06142397,-0.12365199,0.38502508,6.881818771362305,-2.965366840362549,9.110769271850586,14.0825834274292,-134.85897827148438, -12.010387420654297
68,1989292644,0.9103919,0.072380826,-0.13890304,0.38295358,8.591060638427734,-1.4379061460494995,6.761721134185791,27.53497314453125,-126.54165649414062, -10.404803276062012
69,1989309311,0.90773183,0.080538794,-0.15350412,0.382064,7.487916946411133,-0.5277171730995178,7.741195201873779,13.127375602722168,-115.02105712890625, 0.7384937405586243
70,1989325978,0.9052715,0.08661772,-0.16639876,0.38117254,7.2240376472473145,-0.5605674982070923,7.853212833404541,4.517857074737549,-98.71907043457031, 1.4538843631744385
71,1989342645,0.9026256,0.09406186,-0.175889,0.381422,8.591426849365234,0.17227935791015625,7.8962788581848145,23.351049423217773,-80.65827178955078, 5.452062129974365
72,1989359312,0.8997288,0.10260301,-0.18358009,0.3824383,9.722315788269043,0.8602533340454102,10.086564064025879,35.9598388671875,-72.1784896850586, 8.379598617553711
73,1989375979,0.89659965,0.11195762,-0.1900828,0.38398328,10.291770935058594,1.1753243207931519,9.717859268188477,44.93873977661133,-66.88684844970703, 10.396967887878418
74,1989392646,0.8934063,0.12083884,-0.19507365,0.3862247,9.682079315185547,1.4979294538497925,10.612914085388184,46.96406173706055,-55.85987854003906, 14.316171646118164
75,1989409313,0.89001745,0.1298914,-0.19862933,0.38928634,9.835843086242676,2.2334280014038086,10.256585121154785,53.08306884765625,-47.085208892822266, 18.45079803466797
76,1989425980,0.8864951,0.13900037,-0.20156649,0.39265302,9.825671195983887,2.576279640197754,10.997286796569824,55.61146926879883,-43.362403869628906, 20.05023765563965
77,1989442647,0.88276505,0.14801797,-0.2046287,0.3961611,8.873835563659668,2.5953760147094727,9.982885360717773,55.102149963378906,-44.03489685058594, 21.718915939331055
78,1989459314,0.87913525,0.15606903,-0.20813052,0.3993061,8.6220064163208,1.5567436218261719,10.653003692626953,47.41924285888672,-44.30520248413086, 21.051570892333984
79,1989475981,0.8780945,0.16541785,-0.20785125,0.39797616,10.645075798034668,2.6799240112304688,13.093287467956543,74.2120590209961,-21.946523666381836, 11.666882514953613
80,1989492648,0.8767269,0.17587052,-0.20659891,0.3971606,7.516574859619141,2.0263586044311523,11.943341255187988,78.67220306396484,-19.990650177001953, 2.293177366256714
81,1989509315,0.87245417,0.18925022,-0.21042207,0.39841032,7.050505638122559,1.2935833930969238,12.07433795928955,82.34691619873047,-61.830055236816406, 13.239636421203613
82,1989525982,0.8664749,0.20334187,-0.21791762,0.40048167,8.143034934997559,2.832041025161743,10.470250129699707,75.76141357421875,-88.4756088256836, 19.571514129638672
83,1989542649,0.8596339,0.21662298,-0.2276552,0.40283635,9.618474006652832,2.9780967235565186,9.833721160888672,62.29279327392578,-101.83985137939453, 21.93513298034668
84,1989559316,0.85351914,0.22542678,-0.23829153,0.40485173,9.379528999328613,1.4452563524246216,12.646864891052246,30.497549057006836,-94.50492858886719, 24.88979721069336
85,1989575983,0.8462871,0.23684908,-0.24770375,0.40785262,8.638039588928223,1.8467190265655518,15.216080665588379,51.80858612060547,-95.17459106445312, 26.9011173248291
86,1989592650,0.8394302,0.2464914,-0.2582091,0.40978935,9.141263961791992,3.984780788421631,13.234238624572754,37.18214416503906,-97.26978302001953, 26.315637588500977
87,1989609317,0.83409613,0.25114176,-0.269888,0.41033167,9.649580955505371,3.555802345275879,12.271395683288574,-0.07356191426515579,-89.63088989257812, 25.028615951538086
88,1989625984,0.82951576,0.25481972,-0.2810021,0.40988854,9.123409271240234,3.274592638015747,13.442580223083496,-3.1631479263305664,-82.72737884521484, 22.609588623046875
89,1989642651,0.8253032,0.258194,-0.29077438,0.40946427,8.769036293029785,3.3805084228515625,14.187429428100586,-1.719851016998291,-73.4986572265625, 19.92120361328125
90,1989659318,0.82132465,0.26206097,-0.29815042,0.40970272,8.483449935913086,2.904871702194214,14.943477630615234,8.733610153198242,-59.67703628540039, 17.790372848510742
91,1989675985,0.81709117,0.26698312,-0.30342293,0.41111642,8.056180953979492,2.5646119117736816,13.25015640258789,23.493263244628906,-49.21563720703125, 19.19635009765625
92,1989692652,0.8126054,0.27233496,-0.30720294,0.41368198,8.360878944396973,2.875218629837036,10.262927055358887,32.99691390991211,-40.48478698730469, 22.747220993041992
93,1989709319,0.80824095,0.2772906,-0.31054738,0.41643354,9.547934532165527,4.027196884155273,8.375804901123047,32.1837272644043,-36.320499420166016, 23.465641021728516
94,1989725986,0.8043115,0.2815379,-0.3132602,0.41915134,9.295351028442383,3.059849739074707,8.514239311218262,29.13981819152832,-29.897018432617188, 22.350475311279297
95,1989742653,0.80001664,0.28681916,-0.31554094,0.42206883,9.792943000793457,3.7880141735076904,9.226261138916016,37.23567199707031,-30.875314712524414, 21.44683265686035
96,1989759320,0.7962657,0.2906208,-0.31834927,0.4244458,9.728804588317871,4.526613712310791,9.147358894348145,25.31336212158203,-29.363304138183594, 21.151464462280273
97,1989775987,0.79346806,0.2931291,-0.32089046,0.42604366,9.676405906677246,4.138665199279785,8.985709190368652,15.391016960144043,-23.593814849853516, 16.41336441040039
98,1989792654,0.7910706,0.29554683,-0.3225774,0.42755502,9.318502426147461,3.5020604133605957,8.004449844360352,16.39493179321289,-17.957727432250977, 13.254576683044434
99,1989809321,0.78973264,0.29550725,-0.32445246,0.428636,10.435897827148438,5.006706714630127,7.345635890960693,-0.6347729563713074,-10.275838851928711, 13.634293556213379
100,1989825988,0.7908414,0.28980207,-0.3277828,0.4279524,10.182204246520996,4.093719005584717,6.107261657714844,-44.610477447509766,0.41014567017555237, 12.44978141784668
101,1989842655,0.7930834,0.2824792,-0.33042455,0.4266659,9.917119026184082,3.3602168560028076,6.152529716491699,-55.00923156738281,10.291906356811523, 8.114981651306152
102,1989859322,0.79584414,0.27594465,-0.33130616,0.42511505,9.570015907287598,3.3111839294433594,6.348341941833496,-47.16123580932617,18.261804580688477, -0.05847431719303131
103,1989875989,0.79944825,0.26994818,-0.33006048,0.42316714,9.382440567016602,3.286494493484497,6.979455947875977,-40.50963592529297,29.51044464111328, -9.956130981445312
104,1989892656,0.8036636,0.26589516,-0.32590863,0.42096123,9.17367935180664,3.093510150909424,6.670429229736328,-23.09812355041504,40.74429702758789, -22.95454978942871
105,1989909323,0.8092645,0.26103184,-0.3197346,0.41799915,9.229569435119629,2.813690185546875,6.389249801635742,-25.955652236938477,55.993988037109375, -33.02374267578125
106,1989925990,0.8159677,0.25582424,-0.31104583,0.41473052,9.170963287353516,2.0363900661468506,6.498735427856445,-23.301124572753906,72.86235809326172, -41.65693283081055
107,1989942657,0.8237835,0.24928933,-0.30040634,0.41108617,9.3510103225708,1.6984604597091675,6.360836505889893,-27.94335174560547,89.3248519897461, -47.539981842041016
108,1989959324,0.8324868,0.24160597,-0.28775123,0.40717545,9.185615539550781,1.2400912046432495,6.786759376525879,-30.818592071533203,105.38488006591797, -52.65338134765625
109,1989975991,0.8416023,0.23342533,-0.27288902,0.40342265,8.640298843383789,0.9160043001174927,6.872445106506348,-27.849519729614258,120.50763702392578, -55.602012634277344
110,1989992658,0.851149,0.22424303,-0.25590792,0.3997145,8.188116073608398,0.8768885135650635,7.235971450805664,-28.365320205688477,136.44627380371094, -58.077632904052734
111,1990009325,0.8606975,0.2143946,-0.23673508,0.3964741,7.478167533874512,0.0445128008723259,7.059823513031006,-25.408191680908203,151.8438720703125, -57.567806243896484
112,1990025992,0.8699798,0.20406614,-0.21544312,0.39379764,7.139606952667236,0.004180707037448883,6.58030891418457,-21.14108657836914,166.10791015625, -55.86529541015625
113,1990042659,0.878931,0.19218633,-0.19286622,0.3915962,6.740991115570068,-0.2583964467048645,6.729710102081299,-25.754959106445312,178.1951446533203, -51.64765548706055
114,1990059326,0.8870466,0.1801717,-0.16916674,0.3899607,6.181835174560547,-0.3588102459907532,5.714071273803711,-21.670345306396484,185.0050506591797, -47.29607391357422
115,1990075993,0.8943861,0.16751806,-0.14475271,0.38866183,5.452896595001221,-0.37362807989120483,5.142920017242432,-22.279569625854492,190.6215362548828, -43.31489944458008
116,1990092660,0.9007934,0.15425971,-0.11987174,0.38782263,4.890275478363037,-0.3008454740047455,5.493701457977295,-23.202014923095703,194.73985290527344, -37.939308166503906
117,1990109327,0.90628535,0.14017846,-0.094577044,0.38736573,4.9904704093933105,0.3953091502189636,6.631319046020508,-25.89395523071289,199.17227172851562, -32.89528274536133
118,1990125994,0.9107641,0.12542728,-0.06900493,0.38731804,4.993556022644043,0.1815338432788849,6.822600841522217,-28.078582763671875,202.44700622558594, -27.477415084838867
119,1990142661,0.9141371,0.11117807,-0.043279484,0.387453,5.111998558044434,0.37570658326148987,6.573914527893066,-23.474821090698242,201.7342529296875, -23.759817123413086
120,1990159328,0.9163725,0.09804407,-0.018086247,0.38771352,4.803854942321777,0.4487220048904419,6.497391223907471,-16.969003677368164,195.21475219726562, -19.86395835876465
121,1990175995,0.91746724,0.08569413,0.005747941,0.3884294,3.7074599266052246,0.5439026355743408,6.079806327819824,-14.821736335754395,184.76560974121094, -13.13601016998291
122,1990192662,0.9177137,0.07282163,0.027713759,0.38952664,2.855442762374878,1.6425215005874634,6.569806098937988,-22.62187385559082,174.659912109375, -7.381773948669434
123,1990209329,0.9172224,0.06024699,0.048120074,0.39084303,2.7230937480926514,1.6351687908172607,5.962158203125,-24.6071834564209,164.2891845703125, -3.1818935871124268
124,1990225996,0.9161706,0.048926465,0.06699627,0.39210892,1.868455171585083,1.7233617305755615,6.462881565093994,-20.577363967895508,151.45449829101562, -0.9446357488632202
125,1990242663,0.9148698,0.039743308,0.08401711,0.39290577,1.278566598892212,1.695348858833313,5.202977657318115,-11.831682205200195,133.97195434570312, -1.6204779148101807
126,1990259330,0.9134757,0.03191705,0.099048086,0.39336154,0.3022371828556061,1.3393394947052002,5.034311771392822,-8.468179702758789,117.75334930419922, -2.188187837600708
127,1990275997,0.91218555,0.02628085,0.1123583,0.39319566,-0.5232877135276794,1.2793073654174805,4.314454078674316,1.0212597846984863,100.80438995361328, -4.505666255950928
128,1990292664,0.91112196,0.023523932,0.12352821,0.39248517,-1.2024916410446167,0.9962261319160461,3.4143450260162354,13.660380363464355,79.29938507080078, -5.923585414886475
129,1990309331,0.9103341,0.02259817,0.13172802,0.39170012,-1.6711095571517944,1.2336022853851318,3.231729507446289,17.12601661682129,55.46907424926758, -5.099025249481201
130,1990325998,0.9099258,0.022719024,0.1364484,0.39102533,-1.8990099430084229,1.113200068473816,3.263118028640747,14.133868217468262,30.504472732543945, -3.9410295486450195
131,1990342665,0.9100671,0.023755359,0.1378448,0.3901443,-1.924790859222412,1.8242878913879395,3.512979030609131,11.021985054016113,6.657769203186035, -5.328315734863281
132,1990359332,0.9106716,0.024821525,0.13595568,0.38932928,-2.298677921295166,1.8625224828720093,4.54344367980957,2.2344088554382324,-14.446611404418945, -5.594010353088379
133,1990375999,0.91157615,0.026316984,0.13158612,0.38861513,-2.323864698410034,1.8042867183685303,5.399292945861816,-1.8827576637268066,-31.42842674255371, -4.938773155212402
134,1990392666,0.9125649,0.027570194,0.12562223,0.38818082,-2.3375895023345947,1.5489234924316406,6.731044769287109,-7.944953918457031,-40.832847595214844, -3.3379058837890625
135,1990409333,0.9135067,0.028699385,0.119310506,0.38787514,-2.147230863571167,2.1650686264038086,8.13049030303955,-9.759963989257812,-42.64653396606445, -2.4418413639068604
136,1990426000,0.9143862,0.026230315,0.11079203,0.38850352,-2.398421287536621,1.8807860612869263,5.981243133544922,-39.0140380859375,-46.69215774536133, 1.076829433441162
137,1990442667,0.91528845,0.019245172,0.0951689,0.3909214,-1.5420132875442505,1.9482593536376953,-4.252773761749268,-87.77037048339844,-79.02557373046875, 10.113578796386719
138,1990459334,0.9172167,0.017558226,0.062374506,0.3930836,11.098258018493652,0.03672298789024353,-22.390296936035156,-100.61137390136719,-202.11756896972656, 11.494161605834961
139,1990476001,0.9188853,0.011118234,0.024839614,0.39358535,7.142215251922607,-3.2372517585754395,10.413886070251465,-142.7158966064453,-219.07032775878906, 0.25332579016685486
140,1990492668,0.9190698,0.014812731,-0.005336558,0.39378014,3.2639925479888916,-3.8397276401519775,7.682534694671631,-58.492122650146484,-199.5642547607422, 3.514937400817871
141,1990509335,0.9191999,0.015853817,-0.03974541,0.3914595,5.535273551940918,-0.6160843372344971,-3.4672491550445557,-86.71576690673828,-219.33013916015625, -11.696980476379395
142,1990526002,0.917993,0.016865063,-0.0708671,0.38984925,-2.4320926666259766,0.9580636620521545,7.572807312011719,-77.7015151977539,-198.62083435058594, -3.945296287536621
143,1990542669,0.9168748,0.02286845,-0.09679564,0.38658586,2.4856340885162354,3.760507345199585,5.943539142608643,-33.105350494384766,-179.47314453125, -17.64221954345703
144,1990559336,0.91587776,0.031673353,-0.1196552,0.38190004,5.201315879821777,3.0150625705718994,9.26292610168457,-8.346675872802734,-167.68890380859375, -29.25459098815918
145,1990576003,0.91428035,0.036937535,-0.14070071,0.37806153,7.176125526428223,0.9562455415725708,9.30389404296875,-25.13208770751953,-147.20587158203125, -19.794063568115234
146,1990592670,0.9119962,0.04363524,-0.15974627,0.37528703,8.927520751953125,-2.3991241455078125,7.160581588745117,-9.743907928466797,-138.64572143554688, -13.190999984741211
147,1990609337,0.9092341,0.051790603,-0.17634362,0.3735158,8.78360652923584,-2.5093579292297363,6.213139057159424,7.017007827758789,-127.11865997314453, -8.008757591247559
148,1990626004,0.90650845,0.05836215,-0.19027926,0.37233102,7.96635627746582,-2.8041369915008545,7.238396644592285,4.709702968597412,-106.00311279296875, -3.4778432846069336
149,1990642671,0.90348536,0.06541836,-0.20209825,0.37227806,9.553815841674805,-2.8521056175231934,8.68373966217041,14.815260887145996,-93.87519073486328, 2.82784104347229
150,1990659338,0.9001821,0.07346195,-0.21222079,0.37314585,9.927011489868164,-2.455857276916504,8.533866882324219,26.76214599609375,-85.73956298828125, 7.096667766571045
151,1990676005,0.8966065,0.08233728,-0.22066374,0.37500006,10.483470916748047,-0.8975964784622192,10.125810623168945,37.84822082519531,-77.32868957519531, 11.80232048034668
152,1990692672,0.8927357,0.09178785,-0.22784115,0.3777387,11.044699668884277,-0.2451113611459732,11.105626106262207,46.17579650878906,-70.96603393554688, 16.405214309692383
153,1990709339,0.88859636,0.10351201,-0.23272066,0.38147494,9.693604469299316,-0.0036070123314857483,11.502635955810547,67.82707977294922,-62.601558685302734, 18.197832107543945
154,1990726006,0.8840982,0.1185137,-0.23564641,0.38574067,9.407374382019043,1.1099779605865479,11.234704971313477,94.07270812988281,-59.560821533203125, 15.71927261352539
155,1990742673,0.8796913,0.13447961,-0.23864797,0.3887232,9.148367881774902,1.879204273223877,9.533463478088379,104.4332504272461,-63.100608825683594, 17.09108543395996
156,1990759340,0.87494606,0.14924164,-0.24243407,0.39169157,9.469507217407227,2.225876808166504,10.652976989746094,94.5625991821289,-65.10725402832031, 19.005165100097656
157,1990776007,0.8699731,0.16311564,-0.2461948,0.39487794,9.273897171020508,2.6450297832489014,11.822381019592285,88.01272583007812,-62.87297821044922, 19.308818817138672
158,1990792674,0.8654946,0.17703387,-0.24525799,0.39928275,10.70606803894043,2.026721239089966,14.81015396118164,100.45964050292969,-33.00117874145508, 16.82561683654785
159,1990809341,0.85986775,0.19012667,-0.24709699,0.40425557,6.861344337463379,2.773037910461426,9.335137367248535,89.53775787353516,-48.677364349365234, 27.015289306640625
160,1990826008,0.8528622,0.20282273,-0.25632116,0.4071713,8.330690383911133,5.414880752563477,4.495999813079834,63.76227569580078,-96.580078125, 27.391204833984375
161,1990842675,0.8468065,0.21021967,-0.26949534,0.40755227,12.21781063079834,3.030914783477783,8.018547058105469,13.873477935791016,-107.1591796875, 22.437339782714844
162,1990859342,0.8411676,0.21861742,-0.2801182,0.40764847,9.405157089233398,0.7894490957260132,16.30300521850586,24.108173370361328,-95.04522705078125, 12.38691234588623
163,1990876009,0.8350431,0.23046185,-0.2880317,0.40820128,7.781145095825195,2.716261863708496,17.74264907836914,56.5648307800293,-88.75543212890625, 9.349906921386719
164,1990892676,0.8310627,0.23614214,-0.29730478,0.40642574,8.189764976501465,5.495070457458496,13.31496524810791,9.367521286010742,-78.85637664794922, 4.339829444885254
165,1990909343,0.8286241,0.2378048,-0.30692595,0.40327126,8.874527931213379,2.7712368965148926,10.807278633117676,-19.90876579284668,-68.78564453125, 0.9712831377983093
166,1990926010,0.8253221,0.2419531,-0.3145159,0.40172386,8.927674293518066,1.1188199520111084,12.052261352539062,4.691448211669922,-63.33613967895508, 3.961040735244751
167,1990942677,0.82120377,0.24978165,-0.31898844,0.4018459,8.612443923950195,2.286405324935913,13.674156188964844,39.17693328857422,-54.84980392456055, 2.532771587371826
168,1990959344,0.81709623,0.25803688,-0.32144934,0.40303978,8.626760482788086,2.9151792526245117,13.05648136138916,49.489845275878906,-42.876163482666016, 4.16787052154541
169,1990976011,0.8131979,0.26529962,-0.32290396,0.40504122,8.108875274658203,2.268707513809204,11.761035919189453,48.12128829956055,-32.63618469238281, 8.542930603027344
170,1990992678,0.8093507,0.27192575,-0.3237774,0.40764704,8.164022445678711,2.635859251022339,10.4254789352417,47.43855667114258,-26.442594528198242, 12.135549545288086
171,1991009345,0.8057611,0.27750936,-0.32414687,0.41069067,8.585593223571777,2.663930654525757,9.512353897094727,43.54549789428711,-19.349885940551758, 15.234342575073242
172,1991026012,0.80233574,0.282732,-0.32399973,0.4139374,9.028593063354492,2.865450859069824,9.261602401733398,43.143646240234375,-14.723299026489258, 15.718802452087402
173,1991042679,0.7993456,0.28678742,-0.32411614,0.4168316,9.033455848693848,2.975755453109741,8.86133098602295,34.32141876220703,-12.574073791503906, 15.651756286621094
174,1991059346,0.7971563,0.28949395,-0.3244994,0.41885027,9.277946472167969,3.7468271255493164,8.624277114868164,22.610841751098633,-10.115774154663086, 12.080921173095703
175,1991076013,0.7963129,0.28921387,-0.32538787,0.41995704,9.426280975341797,3.5238494873046875,9.140899658203125,0.062053196132183075,-3.0923378467559814, 10.886305809020996
176,1991092680,0.79619724,0.28763616,-0.326295,0.42055574,9.88392162322998,3.187647581100464,8.390706062316895,-9.685640335083008,1.1668578386306763, 8.950550079345703
177,1991109347,0.7969947,0.28545594,-0.32651412,0.42036092,10.748536109924316,4.3522114753723145,7.12592077255249,-14.585484504699707,7.165716171264648, 1.9577661752700806
178,1991126014,0.7995585,0.2801692,-0.32631424,0.4192024,10.082878112792969,3.6377856731414795,7.469953536987305,-36.04891586303711,20.549776077270508, -2.26499605178833
179,1991142681,0.8027335,0.27475962,-0.3243828,0.41821298,9.837876319885254,3.2084693908691406,7.237431526184082,-32.543174743652344,32.14000701904297, -6.152446269989014
180,1991159348,0.8067244,0.26938897,-0.32040748,0.41709003,9.66261100769043,3.2370052337646484,7.480296611785889,-28.299129486083984,44.898799896240234, -13.18358325958252
181,1991176015,0.81120497,0.2652974,-0.3138885,0.4159784,9.346442222595215,2.4938457012176514,7.500715732574463,-14.800154685974121,56.45619583129883, -22.05410385131836
182,1991192682,0.8160419,0.26292908,-0.3050363,0.41460449,8.955757141113281,2.7430248260498047,6.769348621368408,0.26903441548347473,64.84859466552734, -32.51958084106445
183,1991209349,0.8219812,0.25956354,-0.2947162,0.41245157,9.043076515197754,2.6966238021850586,6.8192620277404785,-4.7713117599487305,76.85456085205078, -40.60043716430664
184,1991226016,0.8289526,0.2547521,-0.2829101,0.40975732,8.963181495666504,1.9764134883880615,7.198158264160156,-11.672124862670898,90.5038070678711, -46.31754684448242
185,1991242683,0.8366123,0.24863689,-0.2694122,0.40703404,9.176770210266113,1.9735721349716187,7.6950788497924805,-15.591713905334473,105.13036346435547, -48.86579513549805
186,1991259350,0.8448495,0.24071103,-0.25460055,0.4043096,8.843008995056152,1.2952070236206055,7.56923770904541,-23.31299591064453,118.84516906738281, -49.39673614501953
187,1991276017,0.8534903,0.23126146,-0.23833877,0.40158093,8.16401195526123,1.6383068561553955,7.3287882804870605,-28.79419708251953,132.22923278808594, -50.29685592651367
188,1991292684,0.8624222,0.21977484,-0.22079201,0.39897114,7.752124309539795,1.0299016237258911,7.050909042358398,-37.46158218383789,146.08575439453125, -49.12211990356445
189,1991309351,0.87110883,0.20736718,-0.20164992,0.3968701,7.288508415222168,0.4632585048675537,6.742917537689209,-37.39099884033203,158.49647521972656, -46.460758209228516
190,1991326018,0.87943524,0.19416933,-0.18096611,0.3951496,6.952372074127197,0.7688673734664917,6.985088348388672,-36.858272552490234,169.96046447753906, -44.31837463378906
191,1991342685,0.8871516,0.18036585,-0.15888172,0.3939373,6.173637866973877,0.07363241910934448,6.724386215209961,-35.25593948364258,180.02346801757812, -40.7149543762207
192,1991359352,0.89399916,0.16675133,-0.13536842,0.3932367,5.581124305725098,0.30411607027053833,6.161907196044922,-28.576175689697266,187.93869018554688, -37.22957229614258
193,1991376019,0.90005744,0.15278444,-0.111376815,0.392618,5.329744815826416,0.7201605439186096,5.561035633087158,-28.455018997192383,191.21664428710938, -34.81861877441406
194,1991392686,0.9052184,0.13882054,-0.08689238,0.39212006,5.122303485870361,0.7098750472068787,5.955371379852295,-26.06807518005371,193.72900390625, -32.17195129394531
195,1991409353,0.9093493,0.12577814,-0.061846003,0.39171273,5.298681735992432,0.7949705719947815,6.209331512451172,-17.77542495727539,194.24244689941406, -29.919200897216797
196,1991426020,0.9125058,0.112942606,-0.036728907,0.39144403,5.016132831573486,0.6665785908699036,6.477657794952393,-15.3875093460083,193.86912536621094, -26.58060073852539
197,1991442687,0.91466373,0.09972691,-0.01259358,0.39151832,4.449454307556152,1.0816105604171753,6.752709865570068,-19.548498153686523,188.7806854248047, -20.884859085083008
198,1991459354,0.91602916,0.08455645,0.0093635125,0.3919865,3.406299114227295,1.5123474597930908,6.2232160568237305,-37.130558013916016,180.5738067626953, -14.611245155334473
199,1991476021,0.91646415,0.068951584,0.02958919,0.39301875,2.5620956420898438,1.2528728246688843,6.463953495025635,-44.03824234008789,171.2436981201172, -7.567378520965576
200,1991492688,0.9159666,0.05510298,0.048475612,0.3944858,2.3025150299072266,1.541981816291809,5.751302242279053,-36.24083709716797,158.45985412597656, -1.311287522315979
201,1991509355,0.91479176,0.04218492,0.06578255,0.3962943,1.4321541786193848,1.6224108934402466,6.14027738571167,-34.53300094604492,146.35096740722656, 3.5874407291412354
202,1991526022,0.9133442,0.03222383,0.08184609,0.39757407,1.075437068939209,1.866676688194275,4.984035015106201,-19.01522445678711,130.4395751953125, 2.70404052734375
203,1991542689,0.9118694,0.024948873,0.0965906,0.39817375,-0.17056822776794434,1.1185541152954102,4.4892897605896,-5.382105350494385,114.67255401611328, 0.31022903323173523
204,1991559356,0.91061664,0.020593882,0.109515265,0.3979445,-0.8628571033477783,1.6882686614990234,4.054632663726807,8.448728561401367,94.95375061035156, -3.242953062057495
205,1991576023,0.90966266,0.018571693,0.11944154,0.39737004,-1.516732931137085,1.6936671733856201,3.0405914783477783,15.051243782043457,69.49049377441406, -4.042294025421143
206,1991592690,0.90905917,0.016413445,0.12542303,0.39700285,-2.05014705657959,1.8573328256607056,3.507493495941162,3.1899635791778564,44.884708404541016, -3.312335252761841
207,1991609357,0.9089445,0.015772512,0.12782754,0.3965244,-2.1781671047210693,1.4806158542633057,2.822695016860962,2.932356357574463,17.905813217163086, -3.6287472248077393
208,1991626024,0.90938675,0.016592592,0.126892,0.39577657,-2.1627275943756104,1.7001959085464478,2.3209121227264404,3.120556116104126,-7.516432762145996, -5.180617809295654
209,1991642691,0.9101921,0.017497113,0.12288303,0.39515063,-2.2422711849212646,1.6916894912719727,3.855504274368286,-4.879515171051025,-27.310937881469727, -4.979494571685791
210,1991659358,0.9112277,0.01873624,0.116745524,0.39456776,-2.412343978881836,1.9077959060668945,5.474408149719238,-8.645354270935059,-41.76714324951172, -4.793281555175781
211,1991676025,0.9123818,0.018220369,0.10810677,0.39438632,-2.101973533630371,2.00834584236145,5.241570472717285,-26.776216506958008,-52.75257873535156, -3.6820244789123535
212,1991692692,0.9134971,0.015939219,0.09599626,0.39503652,-1.7659906148910522,1.3358025550842285,3.449007987976074,-47.89287567138672,-69.6382064819336, 0.7671515941619873
213,1991709359,0.91504645,0.013961011,0.07045066,0.39690298,1.3709886074066162,-0.7727078199386597,-18.361286163330078,-83.3459701538086,-155.03610229492188, 8.90749740600586
214,1991726026,0.9174596,0.0061513637,0.031126533,0.3965618,14.877326965332031,-0.29271936416625977,-5.3651204109191895,-156.6873321533203,-226.50791931152344, -8.833175659179688
215,1991742693,0.91814923,0.008758984,-0.0020459366,0.39613268,0.6341596841812134,-5.544918537139893,13.113346099853516,-74.08037567138672,-215.41583251953125, -2.714815616607666
216,1991759360,0.91834605,0.014518133,-0.03342244,0.3940977,5.620666980743408,-2.5283308029174805,-1.4128702878952026,-49.160980224609375,-212.764404296875, -11.652297973632812
217,1991776027,0.91777784,0.015372127,-0.065625705,0.39133233,-0.0969904437661171,0.7124608159065247,3.085631847381592,-82.42218017578125,-204.8388671875, -12.97801685333252
218,1991792694,0.9165511,0.019061537,-0.092264086,0.38866246,0.6680781245231628,4.180983543395996,6.34812593460083,-49.453399658203125,-177.6602783203125, -12.463550567626953
219,1991809361,0.91544396,0.025502156,-0.115448765,0.38468665,3.483671188354492,4.066997528076172,8.366717338562012,-23.81378173828125,-163.36715698242188, -23.19123077392578
220,1991826028,0.9143497,0.032559082,-0.13563669,0.38014105,6.091200351715088,3.6635076999664307,9.455342292785645,-12.544098854064941,-146.20298767089844, -27.79972267150879
221,1991842695,0.91259307,0.032949477,-0.15649106,0.37629625,6.68878698348999,-0.6260120868682861,9.775420188903809,-55.46747589111328,-133.3693389892578, -15.262577056884766
222,1991859362,0.9103886,0.03730122,-0.17444284,0.37332436,8.053123474121094,-1.6404478549957275,4.416777610778809,-22.042659759521484,-125.63162231445312, -13.534612655639648
223,1991876029,0.90812624,0.04233278,-0.18939015,0.37100706,7.725351810455322,-2.5726242065429688,6.191529750823975,-9.236713409423828,-108.35449981689453, -10.872703552246094
224,1991892696,0.90599,0.049215283,-0.20056005,0.36950764,8.914483070373535,-3.8681135177612305,7.754412651062012,13.036222457885742,-89.0033187866211, -9.608778953552246
225,1991909363,0.90347236,0.05662049,-0.2098236,0.36946705,10.136975288391113,-3.666383743286133,8.49885082244873,23.34834098815918,-78.40200805664062, -0.945681631565094
226,1991926030,0.9005958,0.06382778,-0.21818183,0.3704726,10.665586471557617,-2.7346324920654297,9.585527420043945,26.132383346557617,-72.28877258300781, 6.367673397064209
227,1991942697,0.897343,0.070485696,-0.2257292,0.3726308,11.101764678955078,-2.14633846282959,10.07076358795166,26.735267639160156,-65.83831024169922, 14.907808303833008
228,1991959364,0.89382726,0.07897192,-0.23144484,0.3758587,11.060434341430664,-0.8664728999137878,12.05446720123291,44.52887725830078,-59.02664566040039, 18.431743621826172
229,1991976031,0.89011604,0.090752326,-0.2348569,0.37986815,10.012870788574219,-0.3759245276451111,12.591814994812012,72.0837631225586,-53.21738815307617, 17.2294979095459
230,1991992698,0.8858395,0.10530481,-0.2371993,0.38462442,10.128280639648438,0.9195703268051147,11.608014106750488,93.40193176269531,-54.34330749511719, 18.107372283935547
231,1992009365,0.88111347,0.120474465,-0.24000826,0.38925722,8.943283081054688,2.19775390625,11.14903736114502,96.03091430664062,-59.61375427246094, 17.858001708984375
232,1992026032,0.87582576,0.13469058,-0.24393003,0.39406326,9.264301300048828,2.924098014831543,10.928951263427734,83.22029876708984,-64.80116271972656, 15.751998901367188
233,1992042699,0.871024,0.14726634,-0.24657732,0.39853448,9.950018882751465,2.1332387924194336,14.794851303100586,75.20841217041016,-52.34299087524414, 13.505130767822266
234,1992059366,0.8666335,0.16022111,-0.24631254,0.4032444,8.518699645996094,1.8845760822296143,13.523741722106934,84.92362213134766,-35.24019241333008, 9.729988098144531
235,1992076033,0.85983807,0.17378345,-0.25251576,0.4083062,6.2610392570495605,2.7697527408599854,8.481738090515137,73.75244903564453,-79.3587646484375, 24.755847930908203
236,1992092700,0.85239613,0.18535517,-0.2647632,0.41105348,10.192554473876953,4.669618129730225,6.113902568817139,41.70547866821289,-113.48841094970703, 24.004810333251953
237,1992109367,0.84544456,0.19643243,-0.27700382,0.41219756,10.48880672454834,1.198563575744629,11.365657806396484,35.146446228027344,-113.13510131835938, 14.576286315917969
238,1992126034,0.8369709,0.21353506,-0.28377455,0.4163587,8.179749488830566,-0.4011704623699188,17.259185791015625,93.46495056152344,-97.32012176513672, 17.953672409057617
239,1992142701,0.8282287,0.23127158,-0.2887051,0.42095155,8.387231826782227,3.8073601722717285,14.788132667541504,103.69702911376953,-88.73465728759766, 17.617069244384766
240,1992159368,0.82196194,0.240932,-0.29575536,0.42291766,8.606576919555664,5.084580421447754,13.007615089416504,42.275943756103516,-76.91972351074219, 15.128312110900879
241,1992176035,0.81815785,0.24510935,-0.30398443,0.42205805,8.61836051940918,3.7610552310943604,13.039846420288086,3.998058557510376,-66.3680419921875, 10.938902854919434
242,1992192702,0.81502104,0.24858882,-0.31121954,0.4208171,8.160689353942871,3.219433546066284,13.895637512207031,1.0217221975326538,-58.111324310302734, 6.681851863861084
243,1992209369,0.8122694,0.25214607,-0.31697622,0.41972244,8.237671852111816,3.342339038848877,13.638748168945312,5.390833854675293,-49.12156677246094, 3.7262635231018066
244,1992226036,0.80998236,0.25539863,-0.32086405,0.4192213,8.161367416381836,2.9434757232666016,12.70784854888916,9.56845760345459,-35.90470886230469, 3.159104824066162
245,1992242703,0.80782974,0.25825208,-0.3236903,0.41945407,7.882936477661133,2.6700901985168457,11.749140739440918,11.79123592376709,-27.38077163696289, 5.9012556076049805
246,1992259370,0.80539757,0.26191607,-0.324801,0.42099786,7.548742294311523,2.185274124145508,10.437471389770508,24.658710479736328,-18.592098236083984, 9.161216735839844
247,1992276037,0.8026545,0.26731208,-0.32365617,0.4237182,8.022584915161133,3.1108410358428955,9.47960376739502,43.97391128540039,-9.775965690612793, 8.659543991088867
248,1992292704,0.8001746,0.27254802,-0.32166255,0.42658126,8.134861946105957,3.2454116344451904,8.38675594329834,45.38311767578125,-3.8290116786956787, 7.5054168701171875
249,1992309371,0.7979338,0.27747044,-0.31943586,0.42927,7.97213888168335,3.0671310424804688,8.357776641845703,43.48899841308594,-1.4487922191619873, 6.131574630737305
250,1992326038,0.79584354,0.28291956,-0.31652638,0.43174145,7.789064407348633,3.6389007568359375,8.247430801391602,47.61531448364258,0.6320688724517822, 2.0607566833496094
251,1992342705,0.7946998,0.2858303,-0.3141675,0.4336497,8.128172874450684,4.0543622970581055,9.024612426757812,29.001192092895508,6.089521884918213, 2.80021333694458
252,1992359372,0.7949635,0.2850795,-0.31385833,0.43388447,8.859922409057617,4.864503383636475,8.07496452331543,-3.522630453109741,5.515036106109619, 1.4372247457504272
253,1992376039,0.79670906,0.28097594,-0.31445032,0.43292993,9.399735450744629,3.258915901184082,7.538581848144531,-30.05495262145996,11.451151847839355, -0.4348539412021637
254,1992392706,0.7984498,0.27744895,-0.31449395,0.43196478,9.63822078704834,3.4084222316741943,7.489037990570068,-25.297054290771484,12.72744083404541, -2.7769622802734375
255,1992409373,0.8010123,0.27221686,-0.31444395,0.4305839,9.726658821105957,4.170156002044678,7.0166754722595215,-36.86940383911133,19.31617546081543, -3.9809682369232178
256,1992426040,0.80445135,0.26498118,-0.31386128,0.42910856,9.546154975891113,3.7142717838287354,7.0527729988098145,-48.21889877319336,29.94029426574707, -3.7346556186676025
257,1992442707,0.80833274,0.25759614,-0.31173757,0.4278576,9.470518112182617,3.4366514682769775,6.992574214935303,-44.86102294921875,40.30608367919922, -6.266702651977539
258,1992459374,0.8127501,0.25109562,-0.30772626,0.4262545,8.60053825378418,3.153688669204712,6.999512672424316,-36.13360595703125,48.76137924194336, -15.025369644165039
259,1992476041,0.8176737,0.24608548,-0.30131483,0.42433617,8.252154350280762,3.068528890609741,7.655374526977539,-22.34768295288086,58.35844039916992, -25.557146072387695
260,1992492708,0.8232007,0.24181949,-0.29269186,0.4221324,8.188482284545898,2.642277717590332,7.135237216949463,-13.356595993041992,69.39399719238281, -34.19609451293945
261,1992509375,0.8303045,0.23574774,-0.28261083,0.41850773,8.49308967590332,2.390761375427246,7.134926795959473,-20.100505828857422,84.56414031982422, -41.456844329833984
262,1992526042,0.8377666,0.22928423,-0.2705727,0.41517034,8.386234283447266,1.6949447393417358,6.778896808624268,-21.491716384887695,97.23233032226562, -47.40373229980469
263,1992542709,0.8458286,0.22189553,-0.25669786,0.41163447,7.862025737762451,1.303934097290039,6.540558815002441,-22.90268325805664,111.31570434570312, -51.46868133544922
264,1992559376,0.85424465,0.21328638,-0.24097452,0.40829718,7.874049186706543,1.2592107057571411,6.983137607574463,-24.95940589904785,126.51190948486328, -52.02557373046875
265,1992576043,0.8627275,0.20378074,-0.22350225,0.4052427,7.866106986999512,0.6641928553581238,7.063220500946045,-24.94314193725586,139.8948211669922, -51.678131103515625
266,1992592710,0.8710174,0.19355111,-0.20450133,0.4025497,7.302215099334717,0.2244945913553238,6.634230613708496,-24.133047103881836,151.27288818359375, -50.08514404296875
267,1992609377,0.8792692,0.18140884,-0.18458629,0.39988095,7.07047700881958,0.55535489320755,6.433372497558594,-32.942726135253906,162.1135711669922, -48.42646026611328
268,1992626044,0.8870091,0.16817771,-0.16379046,0.39762294,6.636237621307373,-0.7586808204650879,5.651285648345947,-35.92570114135742,170.40206909179688, -44.307334899902344
269,1992642711,0.8939338,0.15470552,-0.14213595,0.39591154,6.091187477111816,-0.5115001797676086,6.107560157775879,-33.430877685546875,176.13792419433594, -39.534725189208984
270,1992659378,0.9000397,0.14056267,-0.12027879,0.39459327,5.35226583480835,0.06608538329601288,6.677642822265625,-35.691749572753906,178.94248962402344, -34.504783630371094
271,1992676045,0.9054984,0.124775946,-0.09850692,0.39344665,4.8755388259887695,0.4208250343799591,7.098519325256348,-45.290897369384766,182.60299682617188, -30.281774520874023
272,1992692712,0.91009235,0.108809315,-0.07665108,0.3924506,4.684264183044434,0.6239767074584961,7.186068534851074,-45.312713623046875,183.2469940185547, -26.980018615722656
273,1992709379,0.91370535,0.09343906,-0.05462568,0.39169896,4.814004421234131,0.39939144253730774,7.09110689163208,-40.242427825927734,182.4662628173828, -23.264680862426758
274,1992726046,0.9162388,0.07928568,-0.032537296,0.39135864,4.348763465881348,-0.2204722762107849,6.888260841369629,-31.55571937561035,179.57044982910156, -18.291229248046875
275,1992742713,0.9175071,0.06727074,-0.011022782,0.3918341,3.3725321292877197,-0.34399300813674927,5.7229461669921875,-18.70871925354004,170.48779296875, -9.93372917175293
276,1992759380,0.9177973,0.05621328,0.008653415,0.3929549,2.8656036853790283,1.3616044521331787,5.348566055297852,-17.072731018066406,156.63970947265625, -2.463824510574341
277,1992776047,0.9173566,0.045300998,0.026688112,0.3945789,1.8690727949142456,1.3922929763793945,6.42807149887085,-20.36272621154785,146.22438049316406, 3.3196799755096436
278,1992792714,0.9163877,0.036444098,0.04365141,0.3962326,0.9589987397193909,1.8199715614318848,6.890958786010742,-10.16516399383545,134.0596160888672, 5.643548488616943
279,1992809381,0.9153419,0.029222626,0.058976084,0.39726225,0.7738496661186218,2.3970673084259033,6.039195537567139,-4.1548051834106445,119.18035125732422, 2.810781955718994
280,1992826048,0.9143758,0.022815106,0.07208038,0.39774504,-0.14895716309547424,1.3710860013961792,4.797736167907715,-4.957766056060791,102.87674713134766, -0.09021130204200745
281,1992842715,0.9136518,0.017948337,0.08283113,0.39756432,-0.7153478264808655,1.727272868156433,4.344278335571289,-1.4465898275375366,83.63837432861328, -3.8014285564422607
282,1992859382,0.9130835,0.014871066,0.0911017,0.3971877,-1.4506179094314575,1.5905190706253052,4.5002641677856445,3.058788299560547,63.027252197265625, -4.1439104080200195
283,1992876049,0.912812,0.011648772,0.096147455,0.3967298,-1.8071339130401611,2.13100266456604,4.714870452880859,-6.68031120300293,42.92869567871094, -5.233145713806152
284,1992892716,0.91284746,0.009438043,0.09825397,0.39619055,-2.0482378005981445,1.742537021636963,4.219864368438721,-8.386971473693848,21.447877883911133, -5.6821370124816895
285,1992909383,0.91318744,0.008811753,0.09791952,0.39550334,-2.003217935562134,1.4014086723327637,3.623588800430298,-5.065372943878174,1.517379641532898, -6.2115797996521
286,1992926050,0.91375256,0.00911166,0.09548194,0.39478683,-2.0446338653564453,1.8151148557662964,4.680944442749023,-5.005866527557373,-14.440441131591797, -6.2528862953186035
287,1992942717,0.91444707,0.010374441,0.091599315,0.39406702,-2.348694086074829,1.8149120807647705,5.793588638305664,-2.9431371688842773,-26.29129981994629, -5.898658752441406
288,1992959384,0.91521573,0.011782604,0.0864807,0.39339888,-2.4074509143829346,2.0483107566833496,6.85891056060791,-5.4699625968933105,-34.58024597167969, -5.587883949279785
289,1992976051,0.91599137,0.011297568,0.08014183,0.39294973,-2.151524543762207,2.509601354598999,7.471482753753662,-20.87550926208496,-37.20203399658203, -5.245052814483643
290,1992992718,0.916745,0.008704262,0.07103654,0.39300987,-1.9278483390808105,2.4248735904693604,4.900571346282959,-41.98841857910156,-48.93875503540039, -2.9117586612701416
291,1993009385,0.9177195,0.0066657723,0.048250962,0.39423165,-0.12267234921455383,-0.7503378987312317,-19.764266967773438,-76.1353988647461,-136.7841796875, 4.9359235763549805
292,1993026052,0.91918415,-0.00096846686,0.008489221,0.39373565,17.01287078857422,-0.8952254056930542,-10.84887981414795,-156.96380615234375,-229.1421661376953, -8.23351001739502
293,1993042719,0.9187744,0.0010066779,-0.025444029,0.39396077,-0.2437206208705902,-6.240996360778809,13.585407257080078,-80.46321868896484,-217.3119659423828, 2.0836353302001953
294,1993059386,0.9182658,0.005200637,-0.0579539,0.3916661,6.776278972625732,-2.2934730052948,-1.4198185205459595,-62.715145111083984,-214.4078826904297, -13.904014587402344
295,1993076053,0.91649705,0.006331169,-0.09113068,0.38947195,-1.1000128984451294,-0.5835618376731873,3.7880046367645264,-83.65403747558594,-210.50892639160156, -8.56499195098877
296,1993092720,0.91430116,0.01069205,-0.11875873,0.38708603,0.5974145531654358,2.9852917194366455,5.826529502868652,-48.50307846069336,-184.56765747070312, -10.848210334777832
297,1993109387,0.912462,0.018728875,-0.14250119,0.38308752,3.2190613746643066,3.628157138824463,7.932486057281494,-16.553442001342773,-169.7955780029297, -25.151782989501953
298,1993126054,0.91079277,0.027493842,-0.16273443,0.37844184,6.300474166870117,3.264885902404785,9.256157875061035,-3.601351737976074,-149.56277465820312, -30.729211807250977
299,1993142721,0.90849024,0.030828774,-0.18334891,0.3742705,7.068300247192383,-0.5702906847000122,9.93524169921875,-38.1368522644043,-138.27188110351562, -19.842397689819336
300,1993159388,0.90581715,0.035596672,-0.20167063,0.37088686,8.746268272399902,-1.9186807870864868,5.30895471572876,-22.204368591308594,-127.78499603271484, -16.196958541870117
301,1993176055,0.9027999,0.040378757,-0.21722133,0.3689675,7.719110012054443,-2.9736530780792236,6.0696516036987305,-12.833675384521484,-110.39501953125, -6.872302532196045
302,1993192722,0.90002644,0.045898974,-0.22868523,0.36816975,8.46963119506836,-3.500890016555786,7.059412956237793,3.8762319087982178,-86.05794525146484, -2.7944447994232178
303,1993209389,0.8972226,0.052620906,-0.23785688,0.36830282,9.94526481628418,-2.5447962284088135,8.094086647033691,18.756465911865234,-74.53594207763672, 0.3657121956348419
304,1993226056,0.8941923,0.059219208,-0.245823,0.36943808,10.895559310913086,-2.9378738403320312,8.846029281616211,22.883424758911133,-66.65776062011719, 6.83420991897583
305,1993242723,0.8907416,0.067136735,-0.25232676,0.37202644,10.97906494140625,-2.266105890274048,9.09092903137207,37.464561462402344,-61.01990509033203, 13.935126304626465
306,1993259390,0.8868393,0.07754186,-0.2567016,0.37630793,11.186448097229004,-1.252416968345642,10.837362289428711,61.388484954833984,-54.27351379394531, 20.081222534179688
307,1993276057,0.882875,0.08953155,-0.25889027,0.38143414,10.206473350524902,-0.04899400472640991,12.226036071777344,78.28034210205078,-44.700233459472656, 21.353790283203125
308,1993292724,0.87859684,0.10355406,-0.25939253,0.38737604,9.69013786315918,0.7330127358436584,12.080946922302246,96.69197845458984,-39.95252990722656, 22.406822204589844
309,1993309391,0.8739243,0.118411995,-0.25975817,0.39339685,8.712908744812012,1.1754549741744995,10.839871406555176,102.50799560546875,-42.13019561767578, 22.288923263549805
310,1993326058,0.86847025,0.13426365,-0.2599365,0.40020743,9.005589485168457,2.6804192066192627,10.663227081298828,103.52323913574219,-44.511783599853516, 16.770008087158203
311,1993342725,0.86456,0.149195,-0.25651348,0.40555856,9.465641021728516,3.3620691299438477,13.93991470336914,103.75830078125,-19.486780166625977, 2.2120444774627686
312,1993359392,0.85963243,0.16075987,-0.25822008,0.41050088,7.344613552093506,1.144278883934021,10.880563735961914,70.01944732666016,-43.21876525878906, 14.461969375610352
313,1993376059,0.85240155,0.17277241,-0.26619086,0.41557655,6.953431129455566,2.7953593730926514,7.121463298797607,58.04139709472656,-85.73865509033203, 28.554845809936523
314,1993392726,0.84475714,0.18313292,-0.27791584,0.4190596,10.844728469848633,3.674466609954834,8.654001235961914,35.33298873901367,-105.80162811279297, 28.605207443237305
315,1993409393,0.83829486,0.19123103,-0.28944802,0.42060962,9.832722663879395,2.1075150966644287,14.33144474029541,17.765466690063477,-98.33340454101562, 18.86015510559082
316,1993426060,0.83065265,0.20476452,-0.2977872,0.42356893,8.017584800720215,1.4005273580551147,17.501676559448242,63.15853500366211,-96.34947204589844, 16.285236358642578
317,1993442727,0.8237728,0.2164512,-0.30544597,0.4257351,8.078965187072754,4.1055779457092285,16.063125610351562,51.54867172241211,-87.0793228149414, 12.315516471862793
318,1993459394,0.8181705,0.22424193,-0.31327507,0.42681572,8.226346015930176,3.5699288845062256,13.569252014160156,24.65898895263672,-75.90100860595703, 11.132166862487793
319,1993476061,0.8132116,0.23045783,-0.32053417,0.4275906,7.9671101570129395,2.7257304191589355,12.604878425598145,16.033538818359375,-67.34236907958984, 10.556693077087402
320,1993492728,0.808511,0.2369399,-0.32621205,0.4286669,8.570627212524414,2.643202304840088,12.805922508239746,22.296703338623047,-58.43064498901367, 8.526751518249512
321,1993509395,0.804656,0.24316901,-0.3308174,0.42890286,8.538309097290039,2.5038180351257324,13.307204246520996,27.208951950073242,-50.74519348144531, 5.646047115325928
322,1993526062,0.8007776,0.24975409,-0.33404046,0.42987818,8.53299617767334,2.3703806400299072,13.248876571655273,34.98960876464844,-43.13136672973633, 6.701400279998779
323,1993542729,0.7973541,0.25580657,-0.33607617,0.43109444,8.060423851013184,2.7362494468688965,12.508115768432617,35.356781005859375,-33.71880340576172, 5.881462097167969
324,1993559396,0.7938671,0.26104465,-0.3378026,0.43303627,8.061708450317383,1.92302668094635,10.820067405700684,33.605567932128906,-28.620450973510742, 11.406705856323242
325,1993576063,0.7898482,0.26759195,-0.33864418,0.43572304,8.531820297241211,2.8592441082000732,9.025382041931152,46.089508056640625,-27.676870346069336, 12.429254531860352
326,1993592730,0.78609383,0.27375865,-0.3396123,0.43792263,9.043120384216309,3.6112682819366455,8.03757095336914,42.016204833984375,-27.53702735900879, 10.129332542419434
327,1993609397,0.782682,0.27857393,-0.3409944,0.43991876,9.70805835723877,3.385108470916748,8.546268463134766,32.324241638183594,-25.287731170654297, 11.964247703552246
328,1993626064,0.7794715,0.28248844,-0.3431522,0.4414421,9.973722457885742,4.222945213317871,9.452104568481445,23.62465476989746,-27.174358367919922, 12.428837776184082
329,1993642731,0.7771754,0.28484657,-0.34555367,0.44210145,9.693943977355957,4.042974948883057,9.910131454467773,10.708305358886719,-23.302865982055664, 9.204619407653809
330,1993659398,0.77483815,0.28852263,-0.34685844,0.4427982,8.96013355255127,3.1648595333099365,9.118830680847168,21.24038314819336,-21.516456604003906, 4.281682968139648
331,1993676065,0.77311045,0.2919742,-0.3474154,0.4431186,9.607487678527832,4.295889854431152,8.231491088867188,20.21556854248047,-16.177173614501953, -0.5159947276115417
332,1993692732,0.77333355,0.29242125,-0.34799,0.44198197,9.881196975708008,4.269562244415283,8.254834175109863,-3.2244222164154053,-5.3870697021484375, -6.963083267211914
333,1993709399,0.77473587,0.29163465,-0.34748107,0.44044375,9.979948043823242,4.329643249511719,8.402714729309082,-9.840126037597656,6.133984565734863, -11.88767147064209
334,1993726066,0.7779542,0.2879093,-0.3463725,0.43808886,9.654458045959473,4.3907341957092285,8.127440452575684,-29.287220001220703,20.923057556152344, -15.902743339538574
335,1993742733,0.783,0.28147796,-0.3440708,0.43508232,9.59033489227295,4.241392135620117,7.884156227111816,-45.35677719116211,38.51152801513672, -20.797008514404297
336,1993759400,0.78976434,0.27294558,-0.34002328,0.43145967,8.708803176879883,3.3747048377990723,7.895174980163574,-56.248905181884766,57.069061279296875, -27.6584415435791
337,1993776067,0.7974579,0.26468164,-0.33314922,0.427804,8.501798629760742,3.0801491737365723,7.888349533081055,-48.23530578613281,73.72235870361328, -36.53776931762695
338,1993792734,0.8060234,0.25716496,-0.3230813,0.42404115,8.3439302444458,2.3540446758270264,7.70604944229126,-36.58095169067383,90.83382415771484, -47.232154846191406
339,1993809401,0.8150546,0.25032964,-0.30986217,0.42072156,8.754366874694824,1.7969125509262085,7.776266574859619,-23.45134925842285,108.13646697998047, -53.25045394897461
340,1993826068,0.824464,0.24385275,-0.29373822,0.41774723,8.991591453552246,1.435544729232788,6.486980438232422,-12.941829681396484,124.80290985107422, -58.215152740478516
341,1993842735,0.834431,0.23554884,-0.27538496,0.41521674,8.769970893859863,0.6514363884925842,6.493405818939209,-16.921030044555664,144.62294006347656, -57.39912033081055
342,1993859402,0.8444442,0.22593729,-0.25523457,0.4131849,8.815713882446289,0.8281272649765015,6.082767963409424,-18.397642135620117,159.62989807128906, -55.16523742675781
343,1993876069,0.854314,0.21519473,-0.23355055,0.41145223,8.419574737548828,0.6388565301895142,6.268764495849609,-19.84078025817871,172.04461669921875, -53.474124908447266
344,1993892736,0.8633904,0.20482653,-0.21040471,0.41028404,7.684876918792725,-0.013732211664319038,5.380270004272461,-11.402022361755371,179.21334838867188, -50.73064422607422
345,1993909403,0.872454,0.19197048,-0.1862918,0.40898278,7.117643356323242,0.492283433675766,5.564035415649414,-23.58685302734375,191.85536193847656, -49.30244827270508
346,1993926070,0.8807703,0.1784061,-0.16082309,0.40810657,6.503484725952148,0.2595563232898712,5.736310958862305,-22.47127342224121,201.6639404296875, -45.57504653930664
347,1993942737,0.8882273,0.16407731,-0.13468191,0.4074211,5.862707138061523,0.30039751529693604,5.765573978424072,-23.921981811523438,207.23570251464844, -42.02480697631836
348,1993959404,0.8945544,0.15072906,-0.10818264,0.40663248,5.288142204284668,0.5487793684005737,5.088035583496094,-15.725482940673828,205.57485961914062, -40.83170700073242
349,1993976071,0.9000691,0.13664366,-0.08171924,0.4056183,4.760192394256592,0.7929136157035828,5.4149932861328125,-19.67070198059082,206.64071655273438, -39.38595199584961
350,1993992738,0.904678,0.12226694,-0.05541615,0.40439817,4.663209438323975,1.2241708040237427,6.557405948638916,-21.175321578979492,205.81326293945312, -37.83745193481445
351,1994009405,0.9081851,0.10797078,-0.029523851,0.40332466,4.178055286407471,0.8862636089324951,6.817646503448486,-20.829805374145508,202.78929138183594, -33.56086349487305
352,1994026072,0.91054803,0.0933821,-0.0047617634,0.40269044,3.811126232147217,0.8874523639678955,5.699419021606445,-24.839014053344727,196.6837615966797, -26.75756072998047
353,1994042739,0.9116257,0.0799165,0.01864998,0.40274617,3.1017322540283203,0.9692831039428711,5.314541339874268,-20.6903018951416,185.56956481933594, -18.05852508544922
354,1994059406,0.9115437,0.0679512,0.039846107,0.40358767,2.58290433883667,2.132052183151245,5.086783409118652,-16.880367279052734,168.14404296875, -8.519898414611816
355,1994076073,0.91090035,0.056187447,0.05769779,0.40469068,1.1952170133590698,3.1417236328125,4.632936477661133,-24.730588912963867,146.92979431152344, -3.7112507820129395
356,1994092740,0.910081,0.045920838,0.07356817,0.40525505,0.27113592624664307,3.189814329147339,5.973107814788818,-20.632972717285156,130.21778869628906, -5.241730213165283
357,1994109407,0.9093671,0.03902764,0.087812595,0.40474382,-0.688652753829956,1.823387622833252,4.8600969314575195,-3.5872905254364014,110.23633575439453, -10.052970886230469
358,1994126074,0.9090217,0.03392254,0.099964574,0.40315756,-1.1465156078338623,1.6777820587158203,3.977766990661621,2.3049380779266357,91.6306381225586, -16.161876678466797
359,1994142741,0.90880775,0.031053824,0.10970132,0.40133512,-1.602415919303894,1.1713156700134277,3.271740436553955,9.704300880432129,70.14674377441406, -15.903361320495605
360,1994159408,0.9087709,0.029986588,0.116605,0.39954925,-2.4262332916259766,1.3285878896713257,2.956242799758911,13.072834968566895,47.29389190673828, -14.197839736938477
361,1994176075,0.90902203,0.030274201,0.1209105,0.39767218,-2.6813673973083496,1.6414189338684082,3.3126964569091797,14.404826164245605,27.017608642578125, -13.930778503417969
362,1994192742,0.9096182,0.031390186,0.12218245,0.39582947,-2.527818441390991,1.535079836845398,2.8910014629364014,11.171932220458984,5.442890644073486, -13.333793640136719
363,1994209409,0.9104555,0.032461923,0.12060706,0.39429826,-2.5929806232452393,1.4138039350509644,3.9432272911071777,2.8182384967803955,-12.44421100616455, -11.455957412719727
364,1994226076,0.9114954,0.034365293,0.116573416,0.39294502,-2.5920279026031494,1.2183128595352173,3.946382761001587,1.1598559617996216,-30.273103713989258, -9.642909049987793
365,1994242743,0.91273093,0.037072714,0.1108689,0.39147946,-2.3418734073638916,1.2043006420135498,5.336140155792236,1.725840449333191,-43.155853271484375, -9.82371711730957
366,1994259410,0.9140013,0.04006946,0.10458441,0.38994652,-2.26190185546875,1.5508209466934204,7.714519500732422,2.0255651473999023,-47.659828186035156, -9.960489273071289
367,1994276077,0.91508853,0.042443298,0.097875126,0.38888592,-2.630721092224121,1.277004361152649,9.032084465026855,-3.3141703605651855,-48.42633819580078, -6.821910381317139
368,1994292744,0.91594344,0.045589793,0.09138058,0.38809684,-2.462494373321533,0.8273091912269592,8.533760070800781,2.020660638809204,-48.940494537353516, -4.022854328155518
369,1994309411,0.91659147,0.048633426,0.08474511,0.38770264,-2.644575595855713,0.6251285672187805,8.074102401733398,0.8364346623420715,-49.334346771240234, -0.9913223385810852
370,1994326078,0.91713274,0.04862345,0.076043524,0.3882279,-2.376312017440796,1.6285649538040161,6.461928367614746,-24.389623641967773,-53.88885498046875, 4.013015270233154
371,1994342745,0.9176118,0.042279698,0.06037975,0.39058354,-1.783927083015442,3.8940060138702393,-2.573350667953491,-83.85890197753906,-80.28414154052734, 14.746167182922363
372,1994359412,0.91777474,0.042294078,0.028548108,0.39380983,11.545865058898926,-3.729794502258301,-23.407468795776367,-87.5427017211914,-199.0537872314453, 28.438779830932617
373,1994376079,0.91851497,0.040686946,-0.009753801,0.39316672,9.580682754516602,-2.228757381439209,9.256213188171387,-114.67988586425781,-236.45751953125, 4.008524417877197
374,1994392746,0.91783845,0.04348992,-0.042431623,0.39227667,3.7148001194000244,-3.9853503704071045,9.322517395019531,-71.14817810058594,-212.7471923828125, 4.410361289978027
375,1994409413,0.9161634,0.051325597,-0.073257826,0.39069647,3.1326723098754883,-1.7411799430847168,0.715875506401062,-34.169559478759766,-215.06488037109375, 0.7235580682754517
376,1994426080,0.91411483,0.056678034,-0.10194935,0.3883145,1.5333508253097534,1.1337156295776367,1.2063478231430054,-44.30381774902344,-195.3430938720703, -2.830104351043701
377,1994442747,0.91171885,0.062066004,-0.12519856,0.38631862,2.328876256942749,3.4135756492614746,3.7573893070220947,-29.16948699951172,-161.2969512939453, -1.6075282096862793
378,1994459414,0.90901333,0.07066532,-0.14448072,0.38448235,4.968283176422119,2.657811403274536,8.139556884765625,1.6858059167861938,-145.13442993164062, -4.213602066040039
379,1994476081,0.9057122,0.07783724,-0.16256665,0.3836654,6.757800579071045,3.587486505508423,10.863738059997559,-2.8296523094177246,-133.9298553466797, 4.594203948974609
380,1994492748,0.9023105,0.08133413,-0.18048504,0.3829435,7.687381744384766,0.36126908659935,8.131590843200684,-25.190092086791992,-123.19181823730469, 9.508306503295898
381,1994509415,0.89852834,0.087977394,-0.19566064,0.38291523,8.609034538269043,-0.5918670296669006,4.319573879241943,2.632077217102051,-114.44282531738281, 9.383092880249023
382,1994526082,0.8948922,0.0933954,-0.20807372,0.3836022,8.140783309936523,-1.2025026082992554,6.63101863861084,3.2379887104034424,-93.36105346679688, 13.389042854309082
383,1994542749,0.8914028,0.0964354,-0.22009934,0.38426277,9.711945533752441,-1.553475022315979,8.354174613952637,-10.459914207458496,-84.4063491821289, 15.97856330871582
384,1994559416,0.8877403,0.09924004,-0.23082553,0.3857308,11.175450325012207,-2.264549493789673,10.31096363067627,-7.080809593200684,-75.43217468261719, 20.860925674438477
385,1994576083,0.8838683,0.1050795,-0.2383665,0.38848016,10.514748573303223,-1.2967314720153809,10.20080852508545,22.134368896484375,-63.38279724121094, 22.213167190551758
386,1994592750,0.8796491,0.112836085,-0.24356958,0.39263192,10.000665664672852,-0.7594553828239441,10.781206130981445,42.62105178833008,-53.763877868652344, 26.80009651184082
387,1994609417,0.87490135,0.12317404,-0.2468266,0.39806104,9.568328857421875,-0.11914774775505066,12.573887825012207,66.06702423095703,-48.801822662353516, 30.084022521972656
388,1994626084,0.8704469,0.13670337,-0.24800973,0.40264824,9.751667976379395,1.4709984064102173,12.441241264343262,95.37577056884766,-45.11391067504883, 25.928550720214844
389,1994642751,0.8669244,0.15352008,-0.24338497,0.40698585,9.183694839477539,3.744335412979126,11.994405746459961,126.59710693359375,-18.055740356445312, 5.9780097007751465
390,1994659418,0.86235285,0.16933964,-0.24258554,0.41088244,7.642560005187988,3.4880127906799316,11.42593765258789,106.54324340820312,-40.5714111328125, 6.735841751098633
391,1994676085,0.85577935,0.18180172,-0.2490927,0.41538274,7.867652416229248,4.672369956970215,10.075121879577637,66.27645111083984,-77.513916015625, 26.11812973022461
392,1994692752,0.84848636,0.19047669,-0.26181024,0.41862294,9.057765007019043,4.151381969451904,7.525728702545166,23.57398796081543,-106.2605209350586, 33.6525993347168
393,1994709419,0.84118694,0.1989867,-0.27499893,0.42093295,10.497257232666016,2.6903393268585205,12.14417552947998,18.790599822998047,-109.76618957519531, 28.77027702331543
394,1994726086,0.83363605,0.21056892,-0.28591803,0.4230399,8.595732688903809,2.8842780590057373,16.512094497680664,42.87455749511719,-106.3095932006836, 19.65913963317871
395,1994742753,0.82630354,0.22200817,-0.29670984,0.42414424,9.412508010864258,4.916859149932861,15.648612976074219,40.144569396972656,-106.37309265136719, 13.841723442077637
396,1994759420,0.8204368,0.22972746,-0.30823094,0.4232052,8.595514297485352,4.227847099304199,15.3176908493042,10.704166412353516,-99.90428161621094, 7.383579730987549
397,1994776087,0.81530994,0.23612642,-0.31925732,0.4214133,9.054237365722656,3.2709743976593018,15.075312614440918,1.9266271591186523,-93.1736831665039, 3.0407752990722656
398,1994792754,0.8105345,0.2429436,-0.32870463,0.41948253,7.938490867614746,1.6250070333480835,14.626191139221191,13.528111457824707,-84.4579086303711, 2.70658278465271
399,1994809421,0.8051815,0.2516523,-0.33565545,0.4191533,8.298050880432129,1.6613627672195435,13.897055625915527,35.88592529296875,-74.82788848876953, 4.860826015472412
400,1994826088,0.7993094,0.2622407,-0.33998457,0.42041066,8.518196105957031,2.306978940963745,13.251171112060547,58.437721252441406,-64.36209106445312, 6.2707905769348145
401,1994842755,0.7934087,0.27269992,-0.34309748,0.4223997,8.05616569519043,2.7851946353912354,12.604859352111816,63.02281188964844,-56.21555709838867, 8.503087043762207
402,1994859422,0.787903,0.28168628,-0.34584963,0.4245582,8.459467887878418,3.450319528579712,12.163467407226562,55.70410919189453,-48.88394546508789, 11.111656188964844
403,1994876089,0.7834806,0.2876849,-0.34878635,0.4263141,7.859081268310547,3.241205930709839,11.69130802154541,35.92219924926758,-39.515769958496094, 13.27902603149414
404,1994892756,0.7791973,0.29291502,-0.35101062,0.4287704,8.201214790344238,2.72593355178833,10.175792694091797,35.27711868286133,-31.861347198486328, 17.123414993286133
405,1994909423,0.7751818,0.29696086,-0.35289034,0.43171299,8.571171760559082,3.048069715499878,9.356077194213867,30.587024688720703,-25.006637573242188, 21.13300132751465
406,1994926090,0.7718068,0.29925826,-0.3550573,0.43438864,8.726483345031738,3.551272392272949,9.07166576385498,18.453826904296875,-20.419225692749023, 22.672910690307617
407,1994942757,0.76918435,0.29918605,-0.3579984,0.4366696,9.109590530395508,3.2369611263275146,8.556571960449219,1.0355569124221802,-16.497989654541016, 25.753557205200195
408,1994959424,0.7667969,0.29855528,-0.36106908,0.43876702,9.706649780273438,3.6419732570648193,8.258865356445312,-3.2587778568267822,-15.359611511230469, 25.753591537475586
409,1994976091,0.76509076,0.29697022,-0.36448067,0.4399987,9.79799747467041,3.6549439430236816,8.571160316467285,-12.89444351196289,-14.398988723754883, 22.24591636657715
410,1994992758,0.7634817,0.29641604,-0.36693066,0.4411294,8.99974536895752,2.7622854709625244,8.279781341552734,-5.041637420654297,-12.46966552734375, 16.920000076293945
411,1995009425,0.76161367,0.29817295,-0.36743465,0.4427519,9.17346477508545,3.448850154876709,7.6976094245910645,14.74806022644043,-8.968477249145508, 10.519091606140137
412,1995026092,0.7608634,0.29833037,-0.36773428,0.44368625,10.260310173034668,4.397638320922852,7.277706146240234,2.934748411178589,-1.6498807668685913, 7.18358850479126
413,1995042759,0.76201946,0.29540926,-0.36822167,0.44325247,10.20819091796875,4.270252704620361,6.8377790451049805,-21.162927627563477,8.769259452819824, 2.4457802772521973
414,1995059426,0.7648295,0.29002887,-0.3682028,0.44197997,9.552445411682129,3.5441908836364746,7.3434553146362305,-38.040687561035156,21.404787063598633, -1.7349649667739868
415,1995076093,0.768887,0.28388548,-0.36662066,0.44024017,9.055438995361328,3.4773240089416504,7.139657974243164,-41.01359939575195,34.14386749267578, -9.134184837341309
416,1995092760,0.77415466,0.27777934,-0.36282942,0.438039,8.617738723754883,3.0609047412872314,7.234800338745117,-37.69757843017578,47.83102035522461, -19.607330322265625
417,1995109427,0.7804313,0.272072,-0.35660616,0.43558735,8.554343223571777,3.0607826709747314,6.9228644371032715,-30.838865280151367,61.576499938964844, -29.596763610839844
418,1995126094,0.7878879,0.2660214,-0.34821463,0.4326798,8.758103370666504,2.8830575942993164,6.313506603240967,-29.55378532409668,76.26018524169922, -38.773033142089844
419,1995142761,0.7963766,0.2593884,-0.33738345,0.42973796,9.024293899536133,2.0233683586120605,6.276473522186279,-27.463783264160156,93.62906646728516, -45.08906173706055
420,1995159428,0.80566424,0.25151178,-0.32433334,0.42714745,9.268620491027832,1.2195864915847778,6.631946563720703,-28.353078842163086,111.96842956542969, -46.626792907714844
421,1995176095,0.8149922,0.24439137,-0.30852264,0.42529342,8.790189743041992,1.2600679397583008,6.248682498931885,-14.484609603881836,126.45372772216797, -49.18480682373047
422,1995192762,0.8247743,0.2358983,-0.29114294,0.42347994,8.123311042785645,1.3547402620315552,6.08512020111084,-18.268505096435547,140.36195373535156, -50.07401657104492
423,1995209429,0.8348321,0.22587875,-0.2724636,0.42166078,7.549887657165527,1.2665475606918335,5.887689590454102,-23.603761672973633,152.79249572753906, -50.02695846557617
424,1995226096,0.8449331,0.21465562,-0.2525924,0.41977146,7.230342388153076,1.4608722925186157,5.970561981201172,-27.256025314331055,163.1737518310547, -50.22209167480469
425,1995242763,0.85475296,0.20284532,-0.23162523,0.41785288,6.396177291870117,0.36545896530151367,5.407886981964111,-27.143394470214844,170.78662109375, -50.24611282348633
426,1995259430,0.86439145,0.18971375,-0.20967963,0.41577724,6.202876567840576,0.8965416550636292,5.837269306182861,-32.065677642822266,179.912353515625, -49.99471664428711
427,1995276097,0.87348413,0.17500167,-0.18736508,0.41387725,5.866090297698975,0.2621053159236908,5.719429969787598,-39.422828674316406,186.15036010742188, -45.6663932800293
428,1995292764,0.8816742,0.15992011,-0.16488717,0.41217548,5.5727057456970215,0.24334272742271423,5.34152364730835,-39.79767608642578,187.34815979003906, -41.705440521240234
429,1995309431,0.8888605,0.14408168,-0.14251639,0.410922,5.44934606552124,0.08272213488817215,6.313278675079346,-43.04154586791992,188.29855346679688, -35.237186431884766
430,1995326098,0.8946953,0.12858345,-0.12051008,0.41044363,4.9460835456848145,0.04225276783108711,6.540575981140137,-39.8464241027832,184.64488220214844, -26.71538734436035
431,1995342765,0.89936864,0.11243516,-0.099419996,0.4106215,4.695928573608398,0.6473374962806702,6.492432117462158,-44.812705993652344,180.5438995361328, -18.104257583618164
432,1995359432,0.90293825,0.09541282,-0.0795304,0.41142887,4.115192413330078,0.6741105318069458,6.842596054077148,-52.29926300048828,175.40713500976562, -9.608026504516602
433,1995376099,0.9053131,0.07905889,-0.06062058,0.41289592,3.261997699737549,0.7621508836746216,6.836197376251221,-49.75233840942383,167.2844696044922, -1.883388876914978
434,1995392766,0.90664464,0.06430474,-0.043113183,0.41473094,2.5237910747528076,0.9465043544769287,6.333192348480225,-43.0367431640625,153.82876586914062, 3.4429445266723633
435,1995409433,0.9072609,0.050792877,-0.027732877,0.41656807,2.2753255367279053,1.5749832391738892,5.447213649749756,-41.03330993652344,136.85189819335938, 6.054170608520508
436,1995426100,0.907511,0.038406026,-0.014368162,0.41802183,1.5162484645843506,1.4379141330718994,5.968227863311768,-39.75135803222656,120.89197540283203, 5.189128398895264
437,1995442767,0.90747833,0.029113216,-0.0017705231,0.41908523,0.5235028266906738,0.9204474687576294,6.7061381340026855,-22.62628173828125,107.09783935546875, 3.4542300701141357
438,1995459434,0.90744555,0.023148729,0.010244551,0.41940686,0.3291047215461731,1.0080106258392334,5.752993106842041,-3.542576789855957,93.71036529541016, -1.1063876152038574
439,1995476101,0.90737265,0.019128034,0.020750549,0.4193792,-0.3755964934825897,0.4836656451225281,5.244349479675293,4.26289701461792,78.62442779541016, -2.801705837249756
440,1995492768,0.90736544,0.016242541,0.028804798,0.41903996,-1.0063265562057495,1.1203805208206177,4.516226291656494,4.325854301452637,59.9743537902832, -4.4550018310546875
441,1995509435,0.90733963,0.01480407,0.03409364,0.4187523,-1.3458421230316162,1.1225529909133911,4.478366851806641,5.370339870452881,38.515113830566406, -3.4872522354125977
442,1995526102,0.90731543,0.013520213,0.036729217,0.41862544,-1.7341097593307495,1.0968564748764038,5.282898426055908,-1.3485236167907715,21.48051643371582, -2.1824488639831543
443,1995542769,0.90736854,0.012503359,0.037229724,0.41849726,-1.6811110973358154,1.2656762599945068,5.073158264160156,-5.839121341705322,7.313394546508789, -2.1449360847473145
444,1995559436,0.9074234,0.012945621,0.036473796,0.41843164,-1.5668237209320068,0.877833902835846,4.578287124633789,-0.3777232766151428,-4.772427082061768, -1.2742831707000732
445,1995576103,0.907458,0.014398691,0.034808476,0.4184509,-1.5917896032333374,1.4617414474487305,5.753581523895264,3.294339418411255,-13.389700889587402, -0.3477310538291931
446,1995592770,0.9074369,0.016128855,0.031294648,0.4187108,-2.0887529850006104,1.5457466840744019,4.364930152893066,-0.3617417514324188,-25.72720718383789, 1.567814588546753
447,1995609437,0.90737337,0.01826403,0.023277534,0.41928306,-1.9454444646835327,2.787544012069702,-1.0449939966201782,-10.88003921508789,-55.006465911865234, 4.233769416809082
448,1995626104,0.90744823,0.024458932,-0.0021217633,0.41944596,3.9567861557006836,2.0870583057403564,-28.499570846557617,-35.6807746887207,-175.30174255371094, 4.130430698394775
449,1995642771,0.9074846,0.02047022,-0.045803163,0.41707888,14.38206672668457,1.0088682174682617,-6.372023582458496,-152.09326171875,-260.3562927246094, -8.293285369873047
450,1995659438,0.9058797,0.017383695,-0.08274817,0.41500908,-2.6016907691955566,-4.196180820465088,15.450681686401367,-126.81080627441406,-220.89085388183594, -2.91235613822937
451,1995676105,0.9036282,0.024165094,-0.11601146,0.41159877,6.707343101501465,-6.872159481048584,-6.299534797668457,-55.366355895996094,-226.8119659423828, -15.455536842346191
452,1995692772,0.9003653,0.031064088,-0.14576788,0.4088143,-2.494483232498169,2.5288102626800537,6.251155376434326,-43.81508255004883,-205.82337951660156, -9.391429901123047
453,1995709439,0.89728296,0.033963393,-0.17130974,0.40544173,4.203996181488037,4.552225112915039,4.339419364929199,-57.421085357666016,-168.57723999023438, -10.401959419250488
454,1995726106,0.8949564,0.043697257,-0.19112015,0.40077016,7.009488105773926,3.0584371089935303,8.094581604003906,-1.0954704284667969,-151.6189422607422, -29.84954261779785
455,1995742773,0.89225614,0.052394953,-0.20940414,0.39659026,8.599023818969727,-0.5791327357292175,9.221563339233398,-2.5818278789520264,-139.62646484375, -24.835744857788086
456,1995759440,0.888907,0.06040705,-0.22754018,0.39296448,9.664657592773438,-2.803152322769165,7.191438674926758,-5.329186916351318,-137.48654174804688, -18.71575355529785
457,1995776107,0.8850296,0.0660601,-0.24407807,0.3908764,7.680699825286865,-3.491342544555664,5.028008460998535,-12.720511436462402,-121.39888000488281, -4.873917579650879
458,1995792774,0.88099116,0.07175121,-0.25815496,0.38995174,8.64123821258545,-3.3894426822662354,6.799108505249023,-3.751025915145874,-106.17560577392578, 1.4250510931015015
459,1995809441,0.87695026,0.0785082,-0.26968086,0.38995767,10.726065635681152,-2.158223867416382,8.702140808105469,11.28280258178711,-93.04991912841797, 3.883242607116699
460,1995826108,0.8727298,0.088101506,-0.2776168,0.3918033,11.20910358428955,-1.8874925374984741,9.814024925231934,41.563087463378906,-78.26197814941406, 8.23752498626709
461,1995842775,0.86820126,0.099456236,-0.28228447,0.395791,11.475578308105469,-0.21676889061927795,10.540483474731445,65.24834442138672,-62.618865966796875, 16.549184799194336
462,1995859442,0.8632463,0.11079983,-0.28560895,0.40119436,11.184175491333008,1.2315312623977661,12.069025993347168,71.87650299072266,-54.37980651855469, 25.250141143798828
463,1995876109,0.85816264,0.12289592,-0.28776357,0.40699604,9.993474006652832,2.2985074520111084,12.930145263671875,80.42206573486328,-49.45187759399414, 25.602710723876953
464,1995892776,0.8527942,0.1362926,-0.2896765,0.412619,9.93331241607666,2.50943660736084,11.527968406677246,88.61373138427734,-52.41914749145508, 22.580663681030273
465,1995909443,0.846678,0.15044157,-0.2916589,0.4188545,10.188427925109863,2.1078240871429443,12.143854141235352,86.94955444335938,-55.5408935546875, 18.501251220703125
466,1995926110,0.8407703,0.16531813,-0.29198498,0.42487696,10.081496238708496,2.162386894226074,14.115192413330078,95.61734771728516,-48.017330169677734, 14.090605735778809
467,1995942777,0.8353586,0.1805887,-0.28930217,0.4311244,9.020903587341309,1.5122056007385254,12.82916259765625,106.3543701171875,-30.79279899597168, 9.717284202575684
468,1995959444,0.8275665,0.19343847,-0.29422972,0.4372004,6.50794792175293,1.732860803604126,8.836822509765625,72.39339447021484,-72.50264739990234, 30.18278694152832
469,1995976111,0.8190583,0.20487665,-0.30568472,0.4401431,9.806140899658203,4.731977939605713,5.7179107666015625,39.80988311767578,-111.11359405517578, 26.891592025756836
470,1995992778,0.8126693,0.20953456,-0.31913888,0.44024372,11.720630645751953,1.1380681991577148,12.385555267333984,-13.486552238464355,-101.30722045898438, 21.99409294128418
471,1996009445,0.8050993,0.22000423,-0.32856816,0.44210446,8.201354026794434,-0.5018265843391418,18.49993324279785,37.33661651611328,-96.46652221679688, 17.700531005859375
472,1996026112,0.79744387,0.23251846,-0.33593678,0.4440328,8.934576988220215,4.128812789916992,16.813100814819336,54.92696762084961,-91.6496353149414, 10.642438888549805
473,1996042779,0.79222375,0.23888698,-0.34444302,0.443479,9.339618682861328,4.064959526062012,13.73327350616455,8.115602493286133,-77.68487548828125, 5.978959083557129
474,1996059446,0.7873696,0.24438329,-0.35206798,0.4431412,7.978978633880615,1.5863760709762573,13.246620178222656,6.87955379486084,-69.10037994384766, 7.604354381561279
475,1996076113,0.7823972,0.25190073,-0.35716793,0.44365737,8.074997901916504,2.302532196044922,13.010498046875,33.79032897949219,-60.45035934448242, 7.4757256507873535
476,1996092780,0.7774676,0.26060215,-0.36031288,0.4447534,8.44605541229248,3.19592547416687,12.34740161895752,47.474708557128906,-52.576717376708984, 4.195825576782227
477,1996109447,0.7730621,0.267925,-0.36321324,0.44572115,8.494215965270996,2.9135146141052246,11.686314582824707,39.585628509521484,-46.105186462402344, 4.925738334655762
478,1996126114,0.7687447,0.2744426,-0.3658561,0.44705948,8.014177322387695,2.0788521766662598,11.324577331542969,36.85300827026367,-41.47208786010742, 8.19627571105957
479,1996142781,0.7641173,0.28118086,-0.36746368,0.44948038,8.193177223205566,2.1481833457946777,11.120863914489746,44.517887115478516,-35.521514892578125, 12.380642890930176
480,1996159448,0.759649,0.2880088,-0.3680969,0.452205,7.892220973968506,3.1402578353881836,10.491745948791504,48.46729278564453,-29.789215087890625, 11.39355182647705
481,1996176115,0.756073,0.29235265,-0.36902544,0.45464692,8.048502922058105,2.956573486328125,9.359159469604492,32.08338165283203,-21.998353958129883, 14.0528564453125
482,1996192782,0.75253874,0.29585412,-0.3699892,0.45745358,8.164956092834473,2.660731792449951,8.405068397521973,28.426868438720703,-18.771696090698242, 18.057924270629883
483,1996209449,0.7495215,0.29806075,-0.37111053,0.460059,8.461859703063965,3.581770181655884,8.349579811096191,19.66048240661621,-14.648541450500488, 19.027910232543945
484,1996226116,0.74706024,0.2991291,-0.37262458,0.46214047,8.438750267028809,3.2436907291412354,7.597253322601318,10.054677963256836,-12.763104438781738, 18.317468643188477
485,1996242783,0.7449756,0.29957822,-0.37470564,0.46352994,9.138690948486328,3.7666804790496826,7.0222649574279785,2.5070455074310303,-14.187088966369629, 16.34954261779785
486,1996259450,0.7438363,0.29861006,-0.37734517,0.46384314,9.705294609069824,3.7376644611358643,7.74209451675415,-11.278647422790527,-12.31263256072998, 12.662535667419434
487,1996276117,0.74268526,0.29884407,-0.37877473,0.4643715,9.026700019836426,2.92048978805542,8.469508171081543,-0.7136086225509644,-9.558842658996582, 8.231996536254883
488,1996292784,0.7417393,0.2994714,-0.37895304,0.4653325,9.947699546813965,4.3765387535095215,7.597023010253906,5.985131740570068,-3.041137218475342, 6.213571548461914
489,1996309451,0.7433955,0.29518095,-0.38067326,0.46402508,9.749347686767578,4.8160858154296875,6.710758209228516,-35.330894470214844,6.92982292175293, 2.3523387908935547
490,1996326118,0.7468398,0.28885907,-0.38163835,0.46167412,9.721117973327637,3.7003021240234375,6.935004711151123,-49.71003341674805,19.83431053161621, -4.854078769683838
491,1996342785,0.7510982,0.2832727,-0.3802892,0.4593347,9.622552871704102,3.5427656173706055,7.2148284912109375,-40.20429229736328,31.537914276123047, -13.88368034362793
492,1996359452,0.75674665,0.27751854,-0.3765133,0.45667964,9.559581756591797,3.0714292526245117,7.448465347290039,-36.96769332885742,47.60939407348633, -24.17255973815918
493,1996376119,0.7634605,0.27233148,-0.37017927,0.4537963,9.712149620056152,2.8001303672790527,7.334652900695801,-28.632204055786133,61.449462890625, -35.04875564575195
494,1996392786,0.77144676,0.26746905,-0.3609081,0.45063952,9.725902557373047,2.40492844581604,7.2786359786987305,-20.863021850585938,78.58036041259766, -46.782135009765625
495,1996409453,0.78025824,0.26265985,-0.34877497,0.4478429,9.65501594543457,1.813531517982483,7.184361457824707,-12.353140830993652,96.31454467773438, -52.83647155761719
496,1996426120,0.79017484,0.2561139,-0.33473045,0.44495544,9.683633804321289,1.3566222190856934,6.6801862716674805,-18.006893157958984,114.42191314697266, -56.04446792602539
497,1996442787,0.8005707,0.24924617,-0.3184003,0.44224894,9.871161460876465,0.839921236038208,6.54224157333374,-13.19249153137207,129.2863006591797, -59.855934143066406
498,1996459454,0.81098765,0.2422616,-0.30007023,0.43996188,9.505891799926758,0.24015456438064575,6.623857498168945,-6.866506576538086,141.47500610351562, -60.840606689453125
499,1996476121,0.8215928,0.23427899,-0.28023934,0.43768114,8.847545623779297,0.4194194972515106,6.546816349029541,-8.173866271972656,153.3269500732422, -61.88560485839844
500,1996492788,0.83232945,0.22442713,-0.2592755,0.43547285,7.5146074295043945,-0.022221790626645088,6.836130142211914,-15.381125450134277,165.7870330810547, -60.16147994995117
501,1996509455,0.8426899,0.21403947,-0.23707084,0.43342644,7.003871917724609,0.5810068249702454,6.657142162322998,-13.8351411819458,174.11570739746094, -59.137088775634766
502,1996526122,0.8528431,0.2011056,-0.21471144,0.43140975,6.658814430236816,-0.0030346624553203583,6.252464294433594,-27.759679794311523,182.35536193847656, -54.48162841796875
503,1996542789,0.8625024,0.18640643,-0.19258526,0.42924765,6.864054203033447,0.7563559412956238,5.716256141662598,-38.30782699584961,185.35443115234375, -51.00465774536133
504,1996559456,0.8712668,0.17041117,-0.17093547,0.42735857,6.501797676086426,0.1614668220281601,5.598087310791016,-45.884891510009766,185.60655212402344, -44.47055435180664
505,1996576123,0.87882596,0.15406923,-0.14950435,0.42611772,5.626692295074463,-0.17197667062282562,5.185879707336426,-46.408668518066406,184.74990844726562, -36.43687057495117
506,1996592790,0.8852939,0.13686197,-0.12832212,0.42550802,5.032088279724121,0.11817316710948944,6.228599548339844,-50.534427642822266,185.41566467285156, -28.323293685913086
507,1996609457,0.89043224,0.12058757,-0.10689461,0.42563227,4.1039137840271,-0.15134453773498535,6.779519081115723,-42.21434020996094,183.76626586914062, -21.058921813964844
508,1996626124,0.894393,0.1052568,-0.085504,0.42622945,3.332125663757324,0.6160581111907959,7.442385673522949,-35.187374114990234,180.3548126220703, -15.413788795471191
509,1996642791,0.8973886,0.09050378,-0.06492648,0.42695147,2.650583267211914,0.9844288229942322,7.421842098236084,-33.232139587402344,173.21725463867188, -11.590445518493652
510,1996659458,0.899405,0.07690041,-0.045542255,0.42788208,2.4187722206115723,1.4064483642578125,7.066995143890381,-28.93778419494629,162.19671630859375, -7.216121196746826
511,1996676125,0.90057355,0.064740196,-0.027614167,0.42896807,2.42764949798584,1.3864059448242188,5.821448802947998,-23.81324005126953,148.79408264160156, -3.456441640853882
512,1996692792,0.9009845,0.054208115,-0.011296675,0.43030304,1.6666041612625122,0.9489929676055908,5.051251411437988,-18.11494255065918,134.03321838378906, 0.7124952077865601
513,1996709459,0.9010414,0.046160016,0.004145168,0.4312503,0.9489152431488037,1.4321515560150146,5.454351425170898,-5.222648620605469,121.12091827392578, -0.5221803188323975
514,1996726126,0.9009355,0.04119238,0.018843252,0.43158245,0.0750589594244957,0.9922349452972412,5.379349231719971,11.704869270324707,107.20414733886719, -3.538283586502075
515,1996742793,0.9008377,0.03804701,0.03150988,0.43133634,-0.5663455128669739,1.4543431997299194,4.903153419494629,17.030052185058594,89.04145812988281, -6.343118190765381
516,1996759460,0.9006882,0.036866587,0.041138794,0.43094,-0.9531495571136475,1.5242464542388916,3.1956543922424316,20.215824127197266,64.34852600097656, -5.907382965087891
517,1996776127,0.9004872,0.036527533,0.047031835,0.43078634,-1.7222504615783691,1.4644215106964111,2.817979335784912,14.273693084716797,38.76430892944336, -3.071071147918701
518,1996792794,0.9004861,0.03715225,0.049506795,0.4304573,-1.7668089866638184,2.1001906394958496,2.999776601791382,10.096774101257324,14.584149360656738, -3.57771372795105
519,1996809461,0.9007235,0.038013622,0.04949364,0.4298867,-2.074514150619507,1.9781192541122437,3.7449755668640137,4.174864292144775,-1.718292236328125, -5.060557842254639
520,1996826128,0.90114266,0.039032567,0.047120053,0.42918307,-1.7905088663101196,2.3405632972717285,4.254732608795166,-1.8661816120147705,-16.96086311340332, -5.744703769683838
521,1996842795,0.90158796,0.039934218,0.042937517,0.42860362,-2.149287700653076,2.2196497917175293,5.258869647979736,-8.02505874633789,-27.8493595123291, -4.597774982452393
522,1996859462,0.90211624,0.04090637,0.037761316,0.4278869,-2.123080015182495,1.9910365343093872,6.484579086303711,-10.538214683532715,-34.34093475341797, -5.389231204986572
523,1996876129,0.9025805,0.043011274,0.033500873,0.42705527,-2.2559542655944824,1.2579621076583862,8.587472915649414,-0.7989014983177185,-32.06996536254883, -5.865650653839111
524,1996892796,0.90292954,0.044250965,0.03004947,0.42644748,-2.624133586883545,1.141708493232727,9.72141170501709,-3.808565616607666,-24.48076057434082, -4.562912464141846
525,1996909463,0.9031757,0.042190626,0.026044184,0.4263979,-2.580000400543213,1.6866426467895508,10.03111743927002,-25.994245529174805,-18.130311965942383, -1.2961866855621338
526,1996926130,0.90330285,0.035926964,0.020043042,0.4270266,-2.1983301639556885,1.8706161975860596,7.614761829376221,-58.04368591308594,-18.0601863861084, 3.0977365970611572
527,1996942797,0.9032861,0.028372733,0.0068043075,0.42804542,-1.7479395866394043,0.5108117461204529,-8.832143783569336,-87.35588836669922,-59.1713981628418, 7.557216167449951
528,1996959464,0.90354943,0.023539064,-0.02924799,0.42683607,14.518531799316406,2.6158838272094727,-31.69037437438965,-137.60101318359375,-209.40255737304688, -2.514058828353882
529,1996976131,0.9021273,0.015109568,-0.069202505,0.425616,5.635982036590576,-6.484932899475098,12.547148704528809,-171.25082397460938,-222.88693237304688, 3.752223491668701
530,1996992798,0.9004351,0.019569982,-0.100786425,0.42270103,8.915704727172852,-4.01017427444458,0.7991231679916382,-67.3245849609375,-208.8195037841797, -12.95202350616455
531,1997009465,0.897354,0.026352463,-0.13447854,0.4194962,2.002187728881836,-1.5994338989257812,3.1926705837249756,-58.948577880859375,-229.3314666748047, -12.009714126586914
532,1997026132,0.8939584,0.03159696,-0.16240837,0.41648963,0.9968658089637756,1.7194888591766357,6.039004802703857,-51.51548385620117,-189.5478057861328, -9.480859756469727
533,1997042799,0.8908726,0.042742167,-0.1841883,0.4130302,3.955716609954834,3.3099677562713623,6.563784599304199,1.7389776706695557,-168.42840576171875, -21.036895751953125
534,1997059466,0.88777024,0.05065233,-0.20321935,0.4098788,7.465395450592041,1.5622966289520264,7.566661357879639,-9.984158515930176,-142.28453063964844, -15.74592399597168
535,1997076133,0.88392025,0.06133688,-0.21921268,0.40849596,9.959087371826172,0.200224369764328,8.794504165649414,18.190977096557617,-131.8525390625, -7.721546649932861
536,1997092800,0.87993544,0.07189679,-0.23320895,0.40762526,9.318598747253418,-2.4851584434509277,8.392402648925781,23.86038589477539,-119.1659164428711, -4.846187591552734
537,1997109467,0.8755019,0.08191717,-0.24586014,0.40784687,9.423572540283203,-3.2755157947540283,6.528960227966309,26.4143009185791,-109.54042053222656, 3.208678960800171
538,1997126134,0.87059104,0.09250315,-0.25725004,0.40906844,10.585121154785156,-4.231812953948975,9.087547302246094,35.41822814941406,-103.60252380371094, 8.862428665161133
539,1997142801,0.86533725,0.105517186,-0.26630855,0.4112635,10.973565101623535,-3.870525360107422,10.328539848327637,58.57467269897461,-96.31299591064453, 9.807373046875
540,1997159468,0.8597404,0.119133875,-0.27312863,0.41479468,11.048362731933594,-2.720064878463745,11.813889503479004,71.2979507446289,-84.23741912841797, 15.918278694152832
541,1997176135,0.8538679,0.13260509,-0.278123,0.41949183,11.134058952331543,-1.7470505237579346,12.804970741271973,78.1406021118164,-72.52330780029297, 22.29924201965332
542,1997192802,0.8482217,0.14608143,-0.28245696,0.4235542,10.175202369689941,0.6660146117210388,12.64095401763916,86.26839447021484,-69.26469421386719, 25.354206085205078
543,1997209469,0.8422422,0.15844141,-0.28759813,0.4275651,8.68307876586914,2.6111514568328857,11.777128219604492,74.75133514404297,-71.16204833984375, 25.69962501525879
544,1997226136,0.836546,0.16843298,-0.29354024,0.43087757,9.295536994934082,3.5257914066314697,13.256300926208496,53.41107177734375,-68.91002655029297, 22.739559173583984
545,1997242803,0.8318297,0.18065783,-0.29438028,0.43446812,9.326127052307129,3.8083598613739014,14.910392761230469,78.19483947753906,-43.89341735839844, 8.628684043884277
546,1997259470,0.82572263,0.19445223,-0.29564375,0.43927822,6.558324813842773,2.4754481315612793,10.630685806274414,88.72522735595703,-52.45819091796875, 15.992944717407227
547,1997276137,0.8175878,0.20584154,-0.3044664,0.4432606,8.724841117858887,4.725586891174316,5.369631767272949,52.40239715576172,-93.48776245117188, 31.815372467041016
548,1997292804,0.80999273,0.2141952,-0.31650057,0.44481426,11.431706428527832,4.476850509643555,7.378342151641846,18.555410385131836,-104.53544616699219, 26.819604873657227
549,1997309471,0.80191296,0.22519138,-0.32538646,0.44760275,9.384782791137695,0.8641974925994873,14.454583168029785,45.37533950805664,-94.2479476928711, 24.441791534423828
550,1997326138,0.79065716,0.24458669,-0.32915637,0.45463705,7.684152603149414,0.736530065536499,16.325122833251953,122.77886962890625,-92.6365737915039, 31.777114868164062
551,1997342805,0.7794318,0.26333928,-0.33218643,0.4612928,8.30146312713623,4.592623710632324,13.98093318939209,122.21014404296875,-87.47152709960938, 30.986915588378906
552,1997359472,0.7712839,0.2747727,-0.3379109,0.46415254,9.093369483947754,5.354067325592041,13.352320671081543,63.2477912902832,-78.6563720703125, 24.597917556762695
553,1997376139,0.7654966,0.28225437,-0.3443475,0.46451312,8.06058406829834,4.591078281402588,14.249306678771973,29.709741592407227,-69.23551177978516, 14.434228897094727
554,1997392806,0.76156855,0.28683645,-0.35013494,0.46383613,8.310060501098633,3.831906318664551,14.185538291931152,10.439845085144043,-54.40092468261719, 8.722084999084473
555,1997409473,0.75874436,0.2893937,-0.35514393,0.46306723,7.671022891998291,2.833312749862671,13.650466918945312,-0.07755573838949203,-41.616172790527344, 8.118130683898926
556,1997426140,0.75614345,0.2912424,-0.35936248,0.46290797,7.590488433837891,2.6892125606536865,11.776905059814453,-0.19645027816295624,-33.698368072509766, 10.775867462158203
557,1997442807,0.7538227,0.29255563,-0.36313498,0.462921,7.934213161468506,3.8171207904815674,9.428707122802734,-1.6854619979858398,-28.802461624145508, 11.235515594482422
558,1997459474,0.751738,0.2931149,-0.3670034,0.4629062,7.996299743652344,3.402770757675171,8.031020164489746,-6.463064670562744,-26.456371307373047, 12.466103553771973
559,1997476141,0.7492289,0.29530025,-0.36930725,0.46375245,7.911355018615723,3.323643445968628,8.63315486907959,9.932048797607422,-22.92877960205078, 11.050097465515137
560,1997492808,0.74650526,0.29915947,-0.3696539,0.46539202,7.8401570320129395,3.906676769256592,9.726022720336914,27.231698989868164,-17.180179595947266, 7.636013984680176
561,1997509475,0.7440206,0.30228218,-0.36975205,0.46727127,7.868207931518555,4.179234504699707,9.399039268493652,24.3450984954834,-12.539872169494629, 9.516444206237793
562,1997526142,0.7421254,0.30378035,-0.37038836,0.46880695,8.27665901184082,5.010351181030273,9.102572441101074,12.183420181274414,-9.37047004699707, 11.169564247131348
563,1997542809,0.74086094,0.30493137,-0.3707452,0.4697767,8.190733909606934,4.748983383178711,8.642255783081055,8.516131401062012,-6.466237545013428, 6.620342254638672
564,1997559476,0.7399923,0.30559546,-0.37117314,0.47037578,8.346040725708008,3.958223819732666,7.670109272003174,3.998213529586792,-5.077384948730469, 4.904979705810547
565,1997576143,0.7391741,0.30654466,-0.3715493,0.47074765,7.915278911590576,3.836749315261841,6.5765299797058105,4.909552574157715,-6.1088104248046875, 2.7859902381896973
566,1997592810,0.7393807,0.30617884,-0.3723717,0.47001082,8.857956886291504,5.12786865234375,7.197811603546143,-8.230412483215332,-3.8429691791534424, -1.834612488746643
567,1997609477,0.74094564,0.30349237,-0.37382728,0.46812955,9.764923095703125,3.6163618564605713,7.901050567626953,-27.90202522277832,1.4941655397415161, -4.714043140411377
568,1997626144,0.74254835,0.30200475,-0.37361366,0.46672052,10.02917766571045,4.227806091308594,7.769798755645752,-15.298831939697266,7.20676326751709, -8.983294486999512
569,1997642811,0.74616265,0.29704568,-0.3734767,0.46424177,9.6796236038208,4.169740676879883,7.462960720062256,-40.21722412109375,20.891448974609375, -11.802436828613281
570,1997659478,0.750732,0.29171512,-0.3718773,0.46153125,9.450987815856934,3.6874988079071045,7.058486461639404,-40.02793884277344,31.550209045410156, -18.060405731201172
571,1997676145,0.7565435,0.28572908,-0.36834553,0.45860934,9.419964790344238,3.2577855587005615,6.574275970458984,-40.333274841308594,46.3569450378418, -25.29583740234375
572,1997692812,0.76347846,0.28013027,-0.36235192,0.455334,8.947127342224121,2.092057943344116,6.569809913635254,-33.67647933959961,60.109947204589844, -36.50998306274414
573,1997709479,0.7708069,0.27686757,-0.3532192,0.45214748,9.043368339538574,2.391378879547119,6.707033634185791,-12.120176315307617,70.44404602050781, -49.184356689453125
574,1997726146,0.7791666,0.27330443,-0.34206182,0.44855106,9.735346794128418,2.0443527698516846,6.696073055267334,-10.378265380859375,83.85773468017578, -57.722904205322266
575,1997742813,0.7883298,0.26923758,-0.32890686,0.4448231,10.322832107543945,1.6546669006347656,6.69660758972168,-8.732098579406738,97.80045318603516, -63.52526092529297
576,1997759480,0.7983541,0.26331422,-0.31453678,0.4408663,9.824112892150879,0.46418628096580505,6.939338684082031,-17.179340362548828,111.65178680419922, -65.5168228149414
577,1997776147,0.80873775,0.25578874,-0.29916486,0.4370537,9.021132469177246,0.3264264464378357,6.857643127441406,-23.243600845336914,123.10221862792969, -64.25544738769531
578,1997792814,0.8193687,0.24658339,-0.28297997,0.4333063,8.320882797241211,-0.03790085017681122,6.066437721252441,-30.407224655151367,133.3473358154297, -62.702571868896484
579,1997809481,0.8300489,0.23591378,-0.26568785,0.42985302,7.17331075668335,-1.0330595970153809,6.029891014099121,-34.831424713134766,144.60813903808594, -60.31477737426758
580,1997826148,0.840474,0.22411361,-0.24711901,0.42697638,6.488861083984375,-0.49009567499160767,6.646113395690918,-35.98439025878906,155.75991821289062, -56.377620697021484
581,1997842815,0.8504336,0.21075293,-0.22785972,0.4247659,6.1144118309021,-0.7947597503662109,6.896106243133545,-41.07712173461914,164.60594177246094, -49.65652847290039
582,1997859482,0.8597923,0.19579409,-0.20838596,0.42308086,5.994682312011719,-0.5306527614593506,6.708093643188477,-48.045318603515625,170.3864288330078, -42.7166633605957
583,1997876149,0.86811453,0.18070368,-0.18834208,0.42219782,5.527395725250244,-0.9325404167175293,6.16015100479126,-44.57118225097656,173.78558349609375, -35.60696029663086
584,1997892816,0.87522876,0.16608769,-0.16751243,0.42229033,5.104742527008057,-1.1166027784347534,5.790767669677734,-36.63996124267578,176.80673217773438, -27.930999755859375
585,1997909483,0.88101,0.15301426,-0.14576893,0.42327264,4.989933013916016,-0.9320220947265625,6.328800678253174,-22.099611282348633,177.37266540527344, -21.579500198364258
586,1997926150,0.8854733,0.1413078,-0.123417385,0.42513224,4.47701358795166,-0.4906211495399475,7.044829368591309,-9.731410026550293,176.74440002441406, -14.482133865356445
587,1997942817,0.88916457,0.12853546,-0.101779684,0.42720735,3.762556791305542,0.802116870880127,7.782570838928223,-17.332128524780273,175.12094116210938, -9.346405982971191
588,1997959484,0.8922568,0.11413276,-0.081655,0.4291666,3.2280609607696533,1.204180121421814,7.719986915588379,-31.284557342529297,170.17503356933594, -5.833460807800293
589,1997976151,0.8946471,0.09940301,-0.06333327,0.43094596,2.9185681343078613,1.5621236562728882,6.8298468589782715,-38.16133117675781,159.57508850097656, -3.2784934043884277
590,1997992818,0.89640343,0.084320016,-0.04747635,0.43254715,2.686114549636841,1.8299859762191772,6.195842266082764,-47.29484558105469,145.09957885742188, -0.6669580936431885
591,1998009485,0.89752144,0.07001503,-0.03381012,0.43406245,2.174562931060791,1.618424654006958,5.675426483154297,-48.69596862792969,129.06715393066406, 1.7101914882659912
592,1998026152,0.8980524,0.058042668,-0.021471547,0.4355138,1.1858731508255005,1.4576314687728882,6.277275085449219,-38.01633834838867,113.78102111816406, 3.157021999359131
593,1998042819,0.89818877,0.049972262,-0.00909227,0.43666613,0.5658979415893555,1.0259275436401367,5.537834644317627,-13.703485488891602,102.18284606933594, 1.8949306011199951
594,1998059486,0.8980823,0.046209484,0.0033139002,0.43738076,-0.3404567837715149,0.8354941606521606,5.071513652801514,13.027883529663086,89.25337219238281, -0.36244288086891174
595,1998076153,0.8977986,0.04656621,0.014519258,0.4376968,-0.7857865691184998,1.5300939083099365,4.34886360168457,34.916133880615234,69.31084442138672, -1.8183096647262573
596,1998092820,0.8973158,0.04985455,0.02370023,0.4379239,-1.3463643789291382,1.4702646732330322,4.33671236038208,46.971710205078125,47.959468841552734, -0.8286735415458679
597,1998109487,0.89679635,0.05411444,0.030333646,0.43807325,-1.6962981224060059,2.105769634246826,4.992236614227295,45.3026008605957,29.26030921936035, -0.16414065659046173
598,1998126154,0.8965024,0.058332175,0.034083582,0.43785766,-1.8445754051208496,2.1718368530273438,4.180606365203857,36.32061004638672,11.382782936096191, -2.024322509765625
599,1998142821,0.8965567,0.06149474,0.03457753,0.43727463,-1.6087522506713867,2.4869143962860107,3.4954566955566406,19.929994583129883,-5.782985210418701, -4.273575305938721
600,1998159488,0.89677775,0.063289784,0.031390153,0.4368055,-1.6098824739456177,2.3904197216033936,3.3701398372650146,0.29639720916748047,-24.392358779907227, -2.834563732147217
601,1998176155,0.89705163,0.06453313,0.024582852,0.4364969,-1.0786914825439453,3.353383779525757,2.673372745513916,-14.069920539855957,-45.032562255859375, -0.5394204258918762
602,1998192822,0.897103,0.06430385,0.0073664733,0.43705517,-0.5921307802200317,0.9199197888374329,-11.937652587890625,-54.502384185791016,-104.41539001464844, 9.854066848754883
603,1998209489,0.89633316,0.068796456,-0.027776591,0.43712983,9.833739280700684,-1.7191002368927002,-26.289592742919922,-78.91889953613281,-229.387451171875, 17.52678108215332
604,1998226156,0.89556575,0.07130835,-0.068225585,0.43384618,5.057217597961426,-1.400816798210144,10.013781547546387,-107.7412338256836,-257.4230041503906, -0.29068151116371155
605,1998242823,0.8940745,0.073412605,-0.1013535,0.43008018,0.8616374135017395,-1.0725294351577759,14.351828575134277,-88.19750213623047,-211.58349609375, -4.4840264320373535
606,1998259490,0.89157754,0.08069285,-0.13219579,0.4255618,3.45888352394104,-1.964123010635376,0.1151202917098999,-49.56557846069336,-213.9840087890625, -10.880184173583984
607,1998276157,0.8871947,0.09137129,-0.16038364,0.4228641,0.5910342931747437,4.435033321380615,0.17066305875778198,-18.198986053466797,-208.27102661132812, 1.2393782138824463
608,1998292824,0.8836396,0.0903874,-0.18816556,0.4190526,3.0002121925354004,2.536001205444336,2.483468532562256,-90.00521850585938,-171.66026306152344, 4.699163913726807
609,1998309491,0.8798886,0.10180629,-0.20680901,0.41552556,6.794346332550049,6.03328275680542,7.015740871429443,12.137496948242188,-151.9005889892578, -14.693875312805176
610,1998326158,0.8761994,0.10613808,-0.22642839,0.41199479,8.667654037475586,2.2452118396759033,9.150392532348633,-33.69476318359375,-137.39369201660156, -4.051433563232422
611,1998342825,0.8721006,0.110946245,-0.24436629,0.4091662,9.291269302368164,-4.316767692565918,5.706292629241943,-24.693967819213867,-128.6563720703125, -0.5874243378639221
612,1998359492,0.8676519,0.11545877,-0.2602361,0.40758646,8.821346282958984,-4.1628875732421875,5.883019924163818,-18.161785125732422,-114.92936706542969, 6.762185096740723
613,1998376159,0.8633584,0.117921755,-0.27446622,0.4066634,9.994285583496094,-5.1026740074157715,6.539231777191162,-24.631439208984375,-98.5, 12.562973976135254
614,1998392826,0.8586427,0.121631056,-0.2862617,0.4074222,11.547143936157227,-5.309617519378662,8.291692733764648,-6.785032749176025,-86.8547592163086, 19.3366756439209
615,1998409493,0.85330695,0.1281121,-0.2950254,0.41038382,12.760862350463867,-2.517869710922241,10.999895095825195,23.046382904052734,-75.99260711669922, 26.011754989624023
616,1998426160,0.8474533,0.1365062,-0.3005852,0.41573754,12.200641632080078,0.20057381689548492,12.428314208984375,48.67576217651367,-61.4592170715332, 34.76216125488281
617,1998442827,0.8419155,0.14642504,-0.30392328,0.42115176,10.937472343444824,3.3645167350769043,13.022911071777344,69.53555297851562,-52.49170684814453, 33.95541000366211
618,1998459494,0.8360141,0.1570703,-0.30664635,0.4270568,10.469094276428223,4.694920539855957,12.803593635559082,72.93425750732422,-51.05580139160156, 32.3445930480957
619,1998476161,0.8301192,0.16949394,-0.30855358,0.43239892,10.139104843139648,4.403602600097656,11.34167766571045,81.73714447021484,-52.07337951660156, 22.43105697631836
620,1998492828,0.8254627,0.18455896,-0.30609533,0.43686944,9.817365646362305,4.782916069030762,13.458362579345703,104.77750396728516,-33.37302780151367, 1.8612583875656128
621,1998509495,0.8196289,0.19733375,-0.30844176,0.4406039,7.2294135093688965,2.451833486557007,11.021501541137695,76.1182861328125,-57.26447296142578, 11.417505264282227
622,1998526162,0.81149006,0.21097557,-0.31523412,0.44452322,8.108909606933594,2.2428715229034424,8.224554061889648,70.26506805419922,-89.69051361083984, 23.226322174072266
623,1998542829,0.80193037,0.22559734,-0.32484156,0.4477629,11.549734115600586,3.107691764831543,7.505308151245117,67.5557861328125,-112.49130249023438, 25.85184097290039
624,1998559496,0.7927665,0.23931856,-0.33351517,0.45057288,11.95895767211914,2.064424514770508,13.002434730529785,63.613460540771484,-104.30398559570312, 22.91000747680664
625,1998576163,0.7826107,0.25507656,-0.34047192,0.4544618,8.693488121032715,2.051046371459961,17.648454666137695,84.50544738769531,-101.82617950439453, 24.782901763916016
626,1998592830,0.77342016,0.26889884,-0.34738284,0.45699018,9.10599422454834,4.624668121337891,16.98431968688965,70.2388687133789,-95.89147186279297, 19.542816162109375
627,1998609497,0.7666337,0.2772379,-0.3557109,0.45703617,9.763113021850586,4.294022083282471,15.166281700134277,29.572601318359375,-85.20850372314453, 16.314727783203125
628,1998626164,0.7608628,0.2844431,-0.3637753,0.455903,9.119386672973633,3.690779447555542,13.827055931091309,19.592212677001953,-80.20074462890625, 9.24603271484375
629,1998642831,0.75601673,0.29050016,-0.3711901,0.45416597,8.996416091918945,3.0673887729644775,12.833608627319336,12.300212860107422,-72.24327850341797, 4.847083568572998
630,1998659498,0.7514007,0.29661587,-0.37709084,0.4530108,9.038137435913086,2.547292709350586,12.67568302154541,18.36372184753418,-62.963951110839844, 4.022721290588379
631,1998676165,0.7467117,0.30250767,-0.3819627,0.4527862,8.503344535827637,2.3245041370391846,11.905369758605957,22.9867000579834,-55.39986801147461, 7.570897579193115
632,1998692832,0.7422477,0.30806285,-0.38558456,0.45331058,8.152328491210938,2.5523877143859863,11.01155948638916,26.66352081298828,-45.93748474121094, 9.02731990814209
633,1998709499,0.73809254,0.31299368,-0.38852528,0.45420554,8.281587600708008,2.6726489067077637,9.703864097595215,25.936710357666016,-39.04944610595703, 10.203611373901367
634,1998726166,0.7343822,0.31648245,-0.39122662,0.45548168,8.266670227050781,2.615938425064087,9.628416061401367,19.428482055664062,-31.428604125976562, 14.121990203857422
635,1998742833,0.7308803,0.31953377,-0.39318833,0.4572912,8.281148910522461,3.0655267238616943,9.818010330200195,20.51700210571289,-24.70973014831543, 15.763699531555176
636,1998759500,0.7279575,0.32184142,-0.3944565,0.45923853,7.924009323120117,2.973781108856201,9.058060646057129,18.05400276184082,-17.132755279541016, 15.167800903320312
637,1998776167,0.7253059,0.32366273,-0.3955389,0.46121883,8.146109580993652,2.8576672077178955,7.6557769775390625,15.685937881469727,-13.959646224975586, 15.42799186706543
638,1998792834,0.7231785,0.3242706,-0.39676487,0.46307603,8.878387451171875,3.5121958255767822,7.028282165527344,7.664393424987793,-9.737860679626465, 16.809253692626953
639,1998809501,0.721652,0.32331172,-0.39865807,0.46449956,9.368744850158691,3.1885218620300293,6.620655536651611,-4.800018787384033,-7.431817054748535, 18.550159454345703
640,1998826168,0.7200434,0.32291973,-0.40026027,0.46588883,9.46638011932373,3.0983293056488037,7.082543849945068,-0.993901789188385,-8.121142387390137, 16.47992706298828
641,1998842835,0.71845,0.32223663,-0.40172884,0.46755466,9.793749809265137,3.5240590572357178,6.628271102905273,-1.3031758069992065,-5.903349876403809, 18.342817306518555
642,1998859502,0.71823144,0.31791657,-0.40436894,0.4685709,11.32637882232666,4.762784481048584,5.92418098449707,-27.907941818237305,2.3395836353302, 23.399415969848633
643,1998876169,0.7198297,0.31036457,-0.40752763,0.46844482,11.184441566467285,3.889674186706543,5.96944522857666,-52.745643615722656,12.759445190429688, 22.088598251342773
644,1998892836,0.72243553,0.30185708,-0.410142,0.4677107,10.706425666809082,3.209805965423584,6.520991325378418,-59.6250114440918,20.061965942382812, 17.38687515258789
645,1998909503,0.7259864,0.2939147,-0.4110109,0.46650636,10.38253402709961,3.0276997089385986,6.984108924865723,-54.53376388549805,28.587873458862305, 6.818371772766113
646,1998926170,0.7304601,0.28784424,-0.40894008,0.4651257,10.200431823730469,3.2400949001312256,7.309180736541748,-38.163307189941406,39.478294372558594, -8.228297233581543
647,1998942837,0.73669004,0.28172603,-0.40460253,0.46283388,10.043572425842285,3.028219223022461,7.146261215209961,-37.23556900024414,54.11091613769531, -22.74167251586914
648,1998959504,0.7449811,0.27471763,-0.39793766,0.45954233,9.271942138671875,2.158843517303467,7.013062477111816,-41.15454864501953,72.49468994140625, -36.37571716308594
649,1998976171,0.755189,0.2666884,-0.38879335,0.45541948,9.333910942077637,1.5783922672271729,6.762203216552734,-44.47385025024414,92.0557861328125, -48.58966064453125
650,1998992838,0.76661885,0.258424,-0.37657133,0.4513389,9.219286918640137,0.3264680504798889,7.1706390380859375,-38.20671844482422,112.09538269042969, -57.242427825927734
651,1999009505,0.77877694,0.24981013,-0.36154172,0.44764858,9.817109107971191,0.3105222284793854,7.858067512512207,-31.617813110351562,130.53736877441406, -61.5959358215332
652,1999026172,0.79127496,0.24104537,-0.3438647,0.44445282,9.09576416015625,-0.7085363864898682,8.072029113769531,-23.626850128173828,146.862548828125, -64.23555755615234
653,1999042839,0.8037134,0.23227598,-0.32355902,0.44204363,7.959671497344971,-1.2459893226623535,7.469260215759277,-13.630721092224121,162.33132934570312, -64.2133560180664
654,1999059506,0.81615007,0.22192994,-0.30143028,0.44021162,7.477907180786133,-1.367114782333374,6.667405128479004,-15.47217845916748,178.11968994140625, -60.525428771972656
655,1999076173,0.8281382,0.21016559,-0.2777283,0.43918663,7.001650333404541,-1.9650942087173462,6.216117858886719,-16.265674591064453,191.5745086669922, -54.2047233581543
656,1999092840,0.8393136,0.19720244,-0.25300944,0.43891913,6.337714195251465,-1.5945534706115723,6.099503993988037,-17.336172103881836,200.577880859375, -46.729209899902344
657,1999109507,0.8495938,0.18337141,-0.22740686,0.43914855,6.173582553863525,-0.8985359072685242,6.364235877990723,-17.541324615478516,207.46778869628906, -40.94468307495117
658,1999126174,0.85864,0.16961767,-0.20100208,0.43996084,6.039436340332031,-0.7275902032852173,5.921006679534912,-12.156699180603027,210.7887420654297, -35.023475646972656
659,1999142841,0.86648375,0.15633109,-0.17393622,0.44103634,5.823862075805664,-0.17794889211654663,5.708210468292236,-5.593810558319092,212.01007080078125, -31.315998077392578
660,1999159508,0.8730842,0.14337048,-0.14679126,0.44229123,5.510026454925537,0.11341198533773422,6.131738185882568,-1.837285041809082,210.2987518310547, -27.005443572998047
661,1999176175,0.87839526,0.13091138,-0.12041906,0.4436029,4.711928367614746,0.5960574150085449,6.193077564239502,0.16960018873214722,202.9876708984375, -22.53394317626953
662,1999192842,0.8828242,0.11823982,-0.09560878,0.44440973,3.8913822174072266,1.4978300333023071,6.269655704498291,-5.498281002044678,193.10397338867188, -21.346637725830078
663,1999209509,0.886487,0.104742646,-0.07252376,0.4448713,2.9963860511779785,1.6611799001693726,7.042827606201172,-15.410902976989746,184.4416046142578, -19.184024810791016
664,1999226176,0.8895617,0.09072936,-0.051054318,0.44479406,2.7220449447631836,2.0108537673950195,6.95897912979126,-23.370412826538086,175.5382843017578, -19.275392532348633
665,1999242843,0.8918407,0.076713994,-0.03157522,0.44467774,2.333787679672241,1.22073495388031,6.223818302154541,-29.026378631591797,163.11814880371094, -15.8659029006958
666,1999259510,0.8931274,0.06418747,-0.014400692,0.44496748,1.4720535278320312,1.6574901342391968,6.00370454788208,-26.346107482910156,144.48696899414062, -9.479510307312012
667,1999276177,0.8936851,0.052399326,-0.00007466934,0.44562483,1.2700663805007935,1.3594251871109009,4.956833839416504,-30.200563430786133,124.86036682128906, -3.8326125144958496
668,1999292844,0.8936704,0.042481493,0.013063626,0.44651806,0.2108515202999115,0.7269003987312317,5.061590194702148,-22.167631149291992,111.9571762084961, -0.22628583014011383
669,1999309511,0.8934069,0.037279196,0.025699014,0.44696108,-0.48289528489112854,1.1358404159545898,3.893526554107666,5.372323989868164,94.28778076171875, -1.6753408908843994
670,1999326178,0.89295983,0.035992876,0.036715534,0.44719034,-1.5854527950286865,0.7261144518852234,3.5890605449676514,24.513809204101562,72.27384185791016, -1.3266243934631348
671,1999342845,0.8924624,0.037707046,0.04516546,0.4472689,-1.867448329925537,1.2132580280303955,3.3912034034729004,35.08687973022461,47.2143440246582, -0.7027825117111206
672,1999359512,0.8920264,0.04100955,0.05067399,0.44725773,-2.2403223514556885,1.4379737377166748,3.5670502185821533,35.77431106567383,24.17905044555664, -0.18049386143684387
673,1999376179,0.8919228,0.04507436,0.05296458,0.4468076,-2.2965564727783203,2.0544917583465576,3.10748028755188,30.58234977722168,1.7869975566864014, -2.7107162475585938
674,1999392846,0.89211375,0.04910375,0.052342493,0.4460745,-2.118040084838867,2.5000791549682617,3.691922426223755,21.375513076782227,-16.23575210571289, -4.44673490524292
675,1999409513,0.8923906,0.050981767,0.048557196,0.4457378,-2.321575403213501,2.360119581222534,4.87446928024292,-1.7592774629592896,-29.003841400146484, -1.9731441736221313
676,1999426180,0.8926921,0.05199405,0.042619087,0.44562453,-2.4746150970458984,2.4612820148468018,5.900362968444824,-13.805829048156738,-39.56254196166992, -0.1987045407295227
677,1999442847,0.8930382,0.053599164,0.036246307,0.4453051,-2.4082987308502197,2.292419195175171,6.8702826499938965,-11.50719165802002,-44.2141227722168, -1.2563635110855103
678,1999459514,0.8934729,0.05516568,0.030515453,0.44467083,-2.4360804557800293,2.3487894535064697,8.433046340942383,-9.774364471435547,-40.37168502807617, -3.6894164085388184
679,1999476181,0.8939584,0.05525211,0.024908895,0.44403318,-2.286957263946533,2.981309413909912,8.153413772583008,-18.541032791137695,-35.17821502685547, -4.206230640411377
680,1999492848,0.89440304,0.050761726,0.015642716,0.4440967,-2.510556221008301,4.204597473144531,3.038536787033081,-58.012882232666016,-43.507347106933594, 0.8426158428192139
681,1999509515,0.893351,0.046275504,-0.009741358,0.44686446,3.0911545753479004,-0.6870196461677551,-28.455259323120117,-107.12088012695312,-141.6336212158203, 27.679332733154297
682,1999526182,0.8930014,0.041213643,-0.05251292,0.44507614,17.440462112426758,0.3990494906902313,-4.1470112800598145,-164.70401000976562,-247.9364471435547, 3.1133830547332764
683,1999542849,0.89051896,0.039514787,-0.0858041,0.44503096,0.543078601360321,-5.839751243591309,15.993610382080078,-113.7890625,-199.5050811767578, 16.46828269958496
684,1999559516,0.8887744,0.045936033,-0.11626895,0.44096676,8.421911239624023,2.1994893550872803,-1.9493799209594727,-57.723915100097656,-207.78228759765625, -15.948046684265137
685,1999576183,0.88638896,0.045062672,-0.15123504,0.43521506,0.6325330138206482,1.5769379138946533,1.2465790510177612,-117.17036437988281,-213.86764526367188, -16.987398147583008
686,1999592850,0.88301116,0.048672978,-0.17878734,0.43122786,1.3584654331207275,2.061690330505371,5.742786884307861,-65.5391845703125,-182.5662078857422, -10.149435043334961
687,1999609517,0.8798459,0.05728119,-0.20249556,0.42612875,4.499853134155273,4.230203628540039,8.520780563354492,-25.293859481811523,-174.18850708007812, -24.88130760192871
688,1999626184,0.87618494,0.062451623,-0.22490402,0.42168504,8.206160545349121,1.5311087369918823,8.3226900100708,-41.32441711425781,-156.6525421142578, -15.059073448181152
689,1999642851,0.8718571,0.070527114,-0.24397631,0.41876823,9.738964080810547,-2.7941813468933105,6.60835075378418,-11.545905113220215,-145.1903076171875, -9.749821662902832
690,1999659518,0.8674215,0.07985753,-0.2591906,0.41716066,9.258685111999512,-4.360982418060303,6.295168876647949,9.453192710876465,-124.9837875366211, -5.548352241516113
691,1999676185,0.86300427,0.08967362,-0.271147,0.41672742,9.234915733337402,-3.7046713829040527,6.931519508361816,23.95056915283203,-106.06010437011719, -1.2882059812545776
692,1999692852,0.85839254,0.09887429,-0.28055722,0.41794023,10.059741973876953,-4.548733234405518,8.273879051208496,30.92660140991211,-88.35938262939453, 8.569180488586426
693,1999709519,0.85356706,0.109383374,-0.28708053,0.4207653,10.743997573852539,-3.4842147827148438,9.617789268493652,50.36571502685547,-74.24089813232422, 14.132262229919434
694,1999726186,0.84813577,0.12225382,-0.29122463,0.42533287,11.064140319824219,-1.8257251977920532,11.41085147857666,75.12686920166016,-66.86390686035156, 19.58787727355957
695,1999742853,0.8422619,0.13575105,-0.29421255,0.43081978,10.237010955810547,-0.9218765497207642,11.584495544433594,84.44227600097656,-61.98832321166992, 23.967039108276367
696,1999759520,0.83584136,0.15118496,-0.2957695,0.43707314,8.909130096435547,-1.4062435626983643,12.014304161071777,101.99942016601562,-59.7993049621582, 24.730865478515625
697,1999776187,0.82878876,0.16749182,-0.2968288,0.44378886,9.383933067321777,-0.37830716371536255,10.813263893127441,110.17367553710938,-60.41018295288086, 26.929702758789062
