PacketCounter,SampleTimeFine,Quat_W,Quat_X,Quat_Y,Quat_Z,Acc_X,Acc_Y,Acc_Z,Gyr_X,Gyr_Y,Gyr_Z 
1,2600887991,0.87117684,0.051346656,-0.29806742,0.38674358,-0.1436673253774643,0.21596220135688782,0.0746261477470398,-0.3144696354866028,-0.0371413454413414, -0.7195481061935425
2,2600904658,0.8790423,0.052768033,-0.27006823,0.38931176,2.874715805053711,0.34449249505996704,5.193987846374512,7.5612311363220215,154.30479431152344, 8.703731536865234
3,2600921325,0.88675636,0.054409362,-0.24350765,0.38911042,2.0199508666992188,0.03315875306725502,5.5239386558532715,3.2652125358581543,140.51876831054688, 4.645090579986572
4,2600937992,0.89324474,0.051939968,-0.21811305,0.38967028,0.9797560572624207,-0.11495713889598846,6.1408305168151855,-0.8540652990341187,126.80238342285156, 2.9387946128845215
5,2600954659,0.8988044,0.046862304,-0.19233604,0.3911029,0.018279530107975006,-0.7975835800170898,5.68121862411499,3.71016526222229,114.6610336303711, 2.432941436767578
6,2600971326,0.9031489,0.041316606,-0.16756319,0.39311314,-0.4244987666606903,-1.0505532026290894,4.878301620483398,21.54403305053711,101.27368927001953, -0.09792105853557587
7,2600987993,0.90622085,0.03658553,-0.14539662,0.39532927,-0.7410457134246826,-0.918707013130188,4.953701019287109,34.31428527832031,86.15596008300781, 0.10664810240268707
8,2601004660,0.90832543,0.032396886,-0.12661861,0.39731985,-1.0048363208770752,-0.14573945105075836,4.806629657745361,33.78006362915039,67.65406799316406, 1.062596321105957
9,2601021327,0.90969515,0.029429005,-0.11106725,0.39906487,-1.2124042510986328,-0.22141744196414948,4.007647514343262,29.2753963470459,48.83928298950195, 2.959075450897217
10,2601037994,0.9105813,0.028174618,-0.09913004,0.40027657,-1.6495221853256226,0.0025666868314146996,3.058516502380371,28.770267486572266,27.015779495239258, 1.3251763582229614
11,2601054661,0.91110486,0.02744427,-0.090794146,0.4011125,-1.920446753501892,-0.18012675642967224,3.529049873352051,20.484512329101562,7.058876991271973, 1.1150314807891846
12,2601071328,0.9113518,0.026620312,-0.08550625,0.401769,-2.2206945419311523,-0.004591776989400387,4.947658061981201,11.314399719238281,-9.387049674987793, 1.675795555114746
13,2601087995,0.91143644,0.025905672,-0.081936926,0.40236673,-2.216533660888672,-0.33033713698387146,6.915775299072266,6.448923110961914,-19.695581436157227, 2.278618335723877
14,2601104662,0.91143256,0.02573937,-0.07924308,0.4029254,-2.0606589317321777,-0.5638253092765808,8.994771003723145,7.824451446533203,-26.154809951782227, 2.149122476577759
15,2601121329,0.9113113,0.025798487,-0.07682087,0.40366414,-2.158200263977051,-0.7927706837654114,10.240382194519043,9.348450660705566,-27.704322814941406, 3.5124268531799316
16,2601137996,0.91099125,0.025608085,-0.07523026,0.4046973,-1.8964823484420776,-0.779960036277771,8.760497093200684,6.6149396896362305,-31.629499435424805, 6.107704162597656
17,2601154663,0.910433,0.025704442,-0.074839115,0.40601772,-1.8493016958236694,-0.8011131286621094,7.471357822418213,5.884812355041504,-37.93223190307617, 8.58718490600586
18,2601171330,0.90959877,0.026519516,-0.07594839,0.40762603,-2.020049810409546,-0.9685144424438477,6.585990905761719,6.828678607940674,-47.00918197631836, 11.029566764831543
19,2601187997,0.90859765,0.02912018,-0.077487506,0.40938738,-1.8455924987792969,-0.8723004460334778,6.951208114624023,17.429542541503906,-52.684173583984375, 11.583992004394531
20,2601204664,0.9073083,0.03377054,-0.078925595,0.4116095,-2.1039650440216064,-1.1987475156784058,7.660362243652344,31.016185760498047,-55.892364501953125, 14.300932884216309
21,2601221331,0.9052069,0.042992104,-0.083045885,0.41455474,-1.1659592390060425,-3.092236042022705,-1.7483595609664917,53.02203369140625,-84.58809661865234, 19.43340492248535
22,2601237998,0.9012469,0.05761801,-0.10352082,0.41679448,11.8527193069458,-1.1008414030075073,-26.642101287841797,42.681217193603516,-199.03982543945312, 21.68194007873535
23,2601254665,0.89550406,0.07737228,-0.1330777,0.41758418,7.226378440856934,4.215805530548096,9.482117652893066,47.6236572265625,-249.8663330078125, 17.16695785522461
24,2601271332,0.88861096,0.09168815,-0.15938544,0.42019078,3.5800037384033203,-1.7658053636550903,8.070014953613281,20.985885620117188,-209.24298095703125, 35.95016098022461
25,2601287999,0.8808229,0.11079845,-0.18335856,0.42220187,2.55765962600708,0.777692973613739,0.9326136708259583,58.18964767456055,-209.47506713867188, 27.466228485107422
26,2601304666,0.87383413,0.12442742,-0.20473716,0.42310092,0.17118701338768005,-2.2776951789855957,3.816540479660034,29.43256187438965,-176.0592803955078, 23.55600357055664
27,2601321333,0.8676295,0.13627926,-0.22162582,0.42370865,2.2811145782470703,-2.9106228351593018,7.092077255249023,31.964807510375977,-144.37466430664062, 17.424943923950195
28,2601338000,0.8614409,0.1463359,-0.23632143,0.4250384,6.743624687194824,-2.9245688915252686,8.999080657958984,30.126277923583984,-126.37400817871094, 21.384334564208984
29,2601354667,0.85533226,0.15546896,-0.2494947,0.42660105,7.479114532470703,0.7187395095825195,8.505903244018555,30.54698944091797,-113.5177993774414, 21.47711944580078
30,2601371334,0.8500112,0.15931082,-0.2664642,0.42555618,7.995986461639404,1.1623141765594482,7.580393314361572,-17.946372985839844,-120.80196380615234, 17.24567985534668
31,2601388001,0.8437135,0.16348374,-0.28510007,0.4244275,8.781837463378906,4.0967817306518555,6.644098281860352,-22.566001892089844,-132.90396118164062, 22.480684280395508
32,2601404668,0.83711874,0.16596207,-0.3052147,0.42253196,9.261726379394531,3.2537808418273926,7.479908466339111,-40.29356384277344,-138.2086944580078, 25.710716247558594
33,2601421335,0.8306299,0.16978279,-0.3235125,0.4201994,10.942992210388184,3.6807708740234375,8.701592445373535,-28.753652572631836,-132.3357696533203, 18.379898071289062
34,2601438002,0.8250441,0.17158407,-0.3401529,0.41732153,11.21730899810791,3.3374361991882324,9.445563316345215,-37.81049346923828,-115.86116790771484, 15.272185325622559
35,2601454669,0.82060474,0.17061958,-0.35664874,0.41267267,11.794623374938965,2.9574458599090576,9.55966567993164,-58.54627990722656,-106.63500213623047, 8.209549903869629
36,2601471336,0.81765014,0.16532023,-0.37370634,0.405538,11.691025733947754,2.3767383098602295,11.00918197631836,-92.40190887451172,-96.83332824707031, 1.2405717372894287
37,2601488003,0.81580603,0.15618189,-0.39055645,0.39690498,11.11768627166748,0.5285727977752686,11.477145195007324,-118.50729370117188,-83.8705062866211, -0.6765457987785339
38,2601504670,0.81421626,0.1453616,-0.406715,0.3879497,10.488852500915527,-1.3571761846542358,10.492074966430664,-127.1559829711914,-75.11151123046875, 0.5699198842048645
39,2601521337,0.8124941,0.13522989,-0.421998,0.3787931,10.598308563232422,-2.625373125076294,10.130189895629883,-121.36590576171875,-72.63838958740234, -3.0463204383850098
40,2601538004,0.8107705,0.1274246,-0.43523276,0.3701174,10.521610260009766,-2.5571155548095703,11.741072654724121,-101.607177734375,-66.8208236694336, -9.04258918762207
41,2601554671,0.80933005,0.11881703,-0.44814983,0.36059594,9.931915283203125,-1.9127360582351685,12.853067398071289,-108.0481185913086,-62.937217712402344, -12.373122215270996
42,2601571338,0.80841833,0.1076754,-0.46069062,0.35018554,9.602880477905273,-2.765012264251709,14.003633499145508,-124.39824676513672,-53.70594024658203, -11.131094932556152
43,2601588005,0.8090392,0.09337785,-0.4697062,0.34075242,9.283940315246582,-5.44391393661499,13.435595512390137,-131.497314453125,-20.98847198486328, -2.016293525695801
44,2601604672,0.80695987,0.08229373,-0.48322216,0.32945406,8.404160499572754,-5.578366756439209,6.06720495223999,-128.43833923339844,-63.50247573852539, -13.60065746307373
45,2601621339,0.80274576,0.078389965,-0.4965961,0.3206972,10.543850898742676,-5.152271270751953,4.774040222167969,-78.59452819824219,-84.55896759033203, -18.62906837463379
46,2601638006,0.7976882,0.07923017,-0.5088219,0.31387374,9.899441719055176,-4.115672588348389,8.559152603149414,-42.80666732788086,-90.4430160522461, -22.915775299072266
47,2601654673,0.7934385,0.07941767,-0.518469,0.30876893,6.670167922973633,-1.5800371170043945,14.6174898147583,-35.265708923339844,-71.14860534667969, -14.345146179199219
48,2601671340,0.7903689,0.075542994,-0.5270806,0.30297917,7.851000785827637,-3.9554977416992188,13.063749313354492,-58.36161804199219,-53.184364318847656, -6.6387410163879395
49,2601688007,0.7876623,0.07496863,-0.5325847,0.3005348,8.381377220153809,-5.266217231750488,9.869565963745117,-22.0290584564209,-40.184303283691406, -2.802037000656128
50,2601704674,0.78507465,0.078110024,-0.53593826,0.30054453,8.309086799621582,-4.016262531280518,10.268231391906738,11.472025871276855,-34.510108947753906, -4.498059272766113
51,2601721341,0.782927,0.079018325,-0.5395676,0.29941338,7.956693172454834,-3.0066559314727783,11.843562126159668,-5.591553211212158,-30.38606071472168, -3.184847354888916
52,2601738008,0.78123695,0.07821703,-0.54245615,0.2988186,7.822026252746582,-3.908249616622925,11.865609169006348,-11.548596382141113,-20.92848777770996, 4.7117533683776855
53,2601754675,0.7798401,0.078964174,-0.54380786,0.2998122,8.073421478271484,-3.436124801635742,9.899572372436523,5.691089153289795,-13.941311836242676, 6.035810470581055
54,2601771342,0.7790689,0.08122705,-0.54351664,0.30173418,8.126462936401367,-3.1203527450561523,10.749361038208008,20.33307456970215,-5.408142566680908, 3.169826030731201
55,2601788009,0.7791729,0.08306623,-0.5421506,0.30341807,8.27604866027832,-2.536921739578247,11.013313293457031,18.909156799316406,4.352455139160156, 1.0701191425323486
56,2601804676,0.7796296,0.085137375,-0.5402497,0.30505732,8.116861343383789,-2.8705928325653076,10.140572547912598,20.8912410736084,8.007226943969727, -1.0596630573272705
57,2601821343,0.7805998,0.085773915,-0.5377253,0.30685282,8.952873229980469,-3.33152174949646,9.112567901611328,14.787382125854492,16.354217529296875, 3.668301582336426
58,2601838010,0.78265935,0.08467009,-0.53409284,0.30825382,8.342100143432617,-1.8596158027648926,10.03765869140625,5.692575931549072,29.787944793701172, 5.030946254730225
59,2601854677,0.7850884,0.08263194,-0.530277,0.3092159,9.154868125915527,-3.3840761184692383,8.725067138671875,-0.7935614585876465,33.85112762451172, 5.22280216217041
60,2601871344,0.78789973,0.08269223,-0.5243391,0.31216136,9.659318923950195,-4.256314277648926,7.415056228637695,22.07802963256836,43.383811950683594, 6.256613731384277
61,2601888011,0.79133654,0.08326107,-0.51683545,0.3158089,9.428483963012695,-3.2014851570129395,7.797961235046387,30.38547706604004,53.484676361083984, 5.978602886199951
62,2601904678,0.79524934,0.08427638,-0.5079731,0.32006195,9.677757263183594,-3.431711435317993,7.512892723083496,37.65571975708008,61.99284744262695, 5.88693904876709
63,2601921345,0.79931635,0.084802225,-0.498493,0.32466388,9.675990104675293,-3.1790733337402344,7.720438003540039,37.476348876953125,67.23196411132812, 8.811203956604004
64,2601938012,0.8036485,0.08441862,-0.4882444,0.329606,9.298125267028809,-2.9613757133483887,7.373490333557129,35.20854949951172,74.62324523925781, 12.76369571685791
65,2601954679,0.80835927,0.082659595,-0.47689962,0.33509654,8.852861404418945,-2.987485885620117,7.435033321380615,31.716703414916992,85.41282653808594, 18.921323776245117
66,2601971346,0.81347406,0.07918709,-0.464608,0.34077677,9.109657287597656,-2.7259273529052734,7.1616950035095215,24.772804260253906,96.07205200195312, 24.12918472290039
67,2601988013,0.81881785,0.076289505,-0.45048013,0.34754148,9.456938743591309,-2.4426660537719727,7.026889324188232,35.632835388183594,106.3388671875, 26.827558517456055
68,2602004680,0.8243848,0.07277366,-0.43533248,0.35437196,8.982534408569336,-2.012477397918701,6.654461860656738,34.67341232299805,114.30729675292969, 28.05057716369629
69,2602021347,0.83008885,0.06956936,-0.41846672,0.36193693,8.776495933532715,-2.202930212020874,6.890882968902588,42.75577163696289,124.08834075927734, 30.09918212890625
70,2602038014,0.8358702,0.06596181,-0.40061414,0.3694298,8.440651893615723,-1.48992121219635,6.708198070526123,42.667720794677734,130.92935180664062, 30.1893367767334
71,2602054681,0.8417693,0.06175677,-0.3814251,0.3769956,7.980410575866699,-1.798807144165039,6.995161533355713,42.77199172973633,140.50425720214844, 31.36008644104004
72,2602071348,0.84778595,0.05537858,-0.3620912,0.3835132,7.275774002075195,-0.34920963644981384,7.030527114868164,27.771305084228516,146.85116577148438, 30.630903244018555
73,2602088015,0.8538302,0.046667654,-0.3423814,0.3893215,6.432243824005127,-1.0200896263122559,6.936176776885986,13.371792793273926,155.0015869140625, 32.10200119018555
74,2602104682,0.8598218,0.03638544,-0.32252997,0.39415362,5.817002773284912,-0.04451027512550354,6.796319961547852,2.2406859397888184,159.60699462890625, 30.16849136352539
75,2602121349,0.8655318,0.025795562,-0.30236688,0.39845213,5.473647117614746,-1.483311653137207,6.03171443939209,0.1380719244480133,161.52955627441406, 28.39028549194336
76,2602138016,0.87093675,0.017088316,-0.2806802,0.40298384,4.730119228363037,-0.6241109371185303,6.725607395172119,16.066179275512695,164.85870361328125, 26.427621841430664
77,2602154683,0.8761518,0.0076820333,-0.25873393,0.4066397,3.933504104614258,-0.25658053159713745,6.9514665603637695,10.921422958374023,167.8824920654297, 23.02425765991211
78,2602171350,0.88115126,-0.0019750942,-0.23585494,0.40980634,3.398587226867676,0.13557951152324677,6.621816158294678,11.149090766906738,173.7887725830078, 21.079917907714844
79,2602188017,0.8856552,-0.012057969,-0.21301505,0.41242504,3.4025135040283203,-0.5601637959480286,5.877254962921143,7.552882194519043,173.95169067382812, 19.85240936279297
80,2602204684,0.88982683,-0.019644253,-0.18945009,0.41464567,3.097918748855591,-0.49087846279144287,5.951826572418213,24.202068328857422,170.8425750732422, 14.767595291137695
81,2602221351,0.8935478,-0.02491883,-0.16603522,0.41639408,2.5884344577789307,-1.326514482498169,6.5026326179504395,37.24354553222656,162.81524658203125, 10.13438892364502
82,2602238018,0.8968888,-0.027931552,-0.14325851,0.41747764,1.7707362174987793,-0.872206449508667,6.194246292114258,48.49858474731445,152.09933471679688, 4.433694839477539
83,2602254685,0.89975595,-0.029617166,-0.12203558,0.41793463,1.4705653190612793,-0.875786542892456,5.1825408935546875,51.518558502197266,138.35430908203125, 0.32016417384147644
84,2602271352,0.9021504,-0.030928368,-0.102503575,0.4179248,1.0550488233566284,-0.21495622396469116,5.531370639801025,48.49570083618164,126.51275634765625, -1.866210699081421
85,2602288019,0.9039751,-0.033070423,-0.08485715,0.4177737,0.3171375095844269,-0.05331127718091011,5.41453218460083,37.69802474975586,116.82675170898438, -0.925602376461029
86,2602304686,0.9052656,-0.03592934,-0.06934503,0.41760606,-0.2773575484752655,0.03179650381207466,4.994485378265381,26.976001739501953,105.29806518554688, 0.44102421402931213
87,2602321353,0.9060917,-0.038366027,-0.056738716,0.41750047,-0.8045483231544495,-0.35972297191619873,3.9745705127716064,21.17139434814453,85.74517822265625, 1.236352562904358
88,2602338020,0.90669405,-0.03935318,-0.046924856,0.4173194,-1.1347755193710327,-0.24717286229133606,4.116209983825684,22.10284423828125,64.10124206542969, 0.10046103596687317
89,2602354687,0.90710795,-0.0383204,-0.039397977,0.4172946,-1.574424147605896,-0.22734606266021729,3.87796688079834,28.135175704956055,43.925254821777344, 0.34268197417259216
90,2602371354,0.90741926,-0.034542907,-0.034537327,0.41737777,-1.8005481958389282,-0.4815346598625183,2.2534921169281006,37.60841751098633,19.34231185913086, -0.1375538557767868
91,2602388021,0.90759796,-0.027686326,-0.03236921,0.41767427,-2.00950288772583,-0.925089955329895,2.0148377418518066,49.12059783935547,-6.396238327026367, 0.20260460674762726
92,2602404688,0.90748173,-0.01950807,-0.03304743,0.4183353,-2.1746621131896973,-0.766802191734314,3.2919535636901855,49.23544692993164,-28.11067771911621, 2.4860289096832275
93,2602421355,0.9071604,-0.009946651,-0.035361588,0.41917896,-2.196559190750122,-1.1158339977264404,5.579946041107178,53.18377685546875,-42.391273498535156, 3.6824426651000977
94,2602438022,0.90653443,-0.0002848893,-0.038845267,0.42034087,-1.903059959411621,-1.1454535722732544,8.181977272033691,50.50786590576172,-50.094722747802734, 6.438066482543945
95,2602454689,0.90562296,0.007344466,-0.04314188,0.42182013,-2.068305253982544,-0.7275289297103882,10.157093048095703,35.58537292480469,-49.38493728637695, 9.782830238342285
96,2602471356,0.9043382,0.013893134,-0.048811376,0.4237888,-1.9320460557937622,-1.0146877765655518,7.149037837982178,25.040945053100586,-54.911781311035156, 14.304482460021973
97,2602488023,0.9025007,0.022831706,-0.057956595,0.42616034,-1.5802867412567139,-2.1430022716522217,-1.7825531959533691,29.970781326293945,-83.65352630615234, 17.945974349975586
98,2602504690,0.8991593,0.03560715,-0.08074174,0.42863253,7.566768169403076,-1.2574865818023682,-23.057695388793945,14.122568130493164,-180.12741088867188, 23.590539932250977
99,2602521357,0.89387083,0.05800654,-0.10962356,0.43082848,11.703665733337402,2.530904769897461,1.1021473407745361,56.002933502197266,-247.11805725097656, 23.764862060546875
100,2602538024,0.88811064,0.07141987,-0.13737178,0.43276742,0.8649928569793701,1.7374608516693115,13.341402053833008,4.063782691955566,-213.7539825439453, 29.909740447998047
101,2602554691,0.88071555,0.091265105,-0.16102523,0.43598375,4.47163724899292,-2.521357536315918,-0.6850278377532959,57.50731658935547,-208.8982391357422, 34.503353118896484
102,2602571358,0.8738273,0.1092462,-0.18092264,0.43790248,-0.2602808475494385,-1.1343107223510742,3.943302869796753,55.76632308959961,-180.73843383789062, 24.80253028869629
103,2602588025,0.8679121,0.121269695,-0.1983332,0.43896067,2.2497763633728027,-2.157069683074951,4.9735026359558105,25.671606063842773,-147.35133361816406, 22.23833465576172
104,2602604692,0.86217606,0.13022202,-0.2135038,0.4405801,4.863738059997559,-2.1463546752929688,9.971912384033203,14.752785682678223,-124.0218505859375, 27.347597122192383
105,2602621359,0.85628355,0.13852003,-0.22724527,0.44266257,7.098653793334961,-0.8205246329307556,9.127610206604004,16.052316665649414,-113.40660095214844, 30.222719192504883
106,2602638026,0.85122395,0.1445451,-0.24186999,0.4427455,7.292945384979248,1.1211509704589844,8.25299072265625,-3.926607131958008,-112.2701644897461, 20.307022094726562
107,2602654693,0.8456704,0.15110008,-0.25645348,0.44299203,7.950188636779785,2.2507033348083496,6.469516277313232,0.027579788118600845,-114.28173828125, 21.856327056884766
108,2602671360,0.8400513,0.15342946,-0.27386153,0.4424627,8.275684356689453,3.9794509410858154,6.809741497039795,-34.49334716796875,-118.72289276123047, 27.961807250976562
109,2602688027,0.8341208,0.15574627,-0.29162154,0.4415231,8.404438018798828,3.2130348682403564,7.74673318862915,-36.14332580566406,-121.7200927734375, 26.98556137084961
110,2602704694,0.8289962,0.15695295,-0.30760202,0.43990055,9.61760425567627,2.3405542373657227,9.549529075622559,-39.37777328491211,-107.263671875, 20.9771785736084
111,2602721361,0.8249745,0.15689382,-0.3219747,0.43718848,10.544759750366211,2.596250295639038,8.875214576721191,-45.24052810668945,-93.12882232666016, 12.395286560058594
112,2602738028,0.82244605,0.15359691,-0.33609918,0.4324673,10.952802658081055,2.2800042629241943,10.385909080505371,-68.93750762939453,-80.85040283203125, 3.433185577392578
113,2602754695,0.82125765,0.14600952,-0.35080028,0.4256248,10.963109970092773,0.8782824277877808,11.458227157592773,-101.24595642089844,-70.51840209960938, -2.00738787651062
114,2602771362,0.8205108,0.13598013,-0.36574957,0.4177305,10.783714294433594,-1.102990746498108,11.109216690063477,-118.73513793945312,-64.79993438720703, -3.0907046794891357
115,2602788029,0.81957126,0.12563512,-0.38095674,0.40913427,10.336991310119629,-1.9342191219329834,10.455766677856445,-122.82666778564453,-66.51885986328125, -5.483403205871582
116,2602804696,0.8183301,0.115734346,-0.39589646,0.4002593,10.78948974609375,-2.2372822761535645,11.906783103942871,-120.02100372314453,-67.31743621826172, -7.621774673461914
117,2602821363,0.81687903,0.10554139,-0.41041523,0.3913171,9.421475410461426,-2.4494152069091797,13.088569641113281,-120.5063705444336,-64.8080825805664, -6.976451873779297
118,2602838030,0.81635845,0.09263761,-0.4226605,0.38253808,9.835201263427734,-2.9921560287475586,14.391838073730469,-129.8308868408203,-42.065589904785156, -2.586296796798706
119,2602854697,0.8162066,0.078626804,-0.43325925,0.37404695,8.267434120178223,-3.5133466720581055,12.210136413574219,-131.1110382080078,-28.727947235107422, 0.20878875255584717
120,2602871364,0.8140446,0.06757938,-0.44754493,0.36396146,8.140711784362793,-4.030991554260254,9.282853126525879,-127.62158203125,-63.942195892333984, -10.430204391479492
121,2602888031,0.8097124,0.06105662,-0.4633938,0.3548297,9.693968772888184,-5.910889148712158,8.764711380004883,-102.25701904296875,-90.25859832763672, -12.88827896118164
122,2602904698,0.8038318,0.064718574,-0.47615775,0.35062805,11.37511920928955,-6.073860168457031,7.964976787567139,-21.636028289794922,-100.78841400146484, -15.437901496887207
123,2602921365,0.79781365,0.07290134,-0.48556927,0.34985942,7.974255561828613,-2.8817532062530518,13.338104248046875,22.748762130737305,-92.05594635009766, -12.453449249267578
124,2602938032,0.7924008,0.0769458,-0.49523756,0.34773606,7.6693902015686035,-2.4604685306549072,15.45894718170166,-5.427525997161865,-82.26097106933594, -7.390402317047119
125,2602954699,0.7878894,0.07817765,-0.50392723,0.34521917,7.868846893310547,-4.306845188140869,14.768240928649902,-20.263113021850586,-67.46408081054688, -2.621415853500366
126,2602971366,0.7839172,0.08016195,-0.50995934,0.34494892,8.269968032836914,-4.616493225097656,11.880732536315918,-2.4033265113830566,-51.8763427734375, 4.213925361633301
127,2602988033,0.7803768,0.08223107,-0.51545197,0.34432474,8.107088088989258,-2.860259771347046,11.39387321472168,-2.149883270263672,-47.89665603637695, 0.668259859085083
128,2603004700,0.7773946,0.08191762,-0.5215892,0.34189463,8.263402938842773,-2.9876084327697754,11.276947021484375,-23.189125061035156,-44.79750061035156, -1.5285155773162842
129,2603021367,0.77518106,0.08181982,-0.5257988,0.34049356,8.520064353942871,-3.8566339015960693,11.55408763885498,-14.261094093322754,-31.700855255126953, 0.3070911467075348
130,2603038034,0.77352023,0.08207316,-0.5291406,0.33902934,8.208532333374023,-2.6885530948638916,11.281988143920898,-10.904662132263184,-25.975406646728516, -3.090820550918579
131,2603054701,0.7727901,0.0814301,-0.53182006,0.3366488,7.909666538238525,-2.347403049468994,11.29671859741211,-18.001596450805664,-17.532230377197266, -7.240240573883057
132,2603071368,0.7729541,0.0808434,-0.53305733,0.33444914,8.040766716003418,-3.3268849849700928,10.32944393157959,-14.218037605285645,-6.669914245605469, -9.353693008422852
133,2603088035,0.77348304,0.08236698,-0.5322332,0.3341672,8.326412200927734,-3.7683606147766113,9.3544340133667,8.562067031860352,1.8109275102615356, -8.88601016998291
134,2603104702,0.7742408,0.084723435,-0.5299436,0.33545974,8.627331733703613,-3.2871968746185303,10.181439399719238,21.99097442626953,9.415318489074707, -4.926407814025879
135,2603121369,0.7755071,0.08659413,-0.526928,0.33680466,8.94992733001709,-2.3923895359039307,10.037314414978027,20.97902488708496,16.26189613342285, -4.468082904815674
136,2603138036,0.77716297,0.088014215,-0.5234032,0.33811295,8.980237007141113,-2.8306336402893066,8.916179656982422,19.37738800048828,21.396982192993164, -4.222790718078613
137,2603154703,0.7795809,0.08965395,-0.51777834,0.3407659,7.984169006347656,-2.4400858879089355,9.637463569641113,29.819896697998047,35.67670440673828, -0.8604652285575867
138,2603171370,0.78255963,0.09128036,-0.51091546,0.34385157,8.580798149108887,-3.1042585372924805,8.851553916931152,33.834999084472656,44.612586975097656, -0.564074695110321
139,2603188037,0.78644747,0.09494501,-0.5008489,0.34876424,9.725425720214844,-3.8892529010772705,7.327390670776367,58.24171447753906,61.401729583740234, -2.046032190322876
140,2603204704,0.79107046,0.10044992,-0.48812297,0.35475847,9.320159912109375,-2.9807844161987305,7.387179851531982,77.84497833251953,74.67377471923828, -6.0324482917785645
141,2603221371,0.7962227,0.10520217,-0.47407147,0.36085758,9.017251968383789,-2.7018754482269287,7.591959476470947,76.98294830322266,85.6279525756836, -5.135599613189697
142,2603238038,0.8017267,0.108054586,-0.45961103,0.36649218,8.863204956054688,-2.236053466796875,7.255247592926025,65.84465789794922,93.43913269042969, -2.6434547901153564
143,2603254705,0.80746186,0.10941948,-0.44421563,0.37243205,8.557443618774414,-2.4846231937408447,7.5516676902771,60.79690933227539,103.35047912597656, 2.4673643112182617
144,2603271372,0.813577,0.109097734,-0.42800775,0.3781529,8.264031410217285,-2.0030713081359863,7.582740306854248,52.57561111450195,113.21560668945312, 4.824475288391113
145,2603288039,0.82011604,0.107193336,-0.41053516,0.3839014,7.852368354797363,-1.833493947982788,7.879599094390869,46.78300094604492,125.71128845214844, 7.591952800750732
146,2603304706,0.82702553,0.103007756,-0.39242837,0.38912502,8.134903907775879,-1.1132465600967407,6.931057453155518,33.84237289428711,135.9976806640625, 9.628938674926758
147,2603321373,0.83426774,0.0964573,-0.37329936,0.39413336,8.346626281738281,-1.6027692556381226,6.349974155426025,22.31691551208496,148.9315643310547, 13.186189651489258
148,2603338040,0.8414026,0.08890203,-0.3535734,0.39890385,8.465252876281738,-0.9405447244644165,4.938536643981934,17.636228561401367,154.70538330078125, 14.296402931213379
149,2603354707,0.8481785,0.081853054,-0.3321351,0.40444985,8.113237380981445,-1.427445411682129,5.422079563140869,27.369901657104492,162.9037322998047, 17.500534057617188
150,2603371374,0.8545391,0.0736819,-0.31063145,0.4096854,7.056853294372559,-0.5300787091255188,6.101619243621826,20.54313087463379,165.34634399414062, 19.37729263305664
151,2603388041,0.8604329,0.06446643,-0.28868356,0.4149231,6.244226455688477,-1.300584316253662,6.033336162567139,15.892759323120117,169.94468688964844, 22.71977996826172
152,2603404708,0.8658704,0.054879446,-0.2658584,0.42020962,5.4606475830078125,-0.36632561683654785,6.599071025848389,16.50271224975586,175.34503173828125, 24.6588077545166
153,2603421375,0.87082523,0.043824103,-0.24294668,0.42511174,4.821467399597168,-0.38486528396606445,6.275176525115967,7.483302116394043,179.09521484375, 26.42722511291504
154,2603438042,0.8751814,0.031989682,-0.21994276,0.42972058,4.156377792358398,-0.20518794655799866,5.705607891082764,2.769437551498413,180.85496520996094, 27.696916580200195
155,2603454709,0.87907803,0.02053393,-0.19653885,0.4337889,3.86521053314209,0.2947629988193512,5.1236090660095215,5.506747722625732,181.3463592529297, 25.147634506225586
156,2603471376,0.88256073,0.008726903,-0.17337875,0.43697852,3.756439447402954,0.48185840249061584,5.401423454284668,1.513367772102356,180.25833129882812, 21.587221145629883
157,2603488043,0.8856621,-0.0036981134,-0.15135121,0.43895575,3.2444262504577637,1.2480741739273071,6.127268314361572,-7.079391002655029,174.73573303222656, 16.186471939086914
158,2603504710,0.8883159,-0.015790638,-0.1307944,0.43993,2.816817045211792,0.19173328578472137,5.281080722808838,-10.579329490661621,164.34567260742188, 11.054588317871094
159,2603521377,0.8908061,-0.023167327,-0.11022636,0.44020236,1.99590003490448,-0.8308770060539246,4.81044340133667,17.601240158081055,150.09072875976562, 3.021113395690918
160,2603538044,0.8930077,-0.025725054,-0.08985364,0.44022956,1.5480172634124756,-1.912508487701416,4.664146900177002,46.30662155151367,134.13294982910156, -1.295108437538147
161,2603554711,0.8949689,-0.025252724,-0.07073232,0.4397612,0.6626715064048767,-0.8806712627410889,4.181799411773682,60.805843353271484,117.21765899658203, -5.714097023010254
162,2603571378,0.8965059,-0.023472676,-0.05347162,0.4391666,-0.4307611882686615,-0.9075402021408081,5.156540393829346,63.102867126464844,101.61788940429688, -6.175867080688477
163,2603588045,0.8975845,-0.02145185,-0.038657714,0.43862027,-0.8143545389175415,-0.13459879159927368,4.475434303283691,57.15252685546875,85.59991455078125, -4.98207426071167
164,2603604712,0.89818394,-0.020012751,-0.026993612,0.43833387,-0.9955997467041016,0.14249873161315918,3.58782696723938,44.058963775634766,67.71661376953125, -2.2471818923950195
165,2603621379,0.89846283,-0.019316897,-0.01906328,0.43821043,-1.5242893695831299,0.41504284739494324,3.0706331729888916,28.197235107421875,46.78602600097656, -0.6538350582122803
166,2603638046,0.89855134,-0.01796107,-0.014595786,0.43825784,-1.7152280807495117,-0.2703912854194641,2.0140886306762695,21.82926368713379,23.32147789001465, 0.42640814185142517
167,2603654713,0.8985877,-0.014428872,-0.012946303,0.43836573,-1.974097728729248,-0.2677643299102783,2.637965202331543,26.78981590270996,-0.6952456831932068, 0.38941001892089844
168,2603671380,0.8985063,-0.009200507,-0.013705245,0.4386504,-2.1880688667297363,-0.10499779134988785,4.41325044631958,30.019906997680664,-20.754528045654297, 1.4447358846664429
169,2603688047,0.89831537,-0.0022040096,-0.016021872,0.43905377,-2.224909543991089,0.1985509991645813,6.314203262329102,36.25017166137695,-35.769832611083984, 2.243417739868164
170,2603704714,0.8980616,0.0053248825,-0.019948445,0.43938535,-1.6342209577560425,0.8793895244598389,7.16909646987915,34.664066314697266,-47.36823654174805, 1.9067798852920532
171,2603721381,0.89769864,0.012237069,-0.024952184,0.43973297,-1.5216184854507446,0.6239655613899231,8.888524055480957,27.59026336669922,-52.199058532714844, 2.4603793621063232
172,2603738048,0.897157,0.01683384,-0.031060763,0.44029674,-2.5117475986480713,1.0516928434371948,9.762045860290527,10.000955581665039,-52.05852127075195, 4.8298540115356445
173,2603754715,0.8963956,0.021669652,-0.03673037,0.44119868,-1.8471206426620483,-0.1880197525024414,7.614876747131348,12.883395195007324,-50.13630294799805, 7.481291770935059
174,2603771382,0.89539707,0.027631396,-0.043484196,0.44227794,-2.3812475204467773,-0.11471682786941528,5.033792018890381,16.62384033203125,-60.3016357421875, 9.175206184387207
175,2603788049,0.8932263,0.03731871,-0.055957206,0.4445481,-1.5699585676193237,-2.6818954944610596,-8.86530590057373,22.753538131713867,-107.00879669189453, 20.043045043945312
176,2603804716,0.8888514,0.0525776,-0.08161048,0.44779325,14.11695671081543,-5.905353546142578,-18.37745475769043,17.68570327758789,-205.58909606933594, 34.00415802001953
177,2603821383,0.8841605,0.07031297,-0.1086995,0.44888827,3.126349449157715,4.428033828735352,12.259318351745605,27.440427780151367,-222.5135498046875, 20.92860221862793
178,2603838050,0.8775408,0.08354566,-0.13379392,0.45281497,5.896024703979492,-4.487607479095459,4.080083847045898,9.17203140258789,-196.5575714111328, 46.52410888671875
179,2603854717,0.8705786,0.10167974,-0.15511414,0.45573443,2.1013331413269043,-0.093836709856987,3.880911350250244,49.86865234375,-189.8328094482422, 34.78812789916992
180,2603871384,0.8649303,0.11388165,-0.17432563,0.45665893,1.668570637702942,0.7531008124351501,1.591582179069519,17.91373634338379,-158.6045684814453, 23.57654571533203
181,2603888051,0.860379,0.12161704,-0.19095662,0.45661074,2.4215633869171143,-1.0505082607269287,7.075313568115234,-2.5945796966552734,-128.6680450439453, 17.687036514282227
182,2603904718,0.8552985,0.12873642,-0.20685276,0.45727852,5.5048699378967285,-1.3193941116333008,10.974923133850098,-2.5304434299468994,-122.5176773071289, 23.76325035095215
183,2603921385,0.84991914,0.1360472,-0.22240423,0.45789218,6.707980632781982,0.9404882788658142,9.067012786865234,-0.10791213810443878,-121.57987976074219, 23.786014556884766
184,2603938052,0.8445449,0.14044616,-0.2413883,0.45689258,8.093866348266602,-0.018492592498660088,7.6152448654174805,-30.425975799560547,-133.9512939453125, 22.018707275390625
185,2603954719,0.83893484,0.1441906,-0.26113588,0.45519868,7.999516010284424,3.4761219024658203,7.796727180480957,-37.552207946777344,-137.33175659179688, 20.556808471679688
186,2603971386,0.8334507,0.14717902,-0.27970228,0.45328262,8.306245803833008,2.034883499145508,7.8565754890441895,-38.818115234375,-128.11326599121094, 19.115304946899414
187,2603988053,0.8285273,0.14982617,-0.29648346,0.4507688,9.04989242553711,1.8874832391738892,8.97449779510498,-36.96453094482422,-116.32331085205078, 12.827128410339355
188,2604004720,0.824307,0.15126453,-0.311164,0.44812268,9.968894004821777,1.4162006378173828,9.501753807067871,-38.366390228271484,-99.30691528320312, 10.227045059204102
189,2604021387,0.82092845,0.15075311,-0.3252772,0.4444601,10.416216850280762,1.957607388496399,9.702775955200195,-50.73978042602539,-89.33858489990234, 5.4809956550598145
190,2604038054,0.81857866,0.14699943,-0.33998424,0.43901125,10.600887298583984,1.5976442098617554,10.39486312866211,-75.944580078125,-82.3379898071289, 0.15923479199409485
191,2604054721,0.81714594,0.14062539,-0.3551594,0.4316934,10.680792808532715,0.42450106143951416,11.007781982421875,-97.43226623535156,-76.83124542236328, -6.502444744110107
192,2604071388,0.81574816,0.1328715,-0.37069944,0.42365336,11.23039436340332,-1.1124436855316162,10.853160858154297,-108.06791687011719,-75.43675231933594, -6.921603679656982
193,2604088055,0.81400436,0.12511446,-0.3860988,0.41553727,10.566848754882812,-2.0881683826446533,10.476605415344238,-107.5395278930664,-75.61890411376953, -6.4642839431762695
194,2604104722,0.8120211,0.118192606,-0.4009406,0.40730736,10.827532768249512,-2.447974920272827,12.548691749572754,-101.34841918945312,-75.6537857055664, -9.132661819458008
195,2604121389,0.8100524,0.1116803,-0.41466194,0.3992475,9.464624404907227,-3.2073938846588135,13.148077964782715,-95.46305084228516,-70.43611907958984, -10.289148330688477
196,2604138056,0.8093418,0.105259605,-0.42433986,0.39220187,9.892492294311523,-3.9294092655181885,15.413874626159668,-81.90943145751953,-43.901695251464844, -11.488855361938477
197,2604154723,0.8085403,0.10016998,-0.43277168,0.38592416,7.602965831756592,-4.141310691833496,9.500863075256348,-68.8369140625,-40.39323425292969, -11.801848411560059
198,2604171390,0.80523694,0.091862164,-0.44969198,0.3754095,8.968108177185059,-5.359363079071045,7.010380744934082,-120.11133575439453,-89.45728302001953, -13.339269638061523
199,2604188057,0.8002469,0.088373855,-0.46616474,0.36672232,11.168381690979004,-4.654323101043701,8.139579772949219,-85.52146911621094,-103.46015167236328, -14.115410804748535
200,2604204724,0.795237,0.08779907,-0.48002574,0.35981235,8.728744506835938,-4.007030487060547,12.491252899169922,-57.16901397705078,-95.40644073486328, -15.233994483947754
201,2604221391,0.79137135,0.08430724,-0.49251336,0.3522137,7.488792419433594,-1.8351514339447021,15.948958396911621,-72.70144653320312,-77.42866516113281, -13.06014633178711
202,2604238058,0.78817064,0.08032033,-0.5034751,0.34474468,8.091371536254883,-4.109455108642578,13.972936630249023,-71.70532989501953,-65.78964233398438, -13.172201156616211
203,2604254725,0.78553134,0.08043006,-0.5105842,0.34025806,8.242208480834961,-4.381795883178711,11.926722526550293,-30.380739212036133,-51.1671257019043, -14.681995391845703
204,2604271392,0.7830473,0.08398619,-0.5148672,0.33866686,8.263359069824219,-4.407053470611572,11.208345413208008,4.910480976104736,-41.910797119140625, -13.098462104797363
205,2604288059,0.7804792,0.089475095,-0.517517,0.33915016,8.44531536102295,-3.617112159729004,10.81198501586914,26.510862350463867,-36.79639434814453, -9.53747272491455
206,2604304726,0.7783527,0.09514474,-0.51835304,0.34121132,8.67028522491455,-3.3521194458007812,10.632444381713867,37.03862380981445,-25.00908088684082, -3.8627679347991943
207,2604321393,0.776692,0.09997549,-0.51843125,0.3434879,9.139311790466309,-3.095964193344116,11.52501106262207,34.7815055847168,-17.244468688964844, -1.3039367198944092
208,2604338060,0.775617,0.1043638,-0.51755327,0.345927,8.521241188049316,-2.476048707962036,12.119636535644531,34.8359375,-8.965113639831543, -0.8919152021408081
209,2604354727,0.77509385,0.10642037,-0.5168146,0.347573,8.724845886230469,-2.420166492462158,11.085840225219727,18.82575225830078,-2.854680299758911, 1.9752219915390015
210,2604371394,0.7752628,0.108159475,-0.51487595,0.3495311,8.68332576751709,-2.948101282119751,10.70039176940918,20.59207534790039,6.9264092445373535, 2.2483057975769043
211,2604388061,0.77571225,0.10891557,-0.5123928,0.35193977,8.9253511428833,-3.1381654739379883,10.411757469177246,18.036489486694336,13.469982147216797, 7.048954486846924
212,2604404728,0.7769391,0.10798114,-0.50941926,0.35383305,8.751056671142578,-1.8092519044876099,10.01236629486084,7.803380966186523,22.49233627319336, 8.000445365905762
213,2604421395,0.7791427,0.10437754,-0.50607735,0.35486332,9.403830528259277,-2.5571413040161133,9.647270202636719,-9.322271347045898,33.70488739013672, 10.103545188903809
214,2604438062,0.7821098,0.10174499,-0.5003399,0.3572289,8.752070426940918,-3.637648105621338,8.736745834350586,5.8284687995910645,47.77505874633789, 10.3037109375
215,2604454729,0.7857744,0.10169758,-0.49159986,0.36131138,9.356240272521973,-3.2904982566833496,7.751476287841797,32.52402877807617,61.194034576416016, 6.807850360870361
216,2604471396,0.79008436,0.10312814,-0.4803434,0.36660838,9.836490631103516,-3.1287620067596436,7.413194179534912,50.43556213378906,74.20183563232422, 5.0178303718566895
217,2604488063,0.79488623,0.10425586,-0.46763343,0.3722981,9.369950294494629,-2.263948678970337,7.984704971313477,53.4267692565918,84.83453369140625, 5.895158290863037
218,2604504730,0.7997175,0.10378933,-0.454602,0.37817594,8.842439651489258,-2.3703806400299072,7.659274578094482,46.123992919921875,90.95938110351562, 11.763689994812012
219,2604521397,0.8045858,0.102047116,-0.44088468,0.38451123,8.806805610656738,-2.4630239009857178,7.209417819976807,42.313140869140625,98.54862976074219, 17.698619842529297
220,2604538064,0.80967635,0.099591404,-0.42574847,0.39146414,8.630558013916016,-1.8690367937088013,7.431797504425049,43.84174346923828,109.46463012695312, 21.700416564941406
221,2604554731,0.81526345,0.09598675,-0.40935344,0.39819837,8.517024993896484,-1.220173716545105,7.177403926849365,39.860145568847656,120.9348373413086, 21.666654586791992
222,2604571398,0.8213096,0.09115044,-0.39158472,0.4047267,8.462226867675781,-1.3493841886520386,6.989297389984131,35.83232116699219,133.23585510253906, 21.838884353637695
223,2604588065,0.8276395,0.08524761,-0.37286183,0.41075528,8.353507995605469,-0.520706832408905,6.625799655914307,30.9451961517334,142.12033081054688, 20.518810272216797
224,2604604732,0.83407557,0.078541145,-0.35323402,0.4163833,8.459150314331055,-0.8311776518821716,6.293054103851318,27.83010482788086,149.66162109375, 19.496118545532227
225,2604621399,0.8402955,0.07067017,-0.3335987,0.42145136,8.290550231933594,-0.9185099601745605,4.854707717895508,19.930034637451172,152.3045196533203, 19.74578857421875
226,2604638066,0.8462502,0.06375797,-0.31246307,0.42680508,7.453132629394531,-0.4195850193500519,5.89856481552124,30.607181549072266,157.8397216796875, 19.25078010559082
227,2604654733,0.8519732,0.05574909,-0.29149202,0.43135366,6.529372692108154,0.05029837042093277,6.619570732116699,22.109058380126953,159.3318328857422, 17.688257217407227
228,2604671400,0.85740215,0.047574002,-0.26955634,0.43581864,5.293027400970459,-0.8059026598930359,6.43315315246582,23.9281063079834,164.91114807128906, 18.054136276245117
229,2604688067,0.862528,0.038904995,-0.24688788,0.43997565,4.49561882019043,-0.12961581349372864,6.61418342590332,22.74176025390625,170.08950805664062, 17.823467254638672
230,2604704734,0.86731863,0.029282795,-0.22394681,0.44356403,3.9960544109344482,-0.37979015707969666,5.873576641082764,17.023914337158203,173.89730834960938, 17.01036262512207
231,2604721401,0.87172645,0.020589303,-0.2000403,0.44682544,3.750234603881836,-0.4544740319252014,5.4215545654296875,25.080181121826172,176.19854736328125, 14.608301162719727
232,2604738068,0.8757001,0.0130406935,-0.17524543,0.44974238,3.690340995788574,-0.21890157461166382,5.384990215301514,34.26014709472656,177.39755249023438, 12.17313289642334
233,2604754735,0.8791759,0.005324221,-0.15095882,0.45192167,3.754791498184204,0.28217145800590515,5.501158237457275,30.831464767456055,174.2293243408203, 9.522197723388672
234,2604771402,0.8821982,-0.0039258166,-0.12848549,0.45299327,3.3457555770874023,0.27174699306488037,6.169361591339111,14.778676986694336,167.56626892089844, 5.891604900360107
235,2604788069,0.884727,-0.014189744,-0.10849029,0.45308575,2.637880563735962,0.1477426141500473,5.359973907470703,0.018180157989263535,155.3165740966797, 2.318344831466675
236,2604804736,0.88680756,-0.024754083,-0.09045853,0.4525231,1.7296427488327026,-0.3228733241558075,5.160243034362793,-8.46529769897461,144.0643768310547, -0.2373703420162201
237,2604821403,0.88850904,-0.03385991,-0.0737796,0.4516215,0.9643821120262146,-1.0501978397369385,4.970122337341309,-4.0529303550720215,131.10931396484375, -2.2679243087768555
238,2604838070,0.889743,-0.04053692,-0.05835691,0.45089766,0.03166041523218155,-1.2611126899719238,3.5317556858062744,6.88560152053833,115.61148834228516, -1.2632139921188354
239,2604854737,0.8905168,-0.045042984,-0.045036115,0.45046964,-0.5576006174087524,-1.175018548965454,2.8394267559051514,13.66854476928711,95.7377700805664, 0.5102409720420837
240,2604871404,0.8910507,-0.04692933,-0.033674106,0.45021397,-1.4607622623443604,-0.04940560832619667,3.5719549655914307,23.6467342376709,75.47574615478516, 0.884073793888092
241,2604888071,0.8914188,-0.047199756,-0.025122138,0.45001537,-1.3436216115951538,-0.03721052408218384,3.0848164558410645,24.803617477416992,53.154144287109375, 0.45746755599975586
242,2604904738,0.89167434,-0.044868916,-0.01891135,0.4500516,-1.4812017679214478,-0.08155867457389832,2.6206703186035156,33.50457763671875,30.621578216552734, 1.032346487045288
243,2604921405,0.8918492,-0.040938262,-0.015961943,0.4501939,-1.7885684967041016,-0.35238760709762573,3.1245574951171875,33.21030807495117,5.594559669494629, 0.7121703624725342
244,2604938072,0.8918811,-0.0356381,-0.015181951,0.45060793,-2.312647581100464,-0.14301623404026031,5.408954620361328,34.888816833496094,-12.083616256713867, 2.055447816848755
245,2604954739,0.89175147,-0.029567836,-0.016005773,0.45127514,-2.3684492111206055,-0.6557368636131287,7.144941806793213,34.6254997253418,-24.439498901367188, 3.6324479579925537
246,2604971406,0.8915855,-0.023037085,-0.018020207,0.45190725,-2.035243511199951,0.021406186744570732,8.193672180175781,33.7504997253418,-33.220218658447266, 3.233558416366577
247,2604988073,0.8913215,-0.017727356,-0.02094038,0.45254117,-2.0712242126464844,-0.10703986883163452,9.946505546569824,23.42609214782715,-35.03703689575195, 3.5589776039123535
248,2605004740,0.89095336,-0.014073699,-0.025049027,0.45318526,-2.1898465156555176,0.12876994907855988,8.99015998840332,9.561052322387695,-37.231468200683594, 4.040078639984131
249,2605021407,0.8905551,-0.011916254,-0.030317042,0.4537076,-2.1314239501953125,0.2152268886566162,7.903263568878174,-3.2515506744384766,-39.71585464477539, 3.5263826847076416
250,2605038074,0.89004713,-0.010153712,-0.036570426,0.4542861,-2.155942916870117,-0.3460897207260132,6.8893537521362305,-8.751577377319336,-44.59422302246094, 4.21707820892334
251,2605054741,0.8893012,-0.0063785533,-0.042852845,0.45526528,-1.8991347551345825,-1.4572968482971191,6.20900297164917,3.561831474304199,-51.194698333740234, 6.899760723114014
252,2605071408,0.88826054,0.0019077009,-0.04913105,0.45670092,-1.9381296634674072,-2.1172049045562744,3.810685396194458,31.312204360961914,-65.437255859375, 9.28586196899414
253,2605088075,0.8859152,0.015141963,-0.064143874,0.45914128,2.4176793098449707,-2.11208438873291,-17.409847259521484,34.51204299926758,-134.7896270751953, 17.953857421875
254,2605104742,0.88163656,0.03677872,-0.09053908,0.46170032,15.879983901977539,-0.6026093363761902,-9.271649360656738,50.09637451171875,-231.3662109375, 22.267194747924805
255,2605121409,0.8770787,0.052816734,-0.116651475,0.46296436,0.287401020526886,3.498438835144043,15.82028579711914,16.348678588867188,-211.84353637695312, 18.719804763793945
256,2605138076,0.870331,0.07207394,-0.13895911,0.46692583,5.640726566314697,-3.3709723949432373,0.6962915658950806,50.730167388916016,-200.0311737060547, 38.01919937133789
257,2605154743,0.8643077,0.09054285,-0.15900725,0.46849865,0.9731535911560059,0.7961761355400085,3.5489485263824463,50.720272064208984,-184.30889892578125, 21.000520706176758
258,2605171410,0.8594011,0.10167153,-0.17795318,0.468429,1.6854569911956787,-1.4944230318069458,4.259999752044678,8.130484580993652,-153.92733764648438, 14.984420776367188
259,2605188077,0.85460925,0.112031735,-0.19290408,0.4689139,3.5475575923919678,-2.2202203273773193,8.72083854675293,17.08988380432129,-127.32447052001953, 16.01664924621582
260,2605204744,0.8495189,0.120319776,-0.20739558,0.46992332,6.749724864959717,-1.6466678380966187,10.093905448913574,7.374829292297363,-117.95619201660156, 22.427141189575195
261,2605221411,0.8448756,0.12729265,-0.22164531,0.46995243,7.285006046295166,0.7408456802368164,9.025361061096191,-1.2544647455215454,-112.4283676147461, 16.90846061706543
262,2605238078,0.8397538,0.13476641,-0.2360018,0.47005856,8.147515296936035,1.018202543258667,6.96040678024292,1.820337176322937,-115.275634765625, 18.23645782470703
263,2605254745,0.83458894,0.13837187,-0.25264755,0.46955734,7.517409801483154,3.123326301574707,6.602700233459473,-28.886356353759766,-116.5272216796875, 23.285236358642578
264,2605271412,0.82871205,0.14166363,-0.27080366,0.46886402,7.781106472015381,2.4966397285461426,7.370192527770996,-35.29206848144531,-125.53302001953125, 26.52623748779297
265,2605288079,0.82296604,0.14484873,-0.28805277,0.4677304,9.900212287902832,1.940070629119873,9.775997161865234,-33.985107421875,-120.15581512451172, 22.95772933959961
266,2605304746,0.8184027,0.14625959,-0.30401,0.46519154,11.171035766601562,2.061594009399414,9.858604431152344,-43.88376998901367,-106.15010833740234, 13.469924926757812
267,2605321413,0.81529653,0.14397739,-0.32061186,0.46018508,11.17704963684082,2.1307084560394287,10.709382057189941,-73.39119720458984,-97.34343719482422, 3.363898515701294
268,2605338080,0.81345284,0.13795745,-0.33758578,0.4530986,10.997377395629883,1.2876511812210083,11.546443939208984,-101.40594482421875,-86.8595199584961, -3.6010897159576416
269,2605354747,0.81196845,0.12883106,-0.3556385,0.4445576,11.88155460357666,-0.4537953734397888,11.48708724975586,-125.9140625,-83.78201293945312, -4.567163944244385
270,2605371414,0.8100475,0.12015822,-0.37327763,0.4359461,10.699034690856934,-1.9314347505569458,10.804672241210938,-121.9061050415039,-83.99981689453125, -5.058399677276611
271,2605388081,0.8077133,0.11272631,-0.389832,0.4276952,10.89254093170166,-2.479013204574585,11.812347412109375,-110.46007537841797,-82.474609375, -5.886923313140869
272,2605404748,0.8054411,0.10545672,-0.40507856,0.41958922,9.554876327514648,-3.1123335361480713,13.14664077758789,-105.35810089111328,-75.4776840209961, -6.714588165283203
273,2605421415,0.8036865,0.09763212,-0.4187516,0.41134343,8.532713890075684,-2.6957478523254395,12.872344017028809,-104.65259552001953,-63.966026306152344, -8.60471248626709
274,2605438082,0.80364954,0.08650049,-0.42936465,0.40287888,9.847759246826172,-4.0851850509643555,14.486356735229492,-116.07342529296875,-33.0755500793457, -7.2283406257629395
275,2605454749,0.80304366,0.077623285,-0.4401238,0.39419112,6.649428844451904,-3.650759220123291,8.361228942871094,-104.34323120117188,-42.12959671020508, -13.500489234924316
276,2605471416,0.7997048,0.07082993,-0.45598873,0.38409597,9.465339660644531,-6.632728099822998,6.142615795135498,-109.45977020263672,-85.08099365234375, -17.503564834594727
277,2605488083,0.7953353,0.06861697,-0.47116488,0.37514943,11.581121444702148,-4.006878852844238,8.039475440979004,-78.2557373046875,-96.02742767333984, -23.266277313232422
278,2605504750,0.79175854,0.06870787,-0.4823245,0.36845765,6.152529239654541,-1.6148278713226318,15.111226081848145,-48.349605560302734,-76.36426544189453, -22.35425567626953
279,2605521417,0.7896134,0.06449068,-0.49276155,0.3599135,7.5004658699035645,-1.416549563407898,15.04552173614502,-76.89545440673828,-57.98370361328125, -22.126073837280273
280,2605538084,0.78830826,0.06293566,-0.4997586,0.353342,7.58882474899292,-5.080316543579102,12.71650505065918,-47.72104263305664,-42.49029541015625, -24.031291961669922
281,2605554751,0.78712654,0.06727136,-0.50230193,0.3515669,7.739721298217773,-5.311803817749023,10.881989479064941,11.432268142700195,-30.401729583740234, -20.59266471862793
282,2605571418,0.7859017,0.07269707,-0.5039954,0.35080233,7.789928913116455,-3.7191028594970703,10.917096138000488,22.90025520324707,-28.299297332763672, -19.258214950561523
283,2605588085,0.78502065,0.076005556,-0.5051047,0.35047835,7.748363018035889,-4.244485378265381,10.702544212341309,14.201359748840332,-18.806373596191406, -10.69559383392334
284,2605604752,0.7846293,0.07958236,-0.50422657,0.35182294,7.933018207550049,-3.871222734451294,10.564671516418457,25.9670352935791,-6.329592704772949, -4.89000129699707
285,2605621419,0.78430665,0.08314224,-0.50309634,0.3533341,8.117659568786621,-3.5806448459625244,10.591863632202148,27.00594711303711,-4.765883445739746, -4.273298740386963
286,2605638086,0.7843463,0.08726368,-0.5014083,0.35464942,7.997256755828857,-2.8072986602783203,9.424824714660645,30.487516403198242,-2.1451609134674072, -8.493061065673828
287,2605654753,0.7848355,0.089203015,-0.4999822,0.35509694,8.338319778442383,-3.789790630340576,9.518595695495605,14.80444049835205,2.667840003967285, -6.590844631195068
288,2605671420,0.7856774,0.09038466,-0.49758625,0.35630015,8.254983901977539,-3.5598044395446777,10.111166954040527,15.461603164672852,11.309755325317383, -1.4044355154037476
289,2605688087,0.78674674,0.089756034,-0.49578312,0.3566133,8.72678279876709,-2.899231195449829,10.022943496704102,1.0339275598526,12.628841400146484, -0.24490876495838165
290,2605704754,0.7880014,0.08782131,-0.49415368,0.356586,8.745330810546875,-3.8119304180145264,8.686203002929688,-7.753087043762207,15.192283630371094, 1.9993997812271118
291,2605721421,0.78937525,0.08599362,-0.49152762,0.3576208,9.475870132446289,-3.8571622371673584,8.370922088623047,-1.1889562606811523,21.306848526000977, 6.4460930824279785
292,2605738088,0.79095757,0.08463315,-0.4877339,0.35963786,9.557324409484863,-4.180862903594971,7.259007453918457,7.427316665649414,27.739458084106445, 8.959602355957031
293,2605754755,0.7930733,0.08548779,-0.48131195,0.3634085,10.072056770324707,-3.963636636734009,7.017176151275635,31.57407569885254,39.36660385131836, 8.186656951904297
294,2605771422,0.7954296,0.08833674,-0.47280675,0.36870357,9.423370361328125,-3.5249836444854736,7.774051666259766,52.58628463745117,47.46106719970703, 8.065092086791992
295,2605788089,0.7977557,0.09135764,-0.46351972,0.3746855,9.571687698364258,-3.1847188472747803,7.440104961395264,57.77581787109375,51.60625076293945, 10.8725004196167
296,2605804756,0.800164,0.093346074,-0.45350632,0.38125652,9.218424797058105,-2.631944417953491,7.477034091949463,55.824337005615234,58.89216613769531, 16.7469539642334
297,2605821423,0.8027841,0.09340633,-0.4429129,0.3881254,8.764935493469238,-2.670884132385254,7.749018669128418,47.52988815307617,67.99942016601562, 23.498638153076172
298,2605838090,0.805724,0.09160941,-0.43155247,0.39519522,8.767753601074219,-2.0458738803863525,7.697287082672119,39.73151397705078,78.292724609375, 28.933685302734375
299,2605854757,0.8092246,0.08857273,-0.41868952,0.40250444,9.031281471252441,-1.9198359251022339,7.576775074005127,37.28791046142578,91.81436920166016, 31.501218795776367
300,2605871424,0.813497,0.08475133,-0.40409684,0.4095677,8.512236595153809,-0.7720929384231567,7.412500381469727,36.51470184326172,105.72483825683594, 29.236177444458008
301,2605888091,0.8183698,0.08028555,-0.38789046,0.41637284,8.385994911193848,-1.1467758417129517,6.870079517364502,36.34490203857422,118.13065338134766, 27.016830444335938
302,2605904758,0.8236563,0.07528897,-0.37008578,0.4230348,8.473873138427734,-0.9814083576202393,6.701403617858887,37.299434661865234,129.74929809570312, 25.607929229736328
303,2605921425,0.82922786,0.06862044,-0.3516281,0.42898735,8.238725662231445,-0.7892831563949585,6.251241683959961,27.75278663635254,138.77618408203125, 24.72628402709961
304,2605938092,0.8348998,0.060314562,-0.33265826,0.43433085,7.682399272918701,0.18130594491958618,6.2704010009765625,18.385488510131836,146.61447143554688, 24.71975326538086
305,2605954759,0.84034795,0.050024047,-0.3137605,0.43916696,6.829230308532715,-0.47174471616744995,6.067413330078125,5.648130416870117,151.53753662109375, 27.09977912902832
306,2605971426,0.84550536,0.038228005,-0.2943715,0.44385272,5.933904647827148,-0.23294313251972198,6.582573890686035,-1.8252513408660889,158.3677520751953, 30.216928482055664
307,2605988093,0.85040313,0.026656616,-0.27419284,0.44824383,5.235332489013672,-0.7808656692504883,6.684282302856445,1.3097083568572998,161.762451171875, 28.654071807861328
308,2606004760,0.8548637,0.017359288,-0.2525187,0.4529252,4.330376148223877,-1.1329257488250732,6.516857147216797,19.81390953063965,162.8054656982422, 27.146886825561523
309,2606021427,0.858927,0.009169452,-0.22990388,0.4574985,3.563899278640747,-0.6064310669898987,6.221292495727539,29.098085403442383,164.24720764160156, 25.707210540771484
310,2606038094,0.86267155,0.00036274196,-0.20672788,0.46158567,3.343355655670166,0.09914697706699371,5.774663925170898,26.44205093383789,169.0198211669922, 24.781469345092773
311,2606054761,0.86612916,-0.009683222,-0.18387319,0.46466914,3.640734910964966,0.07110600173473358,5.319404602050781,16.59044647216797,170.7041473388672, 21.507333755493164
312,2606071428,0.8693056,-0.019434318,-0.16105808,0.46689475,3.2535197734832764,0.5336177349090576,5.4996490478515625,17.07270622253418,169.33273315429688, 16.929080963134766
313,2606088095,0.87225115,-0.028642694,-0.13946544,0.46787533,2.7468645572662354,-0.20702365040779114,5.871954441070557,14.916699409484863,160.28977966308594, 9.468173027038574
314,2606104762,0.87503445,-0.035782557,-0.11871445,0.46791187,2.351682186126709,-0.9972191452980042,5.88786506652832,23.647396087646484,148.69601440429688, 2.1734046936035156
315,2606121429,0.8775266,-0.041337285,-0.09940678,0.46728668,1.6753320693969727,-1.250698447227478,5.62070369720459,27.939842224121094,134.90988159179688, -2.533970355987549
316,2606138096,0.8796374,-0.045285854,-0.08122014,0.46646622,0.6919680833816528,-0.8980444669723511,5.261096954345703,33.8158073425293,122.83171844482422, -3.916252613067627
317,2606154763,0.8812876,-0.04868814,-0.06478743,0.46558,0.06711284071207047,-0.9438802003860474,5.248424053192139,31.32967185974121,110.24664306640625, -3.7050232887268066
318,2606171430,0.8825327,-0.050999913,-0.049693856,0.4648288,-0.15421876311302185,-0.6302191019058228,5.16437292098999,33.595401763916016,98.40343475341797, -2.5429511070251465
319,2606188097,0.88331544,-0.052932702,-0.036953907,0.4643134,-0.4271644949913025,-0.6717783808708191,4.451313018798828,28.29799461364746,82.65266418457031, -0.5976499319076538
320,2606204764,0.88380057,-0.053242475,-0.026796574,0.46405143,-1.0851565599441528,-0.6063487529754639,3.6402246952056885,29.88157844543457,61.5968132019043, 0.5286228060722351
321,2606221431,0.8842389,-0.051232625,-0.019204991,0.4638191,-1.3632407188415527,-0.3863510191440582,3.2964823246002197,35.7966423034668,38.53122329711914, -0.5155631303787231
322,2606238098,0.8846115,-0.046834808,-0.013879053,0.46376365,-1.581938624382019,-0.7643520832061768,3.0454249382019043,43.09849166870117,17.003726959228516, -0.34818169474601746
323,2606254765,0.8849278,-0.040409133,-0.010819776,0.46384576,-1.6728475093841553,-0.4707893133163452,3.569605827331543,48.23119354248047,-3.3765244483947754, -0.2483171671628952
324,2606271432,0.8850953,-0.032471765,-0.0095671555,0.4641777,-1.860257863998413,-0.3831222653388977,4.743983268737793,51.65860366821289,-19.353267669677734, 1.141243815422058
325,2606288099,0.8851102,-0.023571605,-0.009703506,0.4646832,-1.8480963706970215,-0.27415359020233154,6.672686576843262,53.06859588623047,-31.021221160888672, 2.328295946121216
326,2606304766,0.88507134,-0.014933981,-0.011092946,0.46508354,-1.9181311130523682,0.18800842761993408,8.167125701904297,47.449424743652344,-37.88852310180664, 1.6944234371185303
327,2606321433,0.8850166,-0.006609628,-0.013137837,0.4653272,-2.116255044937134,-0.12426753342151642,9.581910133361816,43.40761947631836,-40.963016510009766, 0.7672187685966492
328,2606338100,0.88479733,0.0000079341135,-0.0168728,0.4656708,-1.705826759338379,0.018169986084103584,8.61031723022461,27.61131477355957,-45.9254264831543, 2.0003271102905273
329,2606354767,0.8844583,0.005349168,-0.021856058,0.46607667,-2.057823657989502,0.26208382844924927,7.221698760986328,15.851024627685547,-49.54642105102539, 2.92326283454895
330,2606371434,0.88388175,0.01072772,-0.028317768,0.46672943,-2.1674036979675293,-0.6582598686218262,5.095064163208008,11.368880271911621,-58.80842971801758, 5.250759601593018
331,2606388101,0.8824997,0.02076602,-0.038966384,0.46823576,-1.3528621196746826,-2.722899913787842,-7.38134765625,26.512781143188477,-99.43074035644531, 12.444754600524902
332,2606404768,0.8787049,0.036384493,-0.06432314,0.47161084,13.506024360656738,-5.110239505767822,-22.769187927246094,14.021117210388184,-207.06492614746094, 32.173587799072266
333,2606421435,0.87439483,0.058851384,-0.08955429,0.47323385,3.916368007659912,3.9985153675079346,11.724996566772461,55.48323059082031,-228.14195251464844, 20.18338394165039
334,2606438102,0.8683351,0.0752987,-0.11289524,0.4770524,6.727001667022705,-4.2737298011779785,3.619797706604004,27.283740997314453,-197.24566650390625, 42.098915100097656
335,2606454769,0.86217266,0.09524674,-0.13342388,0.47935852,2.3992700576782227,-0.7383939623832703,2.823230266571045,56.555233001708984,-192.41529846191406, 29.170604705810547
336,2606471436,0.8571456,0.109241866,-0.15179294,0.4799239,1.4595292806625366,-0.42182034254074097,2.229811906814575,26.088594436645508,-159.97715759277344, 19.133211135864258
337,2606488103,0.85282856,0.11892397,-0.16744635,0.48010665,3.245647430419922,-1.3705166578292847,7.8913750648498535,8.730069160461426,-129.23452758789062, 16.987892150878906
338,2606504770,0.84759116,0.12806807,-0.18177465,0.48181537,6.6020097732543945,-1.8750419616699219,9.9778470993042,12.549276351928711,-119.49131774902344, 28.47142219543457
339,2606521437,0.84277225,0.13575813,-0.19655085,0.48236153,8.687212944030762,1.5538859367370605,9.363487243652344,0.8839325308799744,-117.66455841064453, 22.456178665161133
340,2606538104,0.8372417,0.14313753,-0.21260908,0.4830484,9.827343940734863,2.763457775115967,7.683234691619873,-4.373222351074219,-124.68892669677734, 27.268877029418945
341,2606554771,0.8314511,0.14627911,-0.23195732,0.48320538,8.607999801635742,5.15897798538208,5.865082263946533,-40.32302474975586,-130.19329833984375, 34.576141357421875
342,2606571438,0.8256982,0.14753206,-0.25256535,0.48235652,8.664264678955078,3.287750244140625,7.205957889556885,-57.14659118652344,-131.8711700439453, 33.1302375793457
343,2606588105,0.82093626,0.1485637,-0.27144784,0.4799051,10.654450416564941,2.8534510135650635,9.564112663269043,-56.568084716796875,-121.11842346191406, 19.48339080810547
344,2606604772,0.81795835,0.14699014,-0.28842053,0.47555467,12.023235321044922,2.147594690322876,10.782596588134766,-70.41910552978516,-100.24956512451172, 5.88318395614624
345,2606621439,0.81618035,0.14213546,-0.3054144,0.46943527,12.625248908996582,0.8742533922195435,11.890923500061035,-93.70407104492188,-88.9705810546875, -1.3635210990905762
346,2606638106,0.8151931,0.13431512,-0.32244414,0.4620061,11.354470252990723,-0.37403368949890137,12.080227851867676,-114.00414276123047,-79.1874008178711, -4.95084810256958
347,2606654773,0.814105,0.12531006,-0.33989128,0.4538775,11.2979736328125,-1.3712971210479736,10.957952499389648,-123.40850067138672,-78.6845932006836, -5.509298324584961
348,2606671440,0.8124356,0.117446296,-0.35676506,0.44595242,10.541690826416016,-2.1817400455474854,11.779348373413086,-114.20757293701172,-80.25385284423828, -5.708707809448242
349,2606688107,0.81085145,0.10988077,-0.37185115,0.43837523,8.856561660766602,-2.886078357696533,13.549469947814941,-106.23419189453125,-70.79068756103516, -6.225768089294434
350,2606704774,0.81037915,0.0991229,-0.3829005,0.43225896,9.149967193603516,-3.827420711517334,14.886626243591309,-108.92947387695312,-34.93412399291992, 3.635948896408081
351,2606721441,0.8098565,0.087266915,-0.39467636,0.42514443,6.4309539794921875,-2.2735884189605713,10.918831825256348,-119.77304077148438,-36.77033233642578, 1.532114863395691
352,2606738108,0.8088373,0.07645287,-0.4096223,0.41490617,8.195857048034668,-3.325603723526001,9.6908540725708,-131.42503356933594,-60.874977111816406, -15.380102157592773
353,2606754775,0.806509,0.06803355,-0.42529652,0.40501577,9.436562538146973,-6.199426651000977,9.13860034942627,-118.4798355102539,-75.3500747680664, -16.115619659423828
354,2606771442,0.8025937,0.06582322,-0.43924266,0.398217,12.873085975646973,-6.258499622344971,8.221027374267578,-69.36079406738281,-86.28565216064453, -13.6278076171875
355,2606788109,0.7982131,0.07000725,-0.44932556,0.3950467,7.856335639953613,-4.073334693908691,12.71967887878418,-12.242715835571289,-82.1656723022461, -13.459988594055176
356,2606804776,0.7944325,0.07075179,-0.45979518,0.39046103,7.465277194976807,-2.5441477298736572,15.419960021972656,-36.8576545715332,-73.9834976196289, -12.100940704345703
357,2606821443,0.79171574,0.069125846,-0.4683431,0.38608634,7.554126739501953,-4.970981597900391,14.986687660217285,-44.58529281616211,-53.95351028442383, -7.263479232788086
358,2606838110,0.7897664,0.068458185,-0.4729529,0.3845754,8.025084495544434,-5.548247337341309,13.782480239868164,-20.085540771484375,-31.494686126708984, 1.2496626377105713
359,2606854777,0.78853434,0.06822701,-0.47606882,0.38329825,7.748766899108887,-3.1712255477905273,11.851810455322266,-13.357681274414062,-22.297046661376953, -1.5888874530792236
360,2606871444,0.78734076,0.06624527,-0.48021117,0.38092428,7.899233818054199,-3.7358109951019287,9.779875755310059,-29.19706153869629,-23.777067184448242, -1.4409520626068115
361,2606888111,0.78584456,0.065954536,-0.4831436,0.38035598,8.053534507751465,-4.2218403816223145,7.536005020141602,-10.77751350402832,-21.902259826660156, 2.9670004844665527
362,2606904778,0.78457993,0.06708856,-0.48538172,0.37991852,8.247992515563965,-3.413909673690796,8.265973091125488,-0.9228653907775879,-21.04235076904297, -2.0178356170654297
363,2606921445,0.7837755,0.06937917,-0.48640752,0.37985563,7.9313249588012695,-3.010226011276245,9.810079574584961,9.523614883422852,-15.836647987365723, -5.6193952560424805
364,2606938112,0.78335327,0.071286276,-0.48687536,0.37977433,7.718381404876709,-3.1928534507751465,10.750336647033691,8.647974967956543,-10.631277084350586, -5.696820259094238
365,2606954779,0.783457,0.07446866,-0.48551336,0.38069227,7.734965801239014,-3.346370220184326,10.085838317871094,23.357196807861328,-1.956263542175293, -6.856072902679443
366,2606971446,0.78374773,0.07912778,-0.4830217,0.38232008,8.144081115722656,-3.2197532653808594,10.057616233825684,36.52854537963867,1.1739063262939453, -9.032068252563477
367,2606988113,0.7845866,0.082556985,-0.480229,0.38339075,8.613381385803223,-2.561330556869507,10.820959091186523,28.53508186340332,7.481399059295654, -9.548727989196777
368,2607004780,0.7857878,0.082679905,-0.4782118,0.38342565,8.159255981445312,-2.3421411514282227,11.125651359558105,5.000646591186523,12.55010986328125, -4.721435546875
369,2607021447,0.7872202,0.0828474,-0.47508445,0.384338,7.998042583465576,-2.726539373397827,8.816802024841309,10.902095794677734,19.601606369018555, -1.3488695621490479
370,2607038114,0.78883827,0.082718484,-0.47085372,0.3862498,8.659144401550293,-2.383373975753784,8.610867500305176,15.361289978027344,27.518449783325195, 3.9067764282226562
371,2607054781,0.79097426,0.08183757,-0.4654103,0.3886588,8.323238372802734,-1.695743203163147,9.652527809143066,15.812475204467773,38.055076599121094, 6.988781452178955
372,2607071448,0.79352087,0.079399616,-0.45983684,0.390603,9.284419059753418,-2.7192468643188477,8.320098876953125,5.942886829376221,43.94750213623047, 8.297043800354004
373,2607088115,0.7966642,0.07963349,-0.45087186,0.39458767,10.115694046020508,-4.001152992248535,6.959714412689209,35.76023483276367,58.30646896362305, 7.540510177612305
374,2607104782,0.80063397,0.08201147,-0.4385101,0.3999608,9.714990615844727,-3.64490008354187,6.927299499511719,60.60614013671875,74.50507354736328, 4.388014316558838
375,2607121449,0.80511534,0.08441451,-0.42438897,0.40565708,9.249911308288574,-2.566969156265259,6.743986129760742,66.31531524658203,85.92343139648438, 3.7051398754119873
376,2607138116,0.80964065,0.08510564,-0.40984195,0.4114231,8.924654006958008,-2.4635047912597656,6.710614204406738,58.22578430175781,93.3045425415039, 8.741148948669434
377,2607154783,0.81406987,0.084458634,-0.39466083,0.41761228,8.600007057189941,-2.6913976669311523,6.26915168762207,53.835567474365234,100.67919921875, 14.782999992370605
378,2607171450,0.8185628,0.08281719,-0.3784477,0.42411542,8.132594108581543,-2.406370162963867,6.7643256187438965,52.07054138183594,109.75956726074219, 18.458894729614258
379,2607188117,0.82314336,0.080277115,-0.36126986,0.43066788,7.913078784942627,-2.061842918395996,6.708138942718506,49.92572784423828,118.14154815673828, 20.27886199951172
380,2607204784,0.82799464,0.076801926,-0.3427837,0.43706506,7.479168891906738,-1.861200213432312,6.850367546081543,47.989383697509766,128.98345947265625, 20.211366653442383
381,2607221451,0.83312,0.070982404,-0.32394996,0.44263902,7.702852249145508,-1.0081965923309326,6.253047466278076,33.61479187011719,138.29348754882812, 20.054391860961914
382,2607238118,0.8382289,0.06282634,-0.30494013,0.44770196,7.965111255645752,-1.8646429777145386,5.515793800354004,19.631685256958008,146.23219299316406, 22.315671920776367
383,2607254785,0.8431069,0.053095043,-0.2854846,0.45260394,7.794288635253906,-1.390360951423645,5.451455593109131,11.710249900817871,153.2318878173828, 25.212862014770508
384,2607271452,0.8476899,0.041748863,-0.2656355,0.45729312,6.774896621704102,-1.0790807008743286,6.0157976150512695,3.2780582904815674,160.0208282470703, 27.940258026123047
385,2607288119,0.85178626,0.029643735,-0.24515864,0.46203795,5.869533538818359,-1.2239798307418823,6.015701770782471,1.0690333843231201,165.3024139404297, 31.011295318603516
386,2607304786,0.85535794,0.01773982,-0.22392409,0.46680462,4.947279930114746,-1.2460880279541016,5.959537982940674,4.806394100189209,168.3114013671875, 32.32709503173828
387,2607321453,0.85848355,0.006723381,-0.20152925,0.47153696,3.900977611541748,-0.7999414205551147,5.487013816833496,13.75296401977539,171.6731719970703, 32.042789459228516
388,2607338120,0.8611495,-0.0037857648,-0.17839938,0.47600526,3.1142845153808594,-0.7297294735908508,5.848660945892334,18.785165786743164,173.77517700195312, 31.251558303833008
389,2607354787,0.8634211,-0.014123346,-0.15515743,0.47982395,2.5202510356903076,-0.0851353257894516,6.115657329559326,19.351661682128906,173.4493408203125, 28.487756729125977
390,2607371454,0.86545146,-0.023660682,-0.13195664,0.48272306,2.5436127185821533,0.006562761031091213,5.741335391998291,22.936986923217773,170.42135620117188, 22.979881286621094
391,2607388121,0.86734515,-0.03198782,-0.10911511,0.48454478,2.4922068119049072,0.08606840670108795,4.573655128479004,27.91716194152832,164.35899353027344, 15.8594331741333
392,2607404788,0.86929524,-0.03905786,-0.087954305,0.48483446,2.2553484439849854,-0.3233485221862793,3.8939554691314697,28.65723991394043,150.57810974121094, 5.230169296264648
393,2607421455,0.8713075,-0.044136368,-0.06846354,0.48393002,1.5283077955245972,-1.2000913619995117,3.917515754699707,34.28506088256836,134.36956787109375, -3.767089605331421
394,2607438122,0.87322265,-0.048237883,-0.05085472,0.48225468,0.6101745367050171,-1.3238699436187744,4.9355340003967285,33.509033203125,120.06815338134766, -9.098529815673828
395,2607454789,0.87474746,-0.052082565,-0.03502683,0.48049724,-0.1570335030555725,-1.3305232524871826,5.084518909454346,29.013063430786133,108.42020416259766, -8.983262062072754
396,2607471456,0.8756807,-0.05622312,-0.02196805,0.4791032,-0.13737726211547852,-1.2056970596313477,4.345574378967285,17.986434936523438,92.45574951171875, -5.772360801696777
397,2607488123,0.8761001,-0.059853625,-0.011604874,0.47825906,-0.5954241752624512,-0.3537323772907257,4.598872184753418,12.08764934539795,74.24747467041016, -1.891778826713562
398,2607504790,0.8760536,-0.06362053,-0.0042133066,0.4779803,-1.0259767770767212,-0.17499589920043945,4.753104209899902,1.3445217609405518,56.50599670410156, 1.8301312923431396
399,2607521457,0.8757901,-0.0656113,0.0014433956,0.4782103,-1.3499454259872437,-0.38159307837486267,3.8814990520477295,6.251552104949951,39.959354400634766, 4.790493011474609
400,2607538124,0.87572324,-0.06438023,0.0054402114,0.47847098,-1.5714380741119385,-0.8944234251976013,3.583385944366455,20.283246994018555,19.31456184387207, 3.606874465942383
401,2607554791,0.87589747,-0.05923941,0.008544147,0.47877064,-1.838692545890808,-0.8377574682235718,5.521540641784668,41.01066589355469,1.0035052299499512, 2.7956364154815674
402,2607571458,0.8759811,-0.05262174,0.010411459,0.4793535,-2.213559865951538,-0.29907551407814026,7.330105304718018,45.79151153564453,-11.465591430664062, 4.376893043518066
403,2607588125,0.87591153,-0.045935832,0.011085695,0.48015228,-1.988604187965393,0.31038400530815125,8.474489212036133,42.188621520996094,-19.002731323242188, 5.753021240234375
404,2607604792,0.8759233,-0.03840181,0.011904577,0.4807726,-1.8988691568374634,0.2999189794063568,9.30799388885498,47.78194046020508,-20.930490493774414, 4.515517234802246
405,2607621459,0.87582564,-0.031282533,0.012192818,0.4814586,-2.1448183059692383,0.40154725313186646,9.957974433898926,43.46766662597656,-22.808740615844727, 5.098424911499023
406,2607638126,0.87559164,-0.025749872,0.010354967,0.4822542,-1.9005790948867798,-0.08709833025932312,7.6880927085876465,26.808584213256836,-30.425546646118164, 5.620055198669434
407,2607654793,0.87531126,-0.020146916,0.006699646,0.4830938,-2.2413902282714844,-0.10295327752828598,6.59565544128418,21.18979835510254,-41.654701232910156, 5.723720550537109
408,2607671460,0.8749403,-0.0143887075,0.00073192857,0.48401672,-2.1347861289978027,-0.27815601229667664,6.3272175788879395,14.42585277557373,-56.161136627197266, 6.214413642883301
409,2607688127,0.8743153,-0.007540349,-0.006522546,0.4852562,-2.159925937652588,-0.49562838673591614,6.273728370666504,16.68073272705078,-67.62535858154297, 8.847426414489746
410,2607704794,0.8733945,0.0027464714,-0.015354128,0.4867638,-1.155038595199585,-2.137024402618408,0.9309658408164978,32.099422454833984,-88.67576599121094, 11.209735870361328
411,2607721461,0.8716005,0.01692499,-0.03828953,0.48842633,7.2239089012146,-2.109872579574585,-26.244178771972656,8.377381324768066,-186.53173828125, 14.92984390258789
412,2607738128,0.8680386,0.03839681,-0.07005176,0.4900282,11.97948932647705,1.058955430984497,-0.5589438080787659,22.727703094482422,-264.0839538574219, 19.6092586517334
413,2607754795,0.8621709,0.05749802,-0.09534034,0.49423257,3.1672146320343018,-3.4202702045440674,9.793004035949707,32.230224609375,-217.3908233642578, 42.37260818481445
414,2607771462,0.8564457,0.07883961,-0.11833782,0.49626765,4.027769088745117,2.201796770095825,3.253296375274658,51.9454345703125,-212.13845825195312, 26.60971450805664
415,2607788129,0.85124433,0.09342615,-0.1408133,0.49681637,1.5409903526306152,-2.9165899753570557,-0.3624899685382843,12.377833366394043,-186.27049255371094, 21.301666259765625
416,2607804796,0.8467655,0.10741768,-0.15719809,0.49672788,1.7174656391143799,-1.5902940034866333,6.56809139251709,28.72234535217285,-148.2330780029297, 11.721632957458496
417,2607821463,0.8418321,0.11757497,-0.1727986,0.49763012,7.485668659210205,-2.2221593856811523,9.377799034118652,10.54123306274414,-130.36459350585938, 22.57820701599121
418,2607838130,0.8373708,0.1235876,-0.19002883,0.4974187,8.91990852355957,-0.6556994318962097,9.045976638793945,-20.649274826049805,-125.83290100097656, 20.703086853027344
419,2607854797,0.8326655,0.13095413,-0.20680456,0.49674067,9.267120361328125,2.2221364974975586,8.83216381072998,-11.670289039611816,-128.40084838867188, 16.68230628967285
420,2607871464,0.8276265,0.13623397,-0.22502026,0.4958234,8.523710250854492,4.8822407722473145,5.5280537605285645,-28.641162872314453,-130.05421447753906, 20.758380889892578
421,2607888131,0.82240415,0.13965681,-0.24535334,0.49391207,8.400888442993164,3.4993979930877686,7.369311809539795,-47.95758056640625,-136.81834411621094, 20.672504425048828
422,2607904798,0.81721157,0.14403914,-0.26532647,0.49093765,10.86169147491455,1.941750168800354,9.301724433898926,-43.22648620605469,-138.90052795410156, 12.703374862670898
423,2607921465,0.81365424,0.14569274,-0.28359556,0.48612136,12.260795593261719,2.3854799270629883,11.215657234191895,-57.84977722167969,-118.82028198242188, 0.19007712602615356
424,2607938132,0.8115201,0.14385854,-0.3011871,0.47961077,13.58540153503418,1.6551958322525024,12.151302337646484,-79.9041748046875,-102.18675231933594, -7.818729400634766
425,2607954799,0.81065303,0.13751234,-0.31950036,0.47101146,13.491641998291016,0.47739118337631226,11.84562873840332,-113.09578704833984,-90.68026733398438, -13.474400520324707
426,2607971466,0.8096527,0.12964945,-0.3380215,0.4619472,12.476329803466797,-0.5369440317153931,10.763188362121582,-123.17130279541016,-87.58100891113281, -12.021844863891602
427,2607988133,0.8081156,0.1229106,-0.35509583,0.4535962,10.493978500366211,-2.608210563659668,12.503209114074707,-110.18286895751953,-83.65697479248047, -10.154125213623047
428,2608004800,0.8065147,0.11729548,-0.37006938,0.4458975,9.292935371398926,-3.0266335010528564,12.789811134338379,-95.70988464355469,-75.168212890625, -10.831090927124023
429,2608021467,0.8061217,0.1084433,-0.38219398,0.43856102,9.679705619812012,-3.8431334495544434,15.09616470336914,-104.95076751708984,-46.2176628112793, -6.584357261657715
430,2608038134,0.80671525,0.10078374,-0.3902627,0.43214422,7.50900936126709,-3.95481014251709,12.640923500061035,-84.42068481445312,-24.260696411132812, -10.655739784240723
431,2608054801,0.806353,0.090288855,-0.40585145,0.42062747,8.506743431091309,-4.634429931640625,8.315973281860352,-135.4869842529297,-63.8563346862793, -23.316679000854492
432,2608071468,0.8036151,0.084149264,-0.42201787,0.4111237,11.858195304870605,-7.251933574676514,6.4870805740356445,-105.85938262939453,-85.07438659667969, -17.13748550415039
433,2608088135,0.80010617,0.081923515,-0.43617606,0.40357074,11.70178508758545,-5.805931091308594,10.702397346496582,-72.29944610595703,-86.04108428955078, -16.79608917236328
434,2608104802,0.7973163,0.07964287,-0.44731402,0.39730853,6.586080551147461,-1.4827066659927368,18.191852569580078,-60.69894790649414,-66.44561767578125, -13.29245662689209
435,2608121469,0.79576945,0.07101455,-0.4592159,0.3883669,8.110162734985352,-3.5686984062194824,15.9319486618042,-106.65303039550781,-51.41667938232422, -11.421503067016602
436,2608138136,0.7947843,0.06421314,-0.46707603,0.38214505,7.991639137268066,-6.247706890106201,13.345453262329102,-77.6341552734375,-31.443401336669922, -5.83017110824585
437,2608154803,0.7937959,0.061793018,-0.47144988,0.37921622,7.808117389678955,-5.331394195556641,11.364026069641113,-33.94293212890625,-22.74285888671875, -3.564758539199829
438,2608171470,0.79253745,0.06250189,-0.47447893,0.3779524,7.553326606750488,-3.9355456829071045,10.45380973815918,-7.85356330871582,-23.94261360168457, -4.591689109802246
439,2608188137,0.79120046,0.06390169,-0.47610644,0.3784721,7.747025489807129,-3.8491289615631104,10.021218299865723,5.3724822998046875,-17.779272079467773, 2.4168107509613037
440,2608204804,0.7898569,0.06642755,-0.4766255,0.38018644,7.987970352172852,-2.5121567249298096,8.41932201385498,18.272397994995117,-14.349669456481934, 4.716107368469238
441,2608221471,0.78892386,0.066829056,-0.47777796,0.38060695,8.206746101379395,-2.347113609313965,8.332319259643555,0.6130466461181641,-11.588279724121094, 3.8718032836914062
442,2608238138,0.78843623,0.067930065,-0.47778636,0.38141093,7.778504371643066,-2.5186214447021484,9.286221504211426,8.416252136230469,-5.67195987701416, 1.9734655618667603
443,2608254805,0.7880858,0.06967791,-0.47666353,0.38322034,7.8485565185546875,-3.286524534225464,9.684054374694824,18.07608985900879,-0.4606705904006958, 4.410467624664307
444,2608271472,0.788304,0.072894,-0.4737097,0.38582718,8.021120071411133,-2.7720158100128174,9.577140808105469,33.16427230834961,7.677367687225342, 1.5241860151290894
445,2608288139,0.78916067,0.07422633,-0.47115895,0.38694358,7.731298923492432,-2.6982617378234863,11.027164459228516,16.670747756958008,11.673868179321289, -1.9107612371444702
446,2608304806,0.7902777,0.07566424,-0.46789056,0.38834894,8.073741912841797,-3.7188498973846436,11.053600311279297,19.89462661743164,16.069400787353516, -1.7513363361358643
447,2608321473,0.79179287,0.07591314,-0.46474752,0.38898727,8.282594680786133,-2.665140151977539,9.817817687988281,10.402750015258789,19.245588302612305, -3.1287243366241455
448,2608338140,0.79380393,0.07414513,-0.46142384,0.38918668,9.103160858154297,-3.9437928199768066,7.661930561065674,-1.8003597259521484,26.84345245361328, -0.5065820813179016
449,2608354807,0.7961908,0.07505144,-0.4550628,0.39161938,9.387846946716309,-4.0560994148254395,6.796754360198975,27.829944610595703,38.57204818725586, 0.5993226170539856
450,2608371474,0.7989437,0.077457085,-0.44683754,0.3950009,9.569281578063965,-2.9258334636688232,6.694379806518555,43.89632797241211,46.391170501708984, -0.8585883378982544
451,2608388141,0.80193174,0.07945072,-0.4379003,0.39854315,9.506185531616211,-3.1912930011749268,7.341452121734619,43.94050979614258,52.26932907104492, 0.282839298248291
452,2608404808,0.8049465,0.080701426,-0.42857343,0.4023351,9.731637954711914,-3.4160478115081787,7.113394737243652,41.67622375488281,56.688846588134766, 3.621551990509033
453,2608421475,0.8080492,0.08112095,-0.41862297,0.40648594,9.593602180480957,-3.292097330093384,7.065393924713135,39.83635330200195,62.946868896484375, 7.458521366119385
454,2608438142,0.8111339,0.080975324,-0.4077698,0.41137436,9.278929710388184,-3.575538396835327,6.24296760559082,41.387943267822266,69.96293640136719, 12.72905445098877
455,2608454809,0.814289,0.08117182,-0.3952289,0.41729954,9.49942398071289,-3.1202890872955322,5.5274553298950195,50.99394226074219,79.28672790527344, 16.4019832611084
456,2608471476,0.8175984,0.081655,-0.38062257,0.4242548,9.535387992858887,-2.331758737564087,6.0416412353515625,61.29389953613281,91.17913055419922, 19.804012298583984
457,2608488143,0.8210585,0.08136445,-0.36502227,0.43127888,9.012310028076172,-1.6479893922805786,6.115692615509033,59.96450424194336,99.61470031738281, 21.251317977905273
458,2608504810,0.82460207,0.080240734,-0.34814948,0.43861705,8.706608772277832,-1.881283164024353,6.525910377502441,59.7884635925293,109.80692291259766, 24.206506729125977
459,2608521477,0.82825434,0.07714246,-0.33063138,0.44578785,8.145172119140625,-1.3084462881088257,6.730673313140869,50.093101501464844,119.73529052734375, 27.327747344970703
460,2608538144,0.8318302,0.07149488,-0.3129086,0.45280814,7.64088249206543,-1.134692668914795,7.0766754150390625,35.895904541015625,128.5970916748047, 32.42311477661133
461,2608554811,0.8353293,0.063918635,-0.2952163,0.459333,6.7449140548706055,-0.18927235901355743,6.286581039428711,23.73493003845215,134.1404266357422, 34.023677825927734
462,2608571478,0.8386531,0.05501449,-0.2771997,0.46561232,5.6679511070251465,-1.1745193004608154,5.825342178344727,16.674243927001953,139.8578338623047, 35.75843048095703
463,2608588145,0.8418264,0.045601834,-0.2585824,0.471576,4.6342878341674805,-0.4026603102684021,6.247220993041992,15.127047538757324,144.65042114257812, 35.168182373046875
464,2608604812,0.8449086,0.035833444,-0.23955373,0.47692728,4.261043071746826,-0.17037907242774963,6.78472375869751,13.319324493408203,147.8971405029297, 32.43976593017578
465,2608621479,0.84791636,0.025690122,-0.21981396,0.4817257,3.8483405113220215,-0.08740696310997009,6.643956661224365,12.543129920959473,153.05294799804688, 29.92272186279297
466,2608638146,0.8509943,0.015385608,-0.19909793,0.48572838,3.378276824951172,0.47392261028289795,6.235443592071533,13.590373039245605,159.2957000732422, 25.136707305908203
467,2608654813,0.8541209,0.0058779237,-0.1767936,0.4890675,3.460858106613159,0.6666155457496643,6.5977463722229,22.593544006347656,165.97853088378906, 19.840055465698242
468,2608671480,0.85710496,-0.0042503597,-0.15437753,0.4914477,2.9446327686309814,0.867863655090332,7.03989315032959,18.111007690429688,168.5706329345703, 15.447155952453613
469,2608688147,0.8598657,-0.013204736,-0.13218026,0.4929354,2.637643575668335,0.5058249831199646,6.410661697387695,23.277502059936523,163.14764404296875, 9.695024490356445
470,2608704814,0.86239374,-0.019578481,-0.110093944,0.4937339,2.324273109436035,-0.5835270881652832,6.595017433166504,37.47566604614258,153.64703369140625, 4.044493198394775
471,2608721481,0.8646633,-0.023689229,-0.0890556,0.49382752,1.9455091953277588,-0.18355907499790192,5.841741561889648,46.779476165771484,139.695068359375, -1.122741460800171
472,2608738148,0.86662555,-0.02657274,-0.06953014,0.49337593,1.6860426664352417,-0.2131425440311432,4.666593074798584,48.55745315551758,126.47782135009766, -4.333526611328125
473,2608754815,0.86816394,-0.02940111,-0.052190583,0.49264935,1.2408181428909302,0.017543859779834747,4.427616119384766,41.275325775146484,113.15755462646484, -4.969733238220215
474,2608771482,0.8691811,-0.03218916,-0.036449496,0.49209747,0.602794885635376,-0.2973935902118683,5.718247413635254,36.066654205322266,103.2889175415039, -2.5111236572265625
475,2608788149,0.869664,-0.03572438,-0.023407612,0.4917931,0.21606269478797913,-0.29444581270217896,5.344582557678223,22.428924560546875,89.50590515136719, 0.3542790710926056
476,2608804816,0.86997116,-0.038125433,-0.012374763,0.49147096,-0.2553710639476776,-0.7315289378166199,5.42022180557251,22.389904022216797,73.63452911376953, 0.1584242433309555
477,2608821483,0.87023485,-0.040042367,-0.003730477,0.49099302,-0.8522332310676575,0.1573788970708847,6.134566783905029,17.223665237426758,57.73705291748047, -1.3062130212783813
478,2608838150,0.8704742,-0.040661428,0.0032641892,0.4905211,-0.9781391024589539,-0.3185438811779022,5.67393684387207,19.413921356201172,43.454124450683594, -1.679796576499939
479,2608854817,0.8706665,-0.038701724,0.008973618,0.49026692,-1.1197758913040161,-0.35778751969337463,4.139707565307617,30.513671875,26.977087020874023, -0.5247945189476013
480,2608871484,0.870762,-0.034177426,0.012858226,0.4903471,-1.4442659616470337,-0.8804242014884949,3.582406997680664,39.691410064697266,7.294032573699951, 1.473820686340332
481,2608888151,0.87073684,-0.026698392,0.015515014,0.490779,-1.3393641710281372,-0.9506098031997681,4.427970886230469,53.2235107421875,-10.131041526794434, 3.9618704319000244
482,2608904818,0.87062085,-0.016892292,0.017405754,0.49135658,-1.7051124572753906,-0.31087103486061096,5.8919878005981445,64.5794906616211,-22.619421005249023, 5.247162342071533
483,2608921485,0.8705199,-0.007163004,0.017816845,0.49175864,-2.03035306930542,0.38130244612693787,8.18509578704834,59.162479400634766,-31.2403564453125, 3.9750962257385254
484,2608938152,0.87043935,0.00057004206,0.016604763,0.49199528,-1.8793727159500122,0.8430449962615967,9.714110374450684,41.74613952636719,-34.24919128417969, 2.596802234649658
485,2608954819,0.87030864,0.0053299903,0.013248306,0.49229988,-2.2255148887634277,0.17039677500724792,9.635176658630371,16.680347442626953,-37.061485290527344, 2.8444411754608154
486,2608971486,0.86983913,0.01019486,0.0069276723,0.49318182,-1.479016900062561,-1.9462087154388428,0.960038423538208,7.247329235076904,-55.155296325683594, 7.57130765914917
487,2608988153,0.8678971,0.019344028,-0.0147322565,0.49614865,6.34947395324707,-5.998568058013916,-30.705759048461914,-19.069957733154297,-161.24806213378906, 26.3177433013916
488,2609004820,0.8646624,0.044241432,-0.04447398,0.49842122,13.141188621520996,-0.9817680716514587,-7.696105003356934,47.624244689941406,-263.2207336425781, 26.07160186767578
489,2609021487,0.85964906,0.06268928,-0.07063779,0.5020798,1.0533229112625122,-1.3410805463790894,12.393058776855469,22.53208351135254,-219.4986572265625, 41.26304626464844
490,2609038154,0.8539561,0.08238587,-0.09443215,0.5050289,4.759471893310547,-0.92650306224823,2.793879508972168,38.09671401977539,-210.47970581054688, 37.77790832519531
491,2609054821,0.848192,0.10180964,-0.11404336,0.50714844,1.2750085592269897,-3.3363611698150635,-0.11200812458992004,50.55369567871094,-185.36497497558594, 30.94099235534668
492,2609071488,0.8438075,0.116656765,-0.12980448,0.5074752,2.48874568939209,-0.6094191670417786,7.324443340301514,35.00716018676758,-147.09352111816406, 16.533967971801758
493,2609088155,0.8386334,0.12788396,-0.14514227,0.5091891,7.739328384399414,-1.941567301750183,8.912001609802246,17.373533248901367,-131.61558532714844, 30.210418701171875
494,2609104822,0.83399594,0.13549592,-0.16249666,0.5095946,9.92035961151123,0.21849499642848969,8.816083908081055,-12.24741268157959,-131.09417724609375, 26.126298904418945
495,2609121489,0.8291267,0.14410888,-0.17943145,0.50949603,9.855472564697266,3.1502232551574707,8.885623931884766,-5.38722038269043,-132.7735595703125, 22.512256622314453
496,2609138156,0.82417816,0.1506381,-0.1960566,0.5095102,9.338339805603027,6.606738567352295,6.222925662994385,-16.03432273864746,-123.56734466552734, 25.73322296142578
497,2609154823,0.8194838,0.15241739,-0.21549647,0.5087009,8.457245826721191,3.8353705406188965,7.38649320602417,-54.35063934326172,-123.26203155517578, 29.578203201293945
498,2609171490,0.8152595,0.1533996,-0.2357117,0.50622207,9.342243194580078,2.8842313289642334,8.016433715820312,-64.59732055664062,-125.82318115234375, 20.594303131103516
499,2609188157,0.8126522,0.15235369,-0.25440368,0.501661,10.454500198364258,2.679593563079834,10.191427230834961,-75.80235290527344,-109.7283935546875, 5.035292625427246
500,2609204824,0.81158525,0.14878862,-0.27122265,0.49561054,11.69200325012207,1.0073446035385132,10.408912658691406,-87.69169616699219,-89.39171600341797, -6.08497953414917
501,2609221491,0.81147206,0.14336172,-0.28702694,0.48844284,11.696335792541504,-0.29129981994628906,10.635443687438965,-97.71176147460938,-76.69033813476562, -13.092394828796387
502,2609238158,0.8113409,0.1372856,-0.3018166,0.48144117,10.748162269592285,-0.8257651925086975,11.052624702453613,-97.56147766113281,-68.68058776855469, -11.763983726501465
503,2609254825,0.8111178,0.13066894,-0.31577072,0.4746603,10.752511978149414,-1.0530998706817627,13.870447158813477,-97.27029418945312,-62.21164321899414, -9.875995635986328
504,2609271492,0.81092924,0.12315847,-0.3289379,0.468002,9.662320137023926,-1.9642730951309204,13.485698699951172,-99.46879577636719,-54.781246185302734, -8.058917999267578
505,2609288159,0.8110375,0.1150325,-0.34110606,0.46112087,8.944306373596191,-1.4046540260314941,14.272748947143555,-100.41282653808594,-46.83791732788086, -9.676565170288086
506,2609304826,0.81208646,0.10244309,-0.35229576,0.45377204,7.449343204498291,-1.6172972917556763,15.281099319458008,-124.05022430419922,-25.52195930480957, -5.539865970611572
507,2609321493,0.81367874,0.087786704,-0.3641661,0.44452617,6.930004119873047,-1.9493510723114014,10.872947692871094,-142.74188232421875,-23.07162094116211, -12.34764575958252
508,2609338160,0.8130765,0.07778833,-0.3798929,0.43420866,11.149955749511719,-6.384664535522461,4.876759052276611,-129.82261657714844,-65.13561248779297, -20.946565628051758
509,2609354827,0.8097113,0.080151744,-0.39290205,0.4284526,15.576252937316895,-5.948780059814453,5.116679668426514,-39.095218658447266,-91.50946044921875, -20.994626998901367
510,2609371494,0.8055112,0.087550014,-0.40243903,0.42606333,8.961603164672852,-3.6386966705322266,14.70921802520752,8.811661720275879,-87.21780395507812, -15.33843994140625
511,2609388161,0.80135113,0.08955576,-0.41363522,0.4227555,7.527744770050049,-3.230560541152954,15.94539737701416,-28.485021591186523,-81.21833038330078, -4.643396377563477
512,2609404828,0.7972947,0.08870682,-0.4250423,0.41927522,9.07129192352295,-5.722113609313965,12.735136985778809,-45.42206954956055,-74.11933135986328, 2.3181965351104736
513,2609421495,0.79355204,0.088005595,-0.43365592,0.41769934,9.115745544433594,-5.979000568389893,12.250250816345215,-31.152456283569336,-57.282630920410156, 9.650800704956055
514,2609438162,0.78990203,0.08840069,-0.4414111,0.41640908,7.0778117179870605,-4.205589771270752,13.3990478515625,-21.886754989624023,-55.41847229003906, 7.074426651000977
515,2609454829,0.7867392,0.08838074,-0.44907933,0.41419607,7.417347431182861,-2.9296987056732178,13.01540756225586,-27.00299835205078,-53.030357360839844, 1.8275337219238281
516,2609471496,0.7842416,0.08614356,-0.4564173,0.41137335,7.674525737762451,-3.0801613330841064,11.669280052185059,-40.39018249511719,-43.419654846191406, 3.255498170852661
517,2609488163,0.78245,0.08343323,-0.46306932,0.40789434,8.070849418640137,-2.0674242973327637,10.159476280212402,-43.5024528503418,-36.6992301940918, -1.2170909643173218
518,2609504830,0.7809074,0.0793056,-0.47044894,0.40320247,8.666223526000977,-3.192220449447632,9.606817245483398,-57.21421432495117,-36.641117095947266, -3.5080368518829346
519,2609521497,0.77974784,0.07802845,-0.47500253,0.4003471,8.385628700256348,-4.204377174377441,9.926074981689453,-28.368118286132812,-27.20641326904297, -5.490099906921387
520,2609538164,0.7787594,0.07864998,-0.4774137,0.39928016,9.089326858520508,-4.7499895095825195,10.189481735229492,-6.541774749755859,-19.525257110595703, -3.7545456886291504
521,2609554831,0.7781967,0.08298752,-0.4767012,0.4003492,8.82483959197998,-3.3570210933685303,10.592549324035645,28.710710525512695,-10.540200233459473, -7.412071704864502
522,2609571498,0.7778756,0.08732117,-0.47501153,0.40205568,9.117621421813965,-3.7947869300842285,10.930938720703125,33.30263137817383,-4.249752998352051, -5.2199530601501465
523,2609588165,0.77819604,0.09183944,-0.4715217,0.40452906,8.934854507446289,-2.48310923576355,10.470057487487793,41.359283447265625,7.316563606262207, -4.593692302703857
524,2609604832,0.77931696,0.09371311,-0.46732187,0.4068086,8.184588432312012,-2.5337913036346436,10.281481742858887,28.020597457885742,20.84644889831543, 0.2835274040699005
525,2609621499,0.7809604,0.09352214,-0.4625412,0.40915805,7.845907211303711,-2.3827366828918457,9.998754501342773,18.44208335876465,31.35619354248047, 5.459968566894531
526,2609638166,0.7830206,0.09218047,-0.4568051,0.4119596,7.881109237670898,-2.5130767822265625,8.751628875732422,16.090213775634766,41.24706268310547, 9.75934886932373
527,2609654833,0.7854398,0.091137804,-0.44944152,0.4156693,8.246990203857422,-2.5784077644348145,7.960931777954102,24.917116165161133,50.80876541137695, 11.6605863571167
528,2609671500,0.7883085,0.090123534,-0.44050694,0.42000148,9.279001235961914,-3.5430240631103516,7.288180828094482,31.198518753051758,60.96628952026367, 12.671140670776367
529,2609688167,0.79179794,0.090594985,-0.42849916,0.4257199,9.838637351989746,-3.385582685470581,7.03140926361084,51.950836181640625,76.09104919433594, 11.975177764892578
530,2609704834,0.796063,0.09047854,-0.41511267,0.431021,9.704378128051758,-2.36826753616333,6.2931647300720215,51.09648513793945,87.3835220336914, 8.310810089111328
531,2609721501,0.80084985,0.0898171,-0.400445,0.43613818,9.620728492736816,-2.569676637649536,5.030682563781738,51.07133102416992,97.45113372802734, 6.5376973152160645
532,2609738168,0.80556315,0.08910257,-0.38449818,0.4419164,8.985876083374023,-1.8888041973114014,5.118016242980957,56.515769958496094,104.95964813232422, 9.777047157287598
533,2609754835,0.81014407,0.08651491,-0.36890107,0.44731888,8.281289100646973,-1.7609062194824219,4.870477199554443,44.16872787475586,108.23167419433594, 13.278124809265137
534,2609771502,0.81443405,0.08409675,-0.35188738,0.45365217,8.155576705932617,-2.3655264377593994,5.4798383712768555,52.01591873168945,115.51197052001953, 18.102441787719727
535,2609788169,0.8186173,0.08119074,-0.33415797,0.46001357,8.076308250427246,-1.5850138664245605,6.131631851196289,51.67469024658203,120.88624572753906, 19.367961883544922
536,2609804836,0.8229858,0.0776171,-0.3149275,0.46635914,7.946354389190674,-1.2367616891860962,6.877283573150635,52.52801513671875,131.9481658935547, 19.40247917175293
537,2609821503,0.82757807,0.07190033,-0.2958679,0.47160107,7.619232177734375,-0.5780139565467834,5.510967254638672,37.337730407714844,137.82383728027344, 17.190492630004883
538,2609838170,0.8321825,0.065929115,-0.2752963,0.4767995,7.431291103363037,-1.3106465339660645,4.39165735244751,40.68730163574219,147.36248779296875, 16.699665069580078
539,2609854837,0.8365085,0.05942774,-0.25404516,0.48185378,6.909855842590332,-0.6334995627403259,4.236249923706055,39.74968719482422,152.52818298339844, 17.494890213012695
540,2609871504,0.84060234,0.051438563,-0.2325113,0.48649818,5.800063133239746,-0.3144897222518921,5.467806816101074,31.504364013671875,158.640625, 18.402385711669922
541,2609888171,0.84438944,0.0411164,-0.21146908,0.49050692,4.785140037536621,-0.1356954723596573,6.257816314697266,15.453193664550781,162.9746551513672, 19.674480438232422
542,2609904838,0.847741,0.029403586,-0.19069363,0.4940715,4.086514472961426,-0.8821899890899658,5.453891754150391,5.93210506439209,165.41421508789062, 20.669815063476562
543,2609921505,0.8505839,0.017872924,-0.16917372,0.49756202,3.273298978805542,-0.5031982064247131,5.413174629211426,9.531835556030273,168.51055908203125, 21.576589584350586
544,2609938172,0.852802,0.0046867356,-0.14875317,0.5005791,3.2168984413146973,-0.619835376739502,6.144889831542969,-4.394504070281982,167.0018768310547, 23.002592086791992
545,2609954839,0.85444826,-0.008217764,-0.12907615,0.50318015,3.1575887203216553,-0.48721083998680115,5.233538627624512,-5.71707010269165,161.11643981933594, 22.262733459472656
546,2609971506,0.8560411,-0.018635524,-0.1088579,0.504972,2.9681994915008545,-0.6810845732688904,5.398340225219727,10.038046836853027,155.74801635742188, 15.523493766784668
547,2609988173,0.85756224,-0.027715053,-0.08907,0.5058515,2.391306161880493,-0.6039848923683167,5.993882179260254,15.726102828979492,148.6912078857422, 9.339826583862305
548,2610004840,0.8590662,-0.036568865,-0.070794106,0.50562483,1.7327461242675781,-0.8616614937782288,6.068884372711182,11.110745429992676,139.23483276367188, 2.450509786605835
549,2610021507,0.8605108,-0.044273127,-0.054060392,0.50461763,1.1104360818862915,-1.1285935640335083,5.547962188720703,12.145853042602539,126.32675170898438, -2.9064247608184814
550,2610038174,0.86181855,-0.0507451,-0.039120607,0.50315344,0.5397624969482422,-0.9641285538673401,4.3720269203186035,13.014233589172363,111.5442123413086, -6.148449420928955
551,2610054841,0.8629582,-0.05532424,-0.025713157,0.5015791,0.20606361329555511,-0.42420950531959534,3.7428481578826904,18.854473114013672,95.91588592529297, -7.267132759094238
552,2610071508,0.8635746,-0.059488043,-0.014628742,0.50048584,-0.2659284472465515,-0.8826137185096741,4.351120948791504,13.192776679992676,80.42483520507812, -3.5720434188842773
553,2610088175,0.86376816,-0.061796475,-0.0053924522,0.50005716,-0.16153551638126373,-0.8876075744628906,3.7055811882019043,17.75658416748047,62.7413330078125, 0.8811604976654053
554,2610104842,0.8637804,-0.061378777,0.0031127501,0.5001065,-0.5995778441429138,-0.9859856367111206,4.5893168449401855,31.390972137451172,48.81205749511719, 3.9277098178863525
555,2610121509,0.86367077,-0.058955155,0.01025581,0.50049174,-0.955033540725708,-1.0717822313308716,5.525129318237305,38.580238342285156,33.67066955566406, 5.801465034484863
556,2610138176,0.86364615,-0.053638197,0.01640136,0.50096864,-1.1521068811416626,-1.2693183422088623,5.523171424865723,52.376625061035156,17.724557876586914, 5.848409652709961
557,2610154843,0.8637011,-0.04639834,0.021218335,0.50141543,-1.6994999647140503,-1.0763829946517944,6.903810024261475,59.28048324584961,3.1858370304107666, 5.116699695587158
558,2610171510,0.8635704,-0.039363988,0.024615651,0.50208634,-1.955646276473999,-1.0264257192611694,8.457999229431152,53.09575271606445,-4.623895168304443, 6.600531101226807
559,2610188177,0.8633618,-0.033206854,0.026991392,0.5027678,-1.9497572183609009,-0.7350396513938904,8.99903678894043,44.3592643737793,-7.698362827301025, 6.500300407409668
560,2610204844,0.863119,-0.027700845,0.028405502,0.5034398,-1.9173097610473633,-0.8610681295394897,8.308176040649414,37.17837142944336,-11.19361686706543, 6.219674587249756
561,2610221511,0.8628001,-0.023350177,0.028144518,0.50422114,-1.3670998811721802,-0.8315685391426086,7.7264509201049805,24.51131248474121,-17.18838119506836, 6.5863213539123535
562,2610238178,0.8623384,-0.020362439,0.026242489,0.5052418,-1.7868460416793823,-0.9929910898208618,8.802566528320312,10.692923545837402,-22.238801956176758, 7.9759345054626465
563,2610254845,0.8615904,-0.018238792,0.022991106,0.5067553,-1.7456963062286377,-1.4942095279693604,8.792506217956543,0.7849932909011841,-27.298362731933594, 11.545843124389648
564,2610271512,0.86063915,-0.015471787,0.019326326,0.50861335,-2.223374843597412,-1.1598385572433472,9.497977256774902,3.125262498855591,-32.04399490356445, 14.346030235290527
565,2610288179,0.8593438,-0.008727027,0.015920049,0.5110763,-1.903301477432251,-2.0666539669036865,6.613114356994629,27.48618507385254,-44.50621032714844, 19.68683624267578
566,2610304846,0.8575159,0.0071933405,0.01009316,0.5143083,-1.7620409727096558,-2.659032106399536,-11.158304214477539,73.15043640136719,-91.10055541992188, 26.96308135986328
567,2610321513,0.8551926,0.03208222,-0.013572512,0.5171385,17.271728515625,1.1437344551086426,-30.45496940612793,63.095035552978516,-228.0863494873047, 27.849658966064453
568,2610338180,0.8524839,0.060691874,-0.041262455,0.5175763,3.984912395477295,8.082162857055664,13.309908866882324,70.46337127685547,-264.8939208984375, 15.668179512023926
569,2610354847,0.8474683,0.0847499,-0.06394962,0.520121,6.0664591789245605,-0.7817326188087463,2.2427821159362793,62.87514877319336,-219.0321044921875, 35.431297302246094
570,2610371514,0.84259677,0.10689602,-0.08474917,0.52098167,2.3970773220062256,0.7721452116966248,-0.327307790517807,57.700809478759766,-201.89964294433594, 24.820655822753906
571,2610388181,0.8384365,0.123031475,-0.103615224,0.52072215,2.7784504890441895,2.784839153289795,0.1293066143989563,28.598018646240234,-169.4830322265625, 17.849441528320312
572,2610404848,0.8345978,0.13269265,-0.12060038,0.5208599,4.715102195739746,-0.010484650731086731,8.570392608642578,-2.0737273693084717,-134.79922485351562, 22.031230926513672
573,2610421515,0.82988983,0.14146753,-0.13658084,0.52212614,9.374858856201172,0.03173717483878136,10.45151424407959,-1.7950823307037354,-125.49455261230469, 31.42332649230957
574,2610438182,0.82507634,0.14929654,-0.15355761,0.5228572,9.666879653930664,1.7086206674575806,9.87694263458252,-11.119081497192383,-128.22354125976562, 30.589685440063477
575,2610454849,0.82077366,0.15754811,-0.16855325,0.5225889,8.773479461669922,5.068148136138916,6.8296003341674805,-3.193734884262085,-118.81775665283203, 20.606584548950195
576,2610471516,0.81669134,0.15985857,-0.18655643,0.5221661,7.055372714996338,1.2814711332321167,6.597843170166016,-48.08356475830078,-114.19464874267578, 29.154016494750977
577,2610488183,0.8123059,0.16028064,-0.2068877,0.5212168,8.181285858154297,-0.35030514001846313,8.41886043548584,-67.39042663574219,-121.36666870117188, 32.30848693847656
578,2610504850,0.80862516,0.15989104,-0.22601588,0.51911175,10.249003410339355,-0.6746172904968262,10.68046760559082,-69.98287963867188,-111.93273162841797, 23.17551040649414
579,2610521517,0.80661803,0.15589437,-0.24372426,0.515425,11.1950044631958,-1.949312448501587,11.44996452331543,-89.21930694580078,-90.22540283203125, 12.468061447143555
580,2610538184,0.8057474,0.1490882,-0.26039547,0.51062536,11.843155860900879,-1.6883512735366821,11.466856002807617,-104.12876892089844,-73.737548828125, 5.881071090698242
581,2610554851,0.80555683,0.13953492,-0.27851427,0.50402194,11.469698905944824,-1.1069622039794922,10.731173515319824,-128.3040313720703,-72.68102264404297, -0.05728718638420105
582,2610571518,0.8053064,0.1284525,-0.29723376,0.49662286,11.253965377807617,-1.7016867399215698,12.279378890991211,-140.30825805664062,-71.54240417480469, -0.6932426691055298
583,2610588185,0.8044804,0.11840599,-0.31503466,0.4894331,9.356195449829102,-2.3789732456207275,13.424725532531738,-130.4833221435547,-70.99848175048828, -0.4409312307834625
584,2610604852,0.8033717,0.107791625,-0.33304146,0.48172423,10.214953422546387,-2.136652708053589,13.397363662719727,-135.20547485351562,-71.37188720703125, -0.9356706142425537
585,2610621519,0.80278337,0.09417123,-0.34992948,0.4735188,8.942261695861816,-2.3564367294311523,15.755681991577148,-149.61642456054688,-54.51988220214844, 0.7299311757087708
586,2610638186,0.80273,0.077800274,-0.36395878,0.46594635,8.392236709594727,-2.512479543685913,14.308148384094238,-154.3546600341797,-28.289100646972656, 7.284263610839844
587,2610654853,0.80149543,0.064333774,-0.38350704,0.45430046,9.002273559570312,-2.799386978149414,6.965404033660889,-165.6022186279297,-73.38591766357422, -15.685070037841797
588,2610671520,0.7979264,0.061581023,-0.40104666,0.44573864,12.663556098937988,-6.1218953132629395,5.903493881225586,-91.08872985839844,-100.5801010131836, -20.49322509765625
589,2610688187,0.7932497,0.0702292,-0.41353545,0.4413744,11.672735214233398,-3.9561591148376465,10.950647354125977,-0.9285401105880737,-108.98026275634766, -27.686527252197266
590,2610704854,0.7884771,0.07765635,-0.42424142,0.43851182,8.280767440795898,-2.886836290359497,17.189472198486328,2.1325130462646484,-95.15603637695312, -16.607601165771484
591,2610721521,0.78457814,0.08339518,-0.4321745,0.4367009,7.281238555908203,-4.254842758178711,16.74048614501953,3.838820457458496,-72.2149429321289, -10.13377857208252
592,2610738188,0.78128946,0.08833733,-0.4381358,0.4356839,8.087618827819824,-4.721708297729492,14.397186279296875,7.429467678070068,-57.22535705566406, -6.50451135635376
593,2610754855,0.7785431,0.092674136,-0.44200122,0.43579498,8.400052070617676,-4.693789958953857,12.723091125488281,13.500143051147461,-42.05757141113281, -1.588958740234375
594,2610771522,0.7765556,0.09675937,-0.4450937,0.4353055,8.087291717529297,-2.5451500415802,11.763899803161621,12.150835037231445,-35.414615631103516, -6.867836952209473
595,2610788189,0.7756708,0.09757959,-0.44923636,0.4324351,8.071795463562012,-1.9716930389404297,12.41657543182373,-16.4796199798584,-29.612552642822266, -12.197041511535645
596,2610804856,0.7755874,0.09644173,-0.4530034,0.4288958,8.142952919006348,-2.744950294494629,10.071138381958008,-28.465744018554688,-19.925493240356445, -12.351232528686523
597,2610821523,0.7762186,0.09538507,-0.45586377,0.42494136,8.224275588989258,-2.5846915245056152,8.5720853805542,-27.158437728881836,-13.477458953857422, -17.551279067993164
598,2610838190,0.7775501,0.09366314,-0.45841324,0.42012003,8.39383316040039,-3.399414300918579,8.716487884521484,-32.97818374633789,-8.311676979064941, -22.34688949584961
599,2610854857,0.7792605,0.09348844,-0.45879537,0.41655725,8.412306785583496,-4.432098865509033,9.60716438293457,-14.710551261901855,0.7477071285247803, -23.0067195892334
600,2610871524,0.780674,0.09659613,-0.45697272,0.415203,9.070205688476562,-5.0923662185668945,9.027405738830566,16.347150802612305,3.568915367126465, -22.154239654541016
601,2610888191,0.7820618,0.10196092,-0.45342445,0.41519868,9.260638236999512,-4.2950897216796875,10.12813949584961,37.69084548950195,7.151340007781982, -23.11991310119629
602,2610904858,0.78364897,0.10749746,-0.44886562,0.41576257,8.991655349731445,-2.9981420040130615,10.474454879760742,43.13798522949219,13.047843933105469, -21.915864944458008
603,2610921525,0.78572404,0.11161383,-0.444065,0.4159165,9.45264720916748,-2.8695902824401855,9.088072776794434,34.52924728393555,19.540037155151367, -21.334239959716797
604,2610938192,0.7880078,0.11499596,-0.43788716,0.41722286,9.236562728881836,-3.8547205924987793,8.171309471130371,37.87428665161133,30.56808090209961, -14.517358779907227
605,2610954859,0.7900138,0.11892639,-0.42999098,0.4205265,9.175948143005371,-3.2893059253692627,7.743590354919434,52.03709030151367,39.03974914550781, -5.934564113616943
606,2610971526,0.7918666,0.12288105,-0.42114404,0.4248358,9.272504806518555,-3.120832920074463,7.423902988433838,58.03322219848633,44.50963592529297, -0.896666407585144
607,2610988193,0.79366314,0.1259554,-0.41114387,0.430343,9.965140342712402,-3.421983480453491,7.337451934814453,60.15080642700195,54.22776794433594, 7.3550944328308105
608,2611004860,0.7954947,0.12731144,-0.4003072,0.43673155,10.341826438903809,-2.8793466091156006,7.915641784667969,55.75028991699219,64.77537536621094, 16.186601638793945
609,2611021527,0.79780567,0.12631975,-0.38830024,0.44359082,9.815738677978516,-2.0163187980651855,7.884244918823242,47.30464172363281,79.99846649169922, 22.74281883239746
610,2611038194,0.800829,0.122573994,-0.37516293,0.45044592,9.678614616394043,-1.6456741094589233,7.270386219024658,35.0245361328125,96.5323486328125, 26.931623458862305
611,2611054861,0.8041884,0.11779904,-0.35981938,0.4581862,9.90207576751709,-1.5980080366134644,6.615047931671143,38.19422912597656,113.53565979003906, 31.57501220703125
612,2611071528,0.80787146,0.11201104,-0.34244105,0.46640268,9.41519832611084,-1.1254348754882812,6.607472896575928,39.92755126953125,129.2433624267578, 34.06543731689453
613,2611088195,0.81181556,0.10505942,-0.3233323,0.47473612,9.214811325073242,-1.340194821357727,6.605689525604248,39.084041595458984,143.36968994140625, 35.30554962158203
614,2611104862,0.8157447,0.096950985,-0.3026218,0.4833023,8.978362083435059,-1.0186082124710083,7.167116165161133,38.388267517089844,156.30422973632812, 38.085357666015625
615,2611121529,0.8196695,0.0858099,-0.2820519,0.49114716,8.308273315429688,-0.29917439818382263,6.473611831665039,19.406522750854492,165.1812286376953, 40.47287368774414
616,2611138196,0.82348025,0.07253914,-0.26160452,0.49817857,7.093481063842773,0.3900710940361023,5.598128795623779,5.463598728179932,171.0638885498047, 40.501773834228516
617,2611154863,0.8270792,0.058154937,-0.24118894,0.5043673,5.926274299621582,0.2942776381969452,4.30057430267334,-2.390214204788208,173.9734649658203, 38.49860382080078
618,2611171530,0.8305703,0.04523635,-0.21914217,0.50998414,4.381716728210449,0.816903293132782,4.685427188873291,10.676408767700195,177.83358764648438, 32.55833053588867
619,2611188197,0.83397317,0.03351323,-0.19596148,0.51474756,3.7705018520355225,0.42987585067749023,5.169259548187256,20.185598373413086,179.7591094970703, 25.852447509765625
620,2611204864,0.83734536,0.022785652,-0.17112948,0.51869875,3.2569425106048584,0.8152320981025696,5.3665876388549805,30.62688636779785,185.50433349609375, 19.591684341430664
621,2611221531,0.84074783,0.012421075,-0.14462925,0.5216047,3.239123821258545,0.7268914580345154,6.543605327606201,37.39634323120117,193.70973205566406, 12.778480529785156
622,2611238198,0.84398884,0.0018172575,-0.11739738,0.5233523,3.2789385318756104,1.1558990478515625,7.040335655212402,37.46332931518555,198.558837890625, 6.830661773681641
623,2611254865,0.84679335,-0.008799402,-0.09016793,0.5241502,3.4788005352020264,0.08517031371593475,5.894162654876709,36.5750846862793,198.2525634765625, 2.8996129035949707
624,2611271532,0.8491512,-0.01842143,-0.06309712,0.5240438,3.1391305923461914,-0.09412138164043427,6.4297871589660645,41.19453811645508,193.56655883789062, -1.3972887992858887
625,2611288199,0.8508718,-0.02742328,-0.037073314,0.5233458,2.471163272857666,-0.7253900766372681,6.448975086212158,40.69874572753906,185.0570831298828, -2.969066858291626
626,2611304866,0.8519545,-0.03509389,-0.012277343,0.52229446,1.9495785236358643,-2.0527689456939697,6.459322929382324,43.86933135986328,173.016845703125, -3.3173325061798096
627,2611321533,0.85230625,-0.041000027,0.011410535,0.5213089,1.7179038524627686,-2.0544798374176025,6.231335639953613,50.09918212890625,160.1382293701172, -0.7448016405105591
628,2611338200,0.8520411,-0.047333762,0.031793945,0.52036023,1.5735235214233398,-0.568511962890625,3.6865060329437256,35.61566162109375,142.36856079101562, 0.7184971570968628
629,2611354867,0.8513843,-0.05525913,0.047729697,0.5194355,0.4866071343421936,0.5545755624771118,2.8317575454711914,10.259228706359863,122.10714721679688, 0.45582127571105957
630,2611371534,0.8505784,-0.06360086,0.059033632,0.51863897,-0.6131287217140198,0.6704970598220825,2.163595676422119,-8.830167770385742,96.47734832763672, -0.16159586608409882
631,2611388201,0.84983414,-0.07093495,0.06631207,0.5180281,-1.3835541009902954,0.8001199960708618,2.0853271484375,-17.35169792175293,69.20817565917969, -0.6555687189102173
632,2611404868,0.84934896,-0.07534734,0.07052437,0.5176444,-2.041078567504883,0.2291802614927292,2.3709945678710938,-11.193511009216309,40.61402130126953, -0.41505634784698486
633,2611421535,0.84940016,-0.07495678,0.073462136,0.5172083,-2.5212104320526123,-0.00942523404955864,3.6407642364501953,12.61905574798584,15.790948867797852, -0.9665477871894836
634,2611438202,0.8499417,-0.0694728,0.07617789,0.5166912,-2.409562826156616,-0.45213383436203003,4.531902313232422,41.871036529541016,-3.8795666694641113, -0.7333217859268188
635,2611454869,0.85077703,-0.05911042,0.079256795,0.5161425,-2.6520493030548096,-0.5794216990470886,5.511229038238525,71.83830261230469,-19.27312469482422, 0.7597835063934326
636,2611471536,0.85149187,-0.047255974,0.080433264,0.51600313,-2.7473461627960205,-0.9070526361465454,5.887969493865967,73.5571060180664,-35.84349822998047, 3.6233155727386475
637,2611488203,0.85201085,-0.036100682,0.07938933,0.5162092,-2.656890630722046,-0.43775174021720886,7.500741958618164,61.35606002807617,-46.41168975830078, 5.231003284454346
638,2611504870,0.85229355,-0.027853591,0.07580253,0.5167922,-2.4767448902130127,0.08901144564151764,8.063730239868164,35.04513168334961,-50.98691177368164, 6.063684463500977
639,2611521537,0.85240513,-0.021812748,0.06921897,0.51782113,-1.625238060951233,-1.2113064527511597,5.147301197052002,11.209083557128906,-60.73592758178711, 7.5663957595825195
640,2611538204,0.85237867,-0.014775232,0.054747023,0.51984155,-1.2223893404006958,-2.851990222930908,-11.731307029724121,-11.49283504486084,-110.62519073486328, 13.164041519165039
641,2611554871,0.85181415,-0.0016369326,0.023434632,0.52331746,16.005077362060547,-4.053304195404053,-26.384790420532227,-36.481781005859375,-231.17193603515625, 24.222185134887695
642,2611571538,0.85023385,0.026458835,-0.0055911783,0.5257103,5.398905277252197,1.2002744674682617,16.205739974975586,59.61153030395508,-271.1231384277344, 23.975568771362305
643,2611588205,0.8454091,0.04624617,-0.033028405,0.5310879,3.1825551986694336,-2.8043227195739746,4.356245517730713,17.464385986328125,-231.24575805664062, 53.16845703125
644,2611604872,0.84085524,0.07290078,-0.05614347,0.5333819,2.1279804706573486,-1.0602006912231445,2.426631450653076,72.45821380615234,-232.06922912597656, 31.292177200317383
645,2611621539,0.83557415,0.096834466,-0.073738106,0.5357254,-0.2176365703344345,-3.9377410411834717,1.8056395053863525,77.37472534179688,-190.39027404785156, 32.48857116699219
646,2611638206,0.8305734,0.1166924,-0.08711207,0.5375339,2.4298126697540283,-4.118635654449463,7.934998035430908,69.13472747802734,-151.3615264892578, 27.621246337890625
647,2611654873,0.824702,0.13230881,-0.09835463,0.54100597,6.981420516967773,-2.5705158710479736,7.698046684265137,54.586524963378906,-122.70304107666016, 41.13400650024414
648,2611671540,0.8205675,0.14039408,-0.11332481,0.54232496,8.267038345336914,2.798382520675659,9.698314666748047,-4.954813480377197,-116.52175903320312, 30.89960289001465
649,2611688207,0.8169037,0.14835145,-0.12827934,0.5424064,9.124759674072266,2.1630077362060547,7.020168304443359,-7.086361885070801,-116.69550323486328, 22.23798179626465
650,2611704874,0.81391144,0.15479311,-0.1429812,0.54142755,8.776461601257324,6.303180694580078,6.464792728424072,-16.314870834350586,-109.99111938476562, 14.856361389160156
651,2611721541,0.8113541,0.15741657,-0.15920974,0.53997874,8.927841186523438,4.42494010925293,6.830099105834961,-44.426761627197266,-104.28877258300781, 16.01091194152832
652,2611738208,0.8093936,0.15825577,-0.17564557,0.53757423,9.585447311401367,3.346527576446533,9.362360000610352,-56.91441345214844,-99.10083770751953, 10.700630187988281
653,2611754875,0.80824006,0.15522459,-0.19330618,0.5341219,10.042722702026367,2.651240587234497,10.429556846618652,-85.1900863647461,-91.70024871826172, 7.916973114013672
654,2611771542,0.80758166,0.14653923,-0.2144743,0.52947074,9.800941467285156,1.7132834196090698,10.949347496032715,-131.6709747314453,-90.98625183105469, 10.730549812316895
655,2611788209,0.807624,0.13571385,-0.23637167,0.5229282,10.290383338928223,0.8970186710357666,12.092179298400879,-149.72113037109375,-88.07305145263672, 1.6504977941513062
656,2611804876,0.8082561,0.12422483,-0.25773045,0.51465064,9.912577629089355,0.024635910987854004,12.18242359161377,-154.860107421875,-83.32799530029297, -9.460892677307129
657,2611821543,0.80829656,0.11547613,-0.2770134,0.50654274,11.07944393157959,-1.4957882165908813,12.127816200256348,-131.48953247070312,-82.38240051269531, -12.994304656982422
658,2611838210,0.8082551,0.10749797,-0.2948642,0.49822,9.666462898254395,-0.7976452708244324,13.758235931396484,-122.54975891113281,-77.41187286376953, -16.455177307128906
659,2611854877,0.8084409,0.09994626,-0.3116188,0.48921162,9.536595344543457,1.1409755945205688,12.78182601928711,-118.01615905761719,-72.8647232055664, -22.685028076171875
660,2611871544,0.8098576,0.087814674,-0.3306325,0.47655216,8.50209903717041,0.11836329102516174,12.623811721801758,-159.81239318847656,-69.93627166748047, -35.6660041809082
661,2611888211,0.8107367,0.082582094,-0.34294,0.46720305,7.782557010650635,-5.7384562492370605,13.114213943481445,-91.62979888916016,-54.48514938354492, -35.152320861816406
662,2611904878,0.8101392,0.08463491,-0.35373297,0.4597658,8.95387077331543,-6.383712291717529,11.070170402526855,-40.74924087524414,-71.93299865722656, -37.81842041015625
663,2611921545,0.8064622,0.09349098,-0.36383384,0.45662156,11.412423133850098,-8.128780364990234,8.244429588317871,11.633965492248535,-94.61027526855469, -21.180065155029297
664,2611938212,0.8000649,0.10845708,-0.37182245,0.4581283,11.301837921142578,-5.0562543869018555,9.876513481140137,65.65229797363281,-105.84718322753906, -3.5790324211120605
665,2611954879,0.79322666,0.12130346,-0.3801549,0.45995584,8.855427742004395,-2.864025592803955,11.538907051086426,54.10978317260742,-101.93634033203125, 5.192085266113281
666,2611971546,0.78752804,0.1275804,-0.39044783,0.4594276,8.770108222961426,-2.2767677307128906,13.963239669799805,4.966723918914795,-90.90745544433594, 7.508218765258789
667,2611988213,0.7829681,0.1275273,-0.4024195,0.4568989,8.538766860961914,-3.5391454696655273,14.086560249328613,-40.983489990234375,-78.8298110961914, 11.54639720916748
668,2612004880,0.78008574,0.12102126,-0.41561365,0.4517585,8.5654878616333,-2.557863235473633,13.264137268066406,-88.26410675048828,-62.93004608154297, 11.117445945739746
669,2612021547,0.7779392,0.11167978,-0.4299689,0.44437066,7.443902015686035,-3.35721492767334,11.107717514038086,-114.13542175292969,-60.252288818359375, 5.847652912139893
670,2612038214,0.77580255,0.10429269,-0.4424405,0.4376075,7.08252477645874,-3.434835910797119,10.997258186340332,-96.0889892578125,-55.75208282470703, 1.9170976877212524
671,2612054881,0.7738067,0.09774751,-0.45262095,0.43220717,7.341631889343262,-3.86356782913208,11.139311790466309,-80.67355346679688,-44.776763916015625, 4.531105995178223
672,2612071548,0.77204394,0.093986295,-0.45918053,0.42926475,7.778260707855225,-3.8601109981536865,10.305429458618164,-47.61248779296875,-31.53264808654785, 5.791719913482666
673,2612088215,0.77051747,0.093990065,-0.46261558,0.42831746,8.173224449157715,-3.7857985496520996,9.731249809265137,-12.270615577697754,-24.124420166015625, 1.7487945556640625
674,2612104882,0.76943815,0.09557082,-0.46464393,0.427712,8.280403137207031,-3.068159580230713,9.34990119934082,1.0151798725128174,-19.757713317871094, -3.7062652111053467
675,2612121549,0.76879805,0.09938087,-0.4641069,0.4285769,8.534221649169922,-3.817760944366455,9.833037376403809,24.737083435058594,-10.447793960571289, -6.039618492126465
676,2612138216,0.768004,0.10464669,-0.4627873,0.43017125,8.526680946350098,-3.42911696434021,8.175337791442871,37.160369873046875,-10.676980972290039, -6.932665824890137
677,2612154883,0.7676319,0.11031291,-0.46038637,0.4319918,8.757149696350098,-3.1873528957366943,8.346187591552734,42.88786315917969,-4.693828105926514, -9.052191734313965
678,2612171550,0.7676895,0.11393686,-0.45798963,0.43349382,8.516823768615723,-2.859243869781494,9.015327453613281,30.75482940673828,2.421477794647217, -5.553184986114502
679,2612188217,0.7679484,0.11592903,-0.45556024,0.43506435,8.87924861907959,-2.8320236206054688,9.148730278015137,22.286197662353516,8.079009056091309, -0.6839756369590759
680,2612204884,0.7682206,0.11683914,-0.45293674,0.43707472,9.315372467041016,-3.0789928436279297,8.680265426635742,18.511682510375977,12.672192573547363, 4.829712390899658
681,2612221551,0.76893586,0.11810329,-0.44898227,0.43955025,10.178155899047852,-3.2128779888153076,8.175777435302734,25.46139144897461,20.352046966552734, 3.7702481746673584
682,2612238218,0.77026975,0.12001573,-0.44299892,0.4427561,10.769176483154297,-3.9712491035461426,6.993508815765381,36.79030227661133,31.602933883666992, 2.1190264225006104
683,2612254885,0.7725146,0.123483196,-0.4335506,0.4472216,10.695304870605469,-3.7243056297302246,6.476245403289795,58.67909240722656,49.05915832519531, -1.597381830215454
684,2612271552,0.7754598,0.12737879,-0.42108703,0.45290446,10.262386322021484,-2.6643226146698,6.70913028717041,73.28472900390625,66.91886901855469, -1.1343618631362915
685,2612288219,0.7788721,0.12900661,-0.40787697,0.458642,9.906414031982422,-1.9073554277420044,7.019306659698486,63.28675842285156,79.39025115966797, 3.6279473304748535
686,2612304886,0.78236973,0.1286221,-0.39416173,0.46474805,9.674748420715332,-1.6377594470977783,6.591449737548828,55.05750274658203,89.03594207763672, 10.541412353515625
687,2612321553,0.78596264,0.12678398,-0.37977383,0.47112706,9.558652877807617,-1.491857647895813,6.276784896850586,50.051109313964844,97.83859252929688, 15.075603485107422
688,2612338220,0.78944093,0.12450964,-0.3636354,0.47859195,9.12007999420166,-1.5516679286956787,6.452235698699951,56.28890609741211,109.4180908203125, 20.936546325683594
689,2612354887,0.7934209,0.121182814,-0.3455707,0.48618817,8.598031044006348,0.28664371371269226,6.862572193145752,56.82026672363281,124.75817108154297, 20.997297286987305
690,2612371554,0.7980253,0.11560123,-0.3264507,0.4931756,8.444243431091309,0.019124440848827362,6.398200035095215,46.04509735107422,139.07638549804688, 20.110380172729492
691,2612388221,0.80302924,0.10934484,-0.30520803,0.5000364,8.147047996520996,0.6511584520339966,6.466597080230713,48.90978240966797,153.87515258789062, 17.918956756591797
692,2612404888,0.8081637,0.10103157,-0.28391936,0.5060177,8.023138046264648,0.2397521585226059,5.529086112976074,35.72570037841797,160.8843536376953, 16.933570861816406
693,2612421555,0.81292,0.09141791,-0.26237622,0.5118228,7.520626544952393,0.6231537461280823,5.264271259307861,29.271339416503906,166.06134033203125, 19.65321922302246
