PacketCounter,SampleTimeFine,Quat_W,Quat_X,Quat_Y,Quat_Z,Acc_X,Acc_Y,Acc_Z,Gyr_X,Gyr_Y,Gyr_Z 
2,3040810752,0.36506596,-0.5349498,-0.45014858,-0.6147536,9.73197078704834,1.660845160484314,0.9307153224945068,32.4764289855957,-52.982566833496094, -19.97968864440918
3,3040827419,0.36335856,-0.53207105,-0.45792487,-0.6125162,10.007210731506348,0.2837780714035034,-0.14963001012802124,45.85108947753906,-52.77220153808594, -20.62105369567871
4,3040844086,0.3656529,-0.534932,-0.46462306,-0.6035489,9.47214412689209,0.03462035208940506,-0.3329380750656128,58.25891876220703,-56.4273796081543, -23.283998489379883
5,3040860753,0.3683866,-0.53953475,-0.4715547,-0.59230894,9.632817268371582,0.03136621415615082,0.07976087182760239,61.105960845947266,-62.14838409423828, -26.843074798583984
6,3040877420,0.3698174,-0.5447373,-0.47732693,-0.5819413,10.567497253417969,0.9190824031829834,0.5322543978691101,47.340450286865234,-70.90269470214844, -27.088211059570312
7,3040894087,0.36874813,-0.54933786,-0.48374766,-0.5729235,10.890481948852539,-0.11364899575710297,0.555830180644989,39.173404693603516,-85.07869720458984, -29.722412109375
8,3040910754,0.36606637,-0.5548342,-0.49052098,-0.5635103,10.788026809692383,0.5553500056266785,0.6532963514328003,33.47791290283203,-103.30392456054688, -34.35823059082031
9,3040927421,0.36021423,-0.56144506,-0.4972126,-0.5548015,11.849884033203125,1.8445898294448853,1.4706629514694214,16.2890625,-120.25404357910156, -37.30034637451172
10,3040944088,0.35245028,-0.56791794,-0.50451976,-0.54654187,13.34015941619873,1.525377869606018,1.018057942390442,12.177458763122559,-134.85592651367188, -36.6998176574707
11,3040960755,0.34411463,-0.5741723,-0.5130194,-0.537329,14.534897804260254,1.4703947305679321,1.0941393375396729,19.14333152770996,-146.69387817382812, -37.70215606689453
12,3040977422,0.335695,-0.57959825,-0.5228961,-0.5272138,15.101676940917969,0.40756475925445557,1.4501558542251587,29.744281768798828,-154.86802673339844, -42.50471115112305
13,3040994089,0.32896838,-0.5839417,-0.534334,-0.51505274,16.13227081298828,-1.738402009010315,2.9386203289031982,51.89772033691406,-161.45343017578125, -44.397457122802734
14,3041010756,0.32696512,-0.58705014,-0.5468692,-0.49939984,17.165607452392578,-5.415853500366211,5.288266658782959,89.13758850097656,-165.22254943847656, -36.33584976196289
15,3041027423,0.33019903,-0.58921874,-0.55988353,-0.479917,20.597396850585938,-4.030694961547852,7.425161361694336,125.10602569580078,-172.4208984375, -27.98695182800293
16,3041044090,0.33422124,-0.59008473,-0.57207316,-0.4613336,19.369470596313477,-1.646793246269226,13.77127456665039,123.63688659667969,-176.2340087890625, -33.430152893066406
17,3041060757,0.3325762,-0.59217936,-0.58070314,-0.44888812,19.148618698120117,5.38703727722168,6.808221817016602,64.56151580810547,-191.53955078125, -42.9478645324707
18,3041077424,0.32894102,-0.5947422,-0.58909583,-0.4370878,21.768333435058594,3.096928119659424,9.018562316894531,56.721431732177734,-200.53318786621094, -33.81025695800781
19,3041094091,0.32907817,-0.5967692,-0.593745,-0.42783326,19.687746047973633,1.555848240852356,14.385393142700195,54.23600387573242,-170.8462677001953, -8.640091896057129
20,3041110758,0.33600742,-0.593431,-0.59505725,-0.42525944,11.936372756958008,5.041761875152588,9.89236068725586,58.90654373168945,-101.94580841064453, -8.203548431396484
21,3041127425,0.34678602,-0.5819686,-0.60689884,-0.41560298,10.728713035583496,14.066902160644531,-10.350723266601562,156.4600372314453,-112.5479507446289, -46.574913024902344
22,3041144092,0.35099956,-0.57467574,-0.61115646,-0.41597462,12.225682258605957,7.850742340087891,-1.5881153345108032,61.35820770263672,-67.8895034790039, -24.500600814819336
23,3041160759,0.35542777,-0.57214737,-0.6035052,-0.42673203,9.354266166687012,-5.249405384063721,15.341191291809082,-26.182283401489258,0.25016671419143677, 22.77174949645996
24,3041177426,0.3741529,-0.56416035,-0.59402716,-0.43458566,3.089254856109619,-2.626274347305298,7.556234359741211,46.2754020690918,64.0264892578125, 48.76797866821289
25,3041194093,0.39221954,-0.5536064,-0.5810097,-0.44956818,4.681110382080078,6.217587947845459,3.417003631591797,7.536074638366699,111.06622314453125, 28.97471046447754
26,3041210760,0.40473637,-0.5452697,-0.5586788,-0.47618014,4.493844509124756,3.106501579284668,3.023289918899536,-95.45854187011719,158.7418975830078, 27.754762649536133
27,3041227427,0.4206505,-0.5350957,-0.5310984,-0.50463897,4.552043437957764,-0.9541254639625549,3.884036064147949,-103.607421875,205.9196014404297, 45.50960159301758
28,3041244094,0.43870944,-0.523021,-0.4981162,-0.53466207,5.182301998138428,0.9297294616699219,4.445245742797852,-116.89273071289062,247.0484161376953, 57.717811584472656
29,3041260761,0.45564955,-0.5104835,-0.457804,-0.56763154,6.4067769050598145,1.0922220945358276,3.1477584838867188,-158.3807830810547,282.12237548828125, 67.15734100341797
30,3041277428,0.47308207,-0.49568355,-0.4121676,-0.6005074,7.747305393218994,0.6745487451553345,1.2257263660430908,-171.71754455566406,313.9421691894531, 78.62104034423828
31,3041294095,0.49286595,-0.47733516,-0.36167157,-0.63121164,10.759706497192383,-1.0072097778320312,-0.529615044593811,-167.5695037841797,349.7430114746094, 99.75334930419922
32,3041310762,0.518243,-0.45233804,-0.3122456,-0.65522313,13.765244483947754,-2.7689003944396973,-1.2545026540756226,-106.37149047851562,373.93560791015625, 124.65697479248047
33,3041327429,0.5473365,-0.42028937,-0.26543033,-0.67329526,16.19839096069336,-0.32751038670539856,-1.6916537284851074,-45.41603088378906,393.3465881347656, 137.90711975097656
34,3041344096,0.5751092,-0.38481387,-0.21818346,-0.6881598,18.911470413208008,1.7917581796646118,-2.3726751804351807,-32.881858825683594,406.841796875, 139.4844970703125
35,3041360763,0.5992575,-0.34873646,-0.17064375,-0.7001101,22.44365119934082,2.7943525314331055,-3.032503604888916,-37.78071594238281,405.8577880859375, 135.46131896972656
36,3041377430,0.61979246,-0.31216624,-0.12707913,-0.7087034,24.880102157592773,4.180332183837891,-2.7274227142333984,-22.06647300720215,388.338623046875, 124.0234375
37,3041394097,0.6341615,-0.27703795,-0.086912274,-0.71661395,24.29388999938965,8.275847434997559,-3.6504220962524414,-25.35370635986328,368.7498474121094, 93.41890716552734
38,3041410764,0.6407621,-0.2533868,-0.04373762,-0.72339904,21.380416870117188,1.505751609802246,-11.615412712097168,-106.55348205566406,326.5638122558594, 75.64396667480469
39,3041427431,0.649357,-0.2355681,-0.007335349,-0.72304183,20.744104385375977,3.9623255729675293,-16.152006149291992,-92.11302185058594,263.4530029296875, 108.59242248535156
40,3041444098,0.6523184,-0.22772671,0.015391075,-0.72276175,10.451411247253418,10.490609169006348,-27.235347747802734,-77.08208465576172,159.46270751953125, 60.69564437866211
41,3041460765,0.6532465,-0.22335768,0.0020530536,-0.7234475,5.530471324920654,12.822229385375977,-24.069948196411133,83.45942687988281,-13.601061820983887, -9.260981559753418
42,3041477432,0.6443457,-0.23792507,-0.012735853,-0.7266692,10.71763801574707,15.431923866271973,-16.216411590576172,-10.472810745239258,-108.298828125, -71.25106811523438
43,3041494099,0.63035715,-0.26546532,-0.026244987,-0.72903323,14.493783950805664,3.848039150238037,-12.228185653686523,-84.93460845947266,-167.26112365722656, -87.33057403564453
44,3041510766,0.61570084,-0.2895731,-0.046213318,-0.73138523,17.772655487060547,1.341050624847412,6.736724376678467,-38.4462890625,-175.88470458984375, -101.51923370361328
45,3041527433,0.60209006,-0.30957183,-0.06091653,-0.73344535,13.754617691040039,-12.544215202331543,17.249574661254883,-45.824256896972656,-132.54928588867188, -84.63726806640625
46,3041544100,0.58564365,-0.3316945,-0.075787365,-0.7357015,14.612380027770996,6.297986030578613,-7.646331787109375,-58.29476547241211,-146.5852813720703, -100.23275756835938
47,3041560767,0.5642158,-0.35837588,-0.088761106,-0.7384774,23.378633499145508,0.3633103370666504,-3.679389476776123,-98.4450454711914,-162.1103057861328, -119.02141571044922
48,3041577434,0.5469027,-0.3769841,-0.1116727,-0.7391277,12.155477523803711,0.4446913003921509,1.3872313499450684,-4.972899913787842,-160.23727416992188, -118.08013153076172
49,3041594101,0.52853554,-0.39381972,-0.13084318,-0.74056494,10.25007152557373,10.43771743774414,-3.930802822113037,-20.77426528930664,-136.48780822753906, -118.03490447998047
50,3041610768,0.51493865,-0.40725905,-0.14802602,-0.7396396,11.262273788452148,0.3956817388534546,-4.3939738273620605,-4.648323059082031,-114.1678466796875, -81.46861267089844
51,3041627435,0.507653,-0.41426432,-0.16781886,-0.7365531,10.89680004119873,4.545538425445557,0.25844427943229675,51.75162887573242,-90.01490020751953, -56.18803024291992
52,3041644102,0.5020474,-0.42022666,-0.18339282,-0.73329735,12.008776664733887,0.0969497337937355,1.0712635517120361,38.84558868408203,-68.9133071899414, -36.51552200317383
53,3041660769,0.49821535,-0.42432645,-0.19982034,-0.72924656,12.200841903686523,0.9965259432792664,0.8161121010780334,56.08653259277344,-62.89801025390625, -30.590229034423828
54,3041677436,0.48434734,-0.43259028,-0.20743896,-0.73160267,11.795455932617188,1.1125242710113525,0.6213206052780151,28.89369773864746,-59.582157135009766, -25.897476196289062
55,3041694103,0.47811934,-0.43879285,-0.21942723,-0.7285015,10.348401069641113,0.7863149642944336,0.8816441297531128,37.61551284790039,-61.79043960571289, -19.86956214904785
56,3041710770,0.47528806,-0.4439687,-0.23299423,-0.72298473,9.291727066040039,3.0631632804870605,0.7815516591072083,42.469913482666016,-61.98332595825195, -14.830750465393066
57,3041727437,0.47284102,-0.44866407,-0.24534273,-0.71758574,9.377638816833496,3.055117130279541,1.9370321035385132,41.393402099609375,-55.45008850097656, -9.521403312683105
58,3041744104,0.47166434,-0.45229203,-0.25703925,-0.71196604,9.675007820129395,2.7171406745910645,1.5905554294586182,46.14505386352539,-47.310462951660156, -2.798985719680786
59,3041760771,0.47151425,-0.45478246,-0.26833338,-0.7062894,9.828900337219238,2.0559208393096924,2.0327436923980713,51.39497756958008,-39.39276123046875, 1.103801965713501
60,3041777438,0.47178143,-0.4562687,-0.2795039,-0.7007988,9.769853591918945,2.0235166549682617,0.7046108841896057,55.263912200927734,-33.37599563598633, 0.407190203666687
61,3041794105,0.47149035,-0.45746857,-0.2897651,-0.6960286,10.005560874938965,1.2789133787155151,0.5079829692840576,48.88699722290039,-28.28778648376465, -2.9404730796813965
62,3041810772,0.4710507,-0.45837036,-0.29954123,-0.6915801,10.068556785583496,0.8681738972663879,0.7893081903457642,46.63530349731445,-24.977880477905273, -4.426532745361328
63,3041827439,0.4706338,-0.45901442,-0.31047812,-0.68659526,9.446964263916016,1.209445834159851,1.3358501195907593,54.3690299987793,-29.58319854736328, -7.471287727355957
64,3041844106,0.46921664,-0.46015856,-0.3226182,-0.6811808,8.394875526428223,0.6229918599128723,1.6409977674484253,56.35165786743164,-39.844261169433594, -14.182063102722168
65,3041860773,0.4662099,-0.46237308,-0.3360452,-0.6752283,7.7788591384887695,0.43051019310951233,1.0264630317687988,55.25584030151367,-54.84711456298828, -22.265148162841797
66,3041877440,0.4613661,-0.46574703,-0.35054985,-0.6688318,8.581231117248535,0.29931455850601196,1.7139958143234253,51.87397766113281,-69.90621185302734, -30.74997901916504
67,3041894107,0.45533308,-0.46984228,-0.36600015,-0.6617885,9.690129280090332,1.1537703275680542,1.8858530521392822,52.26476287841797,-84.32792663574219, -37.03059005737305
68,3041910774,0.44835186,-0.475534,-0.3802774,-0.6543983,11.048550605773926,0.6193513870239258,0.3785603940486908,40.762874603271484,-97.2184066772461, -34.80271530151367
69,3041927441,0.44113997,-0.48201883,-0.3951036,-0.64571404,12.07497501373291,-1.0274907350540161,0.12427005171775818,44.34211730957031,-112.35416412353516, -33.61037063598633
70,3041944108,0.43182036,-0.49020407,-0.40926155,-0.63697433,11.469125747680664,0.07386521250009537,0.3524444103240967,30.012081146240234,-127.18897247314453, -37.35968017578125
71,3041960775,0.4200362,-0.5005512,-0.42164478,-0.62867624,12.705452919006348,0.6781255602836609,0.2247656285762787,6.620445728302002,-138.88601684570312, -38.119903564453125
72,3041977442,0.40670794,-0.5119301,-0.4340026,-0.6198051,14.250971794128418,0.4584503471851349,0.7187132835388184,0.06743764132261276,-150.87384033203125, -40.433319091796875
73,3041994109,0.39319682,-0.5228323,-0.4482419,-0.60919803,15.207592010498047,0.647847056388855,1.4914847612380981,14.0594482421875,-161.41587829589844, -44.618629455566406
74,3042010776,0.3804384,-0.5325836,-0.46480897,-0.5963001,16.027482986450195,-0.8896034359931946,2.323026180267334,36.746273040771484,-169.1917724609375, -47.309329986572266
75,3042027443,0.3703918,-0.54047656,-0.48402417,-0.58001363,17.14958953857422,-4.457123279571533,5.28865385055542,73.26429748535156,-172.48402404785156, -43.058692932128906
76,3042044110,0.36294657,-0.54680747,-0.50570506,-0.55994093,19.068620681762695,-2.227930784225464,7.035483360290527,109.37385559082031,-178.1414337158203, -37.5045166015625
77,3042060777,0.35349447,-0.55336463,-0.5259061,-0.5406036,20.228628158569336,-2.2751128673553467,12.61422348022461,93.02178955078125,-179.67385864257812, -40.748779296875
78,3042077444,0.34088418,-0.56068903,-0.5448325,-0.5220954,19.045869827270508,3.569343090057373,10.986985206604004,71.42230987548828,-187.8501434326172, -46.90166473388672
79,3042094111,0.32432783,-0.56976706,-0.56205153,-0.50425696,21.416969299316406,6.426478385925293,5.697364807128906,43.48017501831055,-202.4359588623047, -49.44847106933594
80,3042110778,0.31173208,-0.57887346,-0.57708895,-0.48445538,21.272188186645508,0.30201607942581177,12.1058349609375,58.969642639160156,-190.07630920410156, -22.63711929321289
81,3042127445,0.3032563,-0.5862027,-0.58295274,-0.47388652,15.788856506347656,1.3674503564834595,17.520462036132812,11.989712715148926,-111.46636962890625, 0.7363399863243103
82,3042144112,0.30555782,-0.58309287,-0.60228634,-0.45154008,7.989707946777344,10.17075252532959,-10.365964889526367,168.32640075683594,-109.92428588867188, -35.719757080078125
83,3042160779,0.3062273,-0.57931423,-0.6172955,-0.43539208,12.454880714416504,13.334678649902344,-6.314003944396973,124.07939147949219,-80.49224853515625, -39.15012741088867
84,3042177446,0.30191377,-0.5806098,-0.6186394,-0.43477094,10.09389591217041,-2.7726528644561768,13.133085250854492,-13.250349998474121,-26.135013580322266, -10.71675968170166
85,3042194113,0.31603467,-0.57826334,-0.61676437,-0.43050614,2.643561840057373,-9.759773254394531,10.045005798339844,73.76774597167969,55.20814514160156, 49.25502014160156
86,3042210780,0.33837214,-0.5693251,-0.6166703,-0.42554805,4.749729156494141,3.9591064453125,3.88635516166687,128.94459533691406,102.9192886352539, 39.97748565673828
87,3042227447,0.35293245,-0.5614807,-0.6074669,-0.43722117,4.3332905769348145,6.632305145263672,2.9678380489349365,-1.2163081169128418,153.05886840820312, 18.859169006347656
88,3042244114,0.3656501,-0.5552553,-0.58869946,-0.45980942,4.886935710906982,-1.0538650751113892,3.4365830421447754,-86.60477447509766,205.88514709472656, 30.561431884765625
89,3042260781,0.382583,-0.5460786,-0.5667891,-0.48392007,5.163341045379639,-0.6258251070976257,3.848923921585083,-79.20626831054688,246.02232360839844, 40.08937072753906
90,3042277448,0.39836326,-0.5363351,-0.5379772,-0.5140349,6.422817707061768,1.7784959077835083,3.459667682647705,-128.4358367919922,284.1573486328125, 44.148521423339844
91,3042294115,0.41373986,-0.52567065,-0.50200164,-0.54816437,7.769201278686523,0.2379290759563446,1.6307671070098877,-167.6067657470703,320.4001159667969, 54.74410629272461
92,3042310782,0.43229294,-0.51215154,-0.4609741,-0.5816586,10.217392921447754,-1.894744634628296,-0.6890665888786316,-164.87265014648438,354.26837158203125, 76.93062591552734
93,3042327449,0.45717293,-0.49306053,-0.42012104,-0.60941166,13.009153366088867,-2.6141841411590576,-1.7631804943084717,-107.11201477050781,375.9342041015625, 101.01118469238281
94,3042344116,0.48634642,-0.46850398,-0.37984943,-0.6322069,15.44057559967041,-1.1554714441299438,-2.4710984230041504,-58.59349060058594,392.68499755859375, 116.81534576416016
95,3042360783,0.5160941,-0.44098917,-0.33843368,-0.6516426,17.85818862915039,0.9139142632484436,-2.8955094814300537,-43.03984832763672,400.137939453125, 126.51346588134766
96,3042377450,0.5422778,-0.41404274,-0.29378325,-0.6694735,20.74211883544922,3.071702003479004,-3.2494850158691406,-66.63511657714844,396.001708984375, 127.39520263671875
97,3042394117,0.56601834,-0.38707638,-0.2502083,-0.6835137,23.002323150634766,2.6772689819335938,-3.1610560417175293,-60.915836334228516,376.4404296875, 127.22001647949219
98,3042410784,0.5869607,-0.3577224,-0.2119541,-0.6946851,22.298866271972656,7.170177459716797,-2.898038864135742,-29.123517990112305,354.5964050292969, 106.99152374267578
99,3042427451,0.59929186,-0.33305135,-0.17254563,-0.7072157,21.53953742980957,9.556150436401367,-5.265483379364014,-76.76061248779297,327.7769470214844, 70.08960723876953
100,3042444118,0.60861826,-0.31815478,-0.12975408,-0.71520996,19.01786994934082,-3.325498580932617,-15.576944351196289,-135.05831909179688,280.34552001953125, 93.61103820800781
101,3042460785,0.61841637,-0.30348283,-0.10254553,-0.717596,15.176346778869629,10.408422470092773,-18.968647003173828,-53.23252868652344,202.3020782470703, 85.50263977050781
102,3042477452,0.6216618,-0.29564926,-0.097476594,-0.71876746,5.889737606048584,10.072153091430664,-24.878259658813477,14.078621864318848,67.40157318115234, 17.02381706237793
103,3042494119,0.6179267,-0.29651964,-0.11146753,-0.7195956,8.47385025024414,16.293071746826172,-17.161327362060547,57.08390426635742,-62.357154846191406, -48.890865325927734
104,3042510786,0.6036945,-0.31610495,-0.11949457,-0.7220469,12.826043128967285,7.9850616455078125,-13.259194374084473,-74.68152618408203,-134.29640197753906, -81.14382934570312
105,3042527453,0.5876171,-0.33702415,-0.13324042,-0.72344184,15.571938514709473,3.067643165588379,-7.037486553192139,-54.99562454223633,-168.40928649902344, -97.19607543945312
106,3042544120,0.57028854,-0.3595662,-0.13969208,-0.72523737,18.6356201171875,-15.14179515838623,18.45180892944336,-101.09980010986328,-147.18362426757812, -86.60767364501953
107,3042560787,0.5541723,-0.37793183,-0.15055203,-0.72621965,13.379258155822754,-4.9186835289001465,0.7454938888549805,-58.864723205566406,-144.6278076171875, -92.38228607177734
108,3042577454,0.53284734,-0.40233177,-0.1598506,-0.7270836,21.736480712890625,3.13271164894104,-6.9318952560424805,-103.04130554199219,-174.54583740234375, -107.66848754882812
109,3042594121,0.5131937,-0.42102128,-0.17796761,-0.7264301,16.709638595581055,-1.345636010169983,1.049552321434021,-31.752408981323242,-180.54339599609375, -124.35726928710938
110,3042610788,0.49541932,-0.4350269,-0.19674926,-0.7256728,8.827401161193848,8.526569366455078,-1.7205097675323486,-6.336395263671875,-157.4946746826172, -122.26697540283203
111,3042627455,0.4781592,-0.45004848,-0.20984294,-0.7244214,11.250053405761719,4.074642658233643,-3.7073376178741455,-36.02940368652344,-143.99842834472656, -99.5605239868164
112,3042644122,0.4699351,-0.45772195,-0.22621553,-0.72005445,8.347517013549805,5.840625762939453,0.3496663570404053,36.90890121459961,-114.76448822021484, -65.03565979003906
113,3042660789,0.4650663,-0.46183994,-0.23991644,-0.7161405,10.780821800231934,3.2416329383850098,1.3766393661499023,45.00316619873047,-81.9279556274414, -46.993980407714844
114,3042677456,0.45969313,-0.46590218,-0.2510016,-0.71317303,13.150627136230469,0.12489118427038193,-0.6155187487602234,29.134305953979492,-71.15450286865234, -44.29899215698242
115,3042694123,0.45390287,-0.4702274,-0.2612312,-0.71036375,12.086729049682617,0.9606198668479919,0.4520333409309387,22.514850616455078,-69.9532241821289, -43.685001373291016
116,3042710790,0.45067257,-0.47440997,-0.271612,-0.7057312,11.06013011932373,0.36682769656181335,0.26461926102638245,11.86543083190918,-69.77210235595703, -36.641883850097656
117,3042727457,0.44887033,-0.47785804,-0.2821199,-0.7004111,10.089081764221191,0.7343024611473083,-0.5793560743331909,20.253204345703125,-66.46597290039062, -29.02099609375
118,3042744124,0.4492713,-0.4798636,-0.29403368,-0.6938519,10.842047691345215,0.930798351764679,0.3619511127471924,42.47953796386719,-63.981239318847656, -20.952810287475586
119,3042760791,0.4516928,-0.4804473,-0.30648023,-0.6864503,9.735330581665039,2.3316168785095215,1.2765109539031982,60.68431854248047,-57.85527420043945, -11.815783500671387
120,3042777458,0.45559615,-0.47989592,-0.3190219,-0.6784963,10.050132751464844,2.6881816387176514,1.4221773147583008,73.95270538330078,-51.747962951660156, -4.30596399307251
121,3042794125,0.45592564,-0.48129746,-0.32639405,-0.67375934,9.52517318725586,1.9759660959243774,0.9407812356948853,41.13006591796875,-42.07093048095703, -3.9132330417633057
122,3042810792,0.45649937,-0.4827364,-0.33241585,-0.66938317,10.098225593566895,1.318007230758667,0.32047349214553833,34.759521484375,-36.29201889038086, 0.6345922946929932
123,3042827459,0.45737252,-0.48391083,-0.33799624,-0.665131,9.945393562316895,1.4832642078399658,0.506837785243988,34.27417755126953,-32.60270309448242, 2.473085641860962
124,3042844126,0.45935506,-0.4838581,-0.34485093,-0.6602667,9.991214752197266,1.38961923122406,0.6478875279426575,49.0779914855957,-30.46666717529297, 2.3704640865325928
125,3042860793,0.46196878,-0.48295513,-0.35326117,-0.6546341,9.673651695251465,0.6856778264045715,0.7335667014122009,62.74981689453125,-32.58824920654297, 0.4590837061405182
126,3042877460,0.46423253,-0.4818996,-0.36328375,-0.64829457,9.297964096069336,0.571527361869812,1.1219289302825928,71.05319213867188,-40.231510162353516, -4.617015361785889
127,3042894127,0.46654359,-0.47928134,-0.3768908,-0.6407651,8.657328605651855,2.2818334102630615,1.9962855577468872,95.15595245361328,-48.5664176940918, -16.41897964477539
128,3042910794,0.46642026,-0.479417,-0.3883006,-0.633904,9.576152801513672,0.9933631420135498,0.2770470976829529,66.88916778564453,-57.825645446777344, -14.921293258666992
129,3042927461,0.4653794,-0.48055983,-0.4012095,-0.62571204,10.186217308044434,-1.0328596830368042,0.06897567957639694,70.72972869873047,-73.90719604492188, -16.93358039855957
130,3042944128,0.46185884,-0.48352998,-0.4142538,-0.6174781,10.69727611541748,-1.2618687152862549,0.7061977982521057,57.40462112426758,-89.2282943725586, -22.92718505859375
131,3042960795,0.4545013,-0.48992327,-0.42649794,-0.6095107,11.188718795776367,-1.2188537120819092,0.4568755626678467,29.6341495513916,-111.3189697265625, -27.70008087158203
132,3042977462,0.4432156,-0.49936166,-0.4383192,-0.60172594,11.566950798034668,-0.6914519667625427,1.1513653993606567,4.5865888595581055,-133.71270751953125, -34.41462707519531
133,3042994129,0.4288072,-0.5108151,-0.4503412,-0.5936205,13.480408668518066,-0.7489122748374939,1.4676837921142578,-10.47500228881836,-153.22975158691406, -40.99761962890625
134,3043010796,0.4131223,-0.522805,-0.46391022,-0.5837743,14.768678665161133,-0.6322161555290222,1.468335509300232,-4.830723762512207,-170.10186767578125, -44.8717155456543
135,3043027463,0.39833784,-0.5331469,-0.4810074,-0.57071316,15.565058708190918,-1.6255630254745483,1.88765287399292,27.509674072265625,-182.24729919433594, -50.087257385253906
136,3043044130,0.38539627,-0.5405761,-0.50203705,-0.5542616,16.873157501220703,-1.8199701309204102,8.016663551330566,68.8932876586914,-187.9836883544922, -57.655792236328125
137,3043060797,0.37142438,-0.548051,-0.5227071,-0.53708595,19.885210037231445,-0.3319319486618042,7.725809574127197,66.08313751220703,-193.593017578125, -58.207759857177734
138,3043077464,0.35984534,-0.5537271,-0.54407394,-0.5175723,23.012420654296875,-3.0790319442749023,13.10718822479248,90.68431091308594,-189.07058715820312, -52.51234436035156
139,3043094131,0.3503061,-0.5569122,-0.5675143,-0.49503744,19.678367614746094,3.862887382507324,11.972043991088867,123.32052612304688,-189.4136199951172, -55.0484619140625
140,3043110798,0.33920577,-0.56142586,-0.5887946,-0.47229394,20.826704025268555,5.332289695739746,6.455522060394287,107.6332015991211,-195.78387451171875, -46.365379333496094
141,3043127465,0.3310626,-0.5671537,-0.60345554,-0.45230076,21.548095703125,2.506462812423706,13.940330505371094,83.60283660888672,-161.7730255126953, -12.66178035736084
142,3043144132,0.3301665,-0.5655171,-0.62073094,-0.43113092,10.85707950592041,6.613851547241211,2.8643362522125244,141.6753387451172,-119.5248794555664, -28.188669204711914
143,3043160799,0.33164948,-0.5574877,-0.64346564,-0.4064086,10.140364646911621,12.330618858337402,-8.372686386108398,196.83103942871094,-116.6216049194336, -61.503353118896484
144,3043177466,0.33124456,-0.55290365,-0.6560246,-0.3926912,10.975546836853027,3.539013624191284,3.470905303955078,104.61845397949219,-69.0539321899414, -37.486995697021484
145,3043194133,0.3350763,-0.5487506,-0.65852296,-0.3910812,6.935513019561768,-2.2103517055511475,17.686447143554688,37.97309112548828,17.80619239807129, -13.423105239868164
146,3043210800,0.3428324,-0.5426979,-0.65678334,-0.395703,3.773822546005249,1.925506591796875,5.403613090515137,17.55117416381836,73.78752899169922, -9.8879976272583
147,3043227467,0.34669086,-0.5374903,-0.647347,-0.41455007,5.246153831481934,5.91165828704834,3.6220853328704834,-84.16719055175781,125.12493133544922, -21.49262046813965
148,3043244134,0.35309222,-0.5327656,-0.6305569,-0.44032365,5.753419399261475,-1.7425614595413208,4.528200149536133,-127.71405029296875,178.2230987548828, -1.4053378105163574
149,3043260801,0.36525866,-0.52554125,-0.60985273,-0.46741006,5.771087169647217,-0.4410552978515625,5.071641445159912,-118.09566497802734,225.11402893066406, 16.300979614257812
150,3043277468,0.3781965,-0.5184256,-0.5815265,-0.5000294,7.592292308807373,-0.15660065412521362,3.2613306045532227,-163.31759643554688,267.16668701171875, 32.842864990234375
151,3043294135,0.3942724,-0.51004726,-0.5477357,-0.53327954,8.30549430847168,-2.554936408996582,1.7235130071640015,-170.1883544921875,300.5603332519531, 56.38725280761719
152,3043310802,0.41396388,-0.49964803,-0.5086585,-0.5659085,9.786317825317383,-2.7100532054901123,0.4016214609146118,-169.1048126220703,333.81976318359375, 82.20429229736328
153,3043327469,0.4377227,-0.4867975,-0.46538037,-0.5956913,12.035445213317871,-3.588355779647827,-1.582668423652649,-154.56263732910156,359.8606262207031, 111.9507827758789
154,3043344136,0.46348044,-0.4725094,-0.41713676,-0.6228304,14.311079978942871,-2.837334156036377,-4.665888786315918,-155.43954467773438,378.3779296875, 140.07980346679688
155,3043360803,0.4969027,-0.4519905,-0.37481102,-0.63899076,16.966644287109375,-3.442298412322998,-2.4086999893188477,-53.786895751953125,372.6455993652344, 170.77467346191406
156,3043377470,0.5296088,-0.4267989,-0.3306189,-0.6542541,19.59969139099121,6.676856994628906,-0.6397311687469482,-45.91615295410156,395.0833740234375, 164.4417724609375
157,3043394137,0.5573575,-0.40270323,-0.28418317,-0.6681488,21.909109115600586,1.9456292390823364,-4.017587661743164,-71.48719787597656,383.16302490234375, 156.30807495117188
158,3043410804,0.58156973,-0.37499726,-0.24449176,-0.6792479,22.676959991455078,9.098801612854004,-3.627786636352539,-30.984067916870117,359.4169616699219, 125.0848617553711
159,3043427471,0.5950947,-0.35299027,-0.20245689,-0.6930162,21.149084091186523,11.374314308166504,-5.1229681968688965,-96.86139678955078,331.275390625, 80.23751831054688
160,3043444138,0.6000188,-0.34010348,-0.15626217,-0.7070285,19.96214485168457,2.9586570262908936,-11.587507247924805,-175.3427276611328,293.6539306640625, 61.194480895996094
161,3043460805,0.6130183,-0.32469812,-0.12438739,-0.70944184,17.693334579467773,-2.2032368183135986,-17.611364364624023,-63.93806457519531,228.55368041992188, 112.1835708618164
162,3043477472,0.6212272,-0.3105727,-0.11009502,-0.7109856,8.68950366973877,14.903934478759766,-18.86247444152832,6.5724053382873535,142.3737030029297, 54.31880187988281
163,3043494139,0.62419665,-0.30248728,-0.11650701,-0.7108489,7.563070774078369,12.000835418701172,-19.376583099365234,71.97186279296875,16.993427276611328, -3.667719841003418
164,3043510806,0.6177678,-0.3080562,-0.12988763,-0.71175385,9.502639770507812,14.493035316467285,-14.006120681762695,26.98694610595703,-84.90187072753906, -57.5785026550293
165,3043527473,0.6046043,-0.32611337,-0.14075707,-0.7129455,12.824593544006348,3.5518696308135986,-11.591974258422852,-52.969276428222656,-140.69699096679688, -75.19080352783203
166,3043544140,0.5923228,-0.3399898,-0.16167447,-0.71233565,14.95062255859375,2.9464261531829834,-6.425655841827393,17.404048919677734,-165.09091186523438, -89.93476867675781
167,3043560807,0.5739884,-0.36214405,-0.16820987,-0.71490884,18.08707046508789,-7.142174243927002,15.831197738647461,-104.44790649414062,-146.31076049804688, -89.69293975830078
168,3043577474,0.55674165,-0.38069195,-0.17273006,-0.7178279,11.66399097442627,-14.549041748046875,10.545551300048828,-97.760986328125,-118.6734848022461, -84.90586853027344
169,3043594141,0.5369271,-0.40276158,-0.17838569,-0.7194938,18.702165603637695,3.4674980640411377,-11.365901947021484,-110.7643051147461,-146.9084930419922, -91.70948791503906
170,3043610808,0.516323,-0.42127195,-0.1933613,-0.7201056,21.04582977294922,-1.2210391759872437,0.3463478088378906,-52.42516326904297,-167.43565368652344, -121.8224868774414
171,3043627475,0.4972348,-0.43610454,-0.21075228,-0.7198291,9.974848747253418,6.687337875366211,1.5680134296417236,-21.841032028198242,-158.32205200195312, -123.03975677490234
172,3043644142,0.4765503,-0.45146728,-0.22092311,-0.7212976,10.579485893249512,7.39337682723999,-1.1859127283096313,-66.7657699584961,-133.41726684570312, -114.42279052734375
173,3043660809,0.4645852,-0.46138048,-0.23306869,-0.7190047,7.95557165145874,5.212597370147705,-1.0316134691238403,-6.372736930847168,-111.31726837158203, -73.18785858154297
174,3043677476,0.456974,-0.46787864,-0.24375613,-0.71613365,8.516946792602539,6.05241584777832,0.13857170939445496,12.051738739013672,-84.67554473876953, -50.64565658569336
175,3043694143,0.45344636,-0.47226483,-0.25403723,-0.7119112,12.401854515075684,-0.7995392084121704,-0.6367779970169067,32.074893951416016,-70.54740905761719, -28.504776000976562
176,3043710810,0.45110402,-0.47561845,-0.26619452,-0.70670563,13.220934867858887,0.027391795068979263,0.5857285857200623,50.075103759765625,-72.47395324707031, -27.600048065185547
177,3043727477,0.44776696,-0.4802606,-0.27646443,-0.70172787,12.372594833374023,-0.21019317209720612,0.6688321828842163,17.567848205566406,-73.13213348388672, -31.03737449645996
178,3043744144,0.44300634,-0.4858041,-0.28420088,-0.69783205,10.44905948638916,-0.28081950545310974,-0.0646032989025116,-3.6164448261260986,-69.03089904785156, -30.598045349121094
179,3043760811,0.43852136,-0.49092406,-0.29019293,-0.69460833,10.46724796295166,0.6275476813316345,-0.4878588020801544,-10.794097900390625,-59.061466217041016, -25.924453735351562
180,3043777478,0.4371411,-0.49369386,-0.29853496,-0.6899644,9.829421043395996,0.8643760681152344,0.08335735648870468,21.621044158935547,-53.6719856262207, -18.90943717956543
181,3043794145,0.4378439,-0.494927,-0.309068,-0.68397164,9.771299362182617,1.6008927822113037,1.4779777526855469,49.09086608886719,-53.465972900390625, -14.501779556274414
182,3043810812,0.44050938,-0.49459484,-0.32129815,-0.67682713,9.424541473388672,1.6802781820297241,2.0366196632385254,73.1376953125,-51.132293701171875, -10.055511474609375
183,3043827479,0.4422786,-0.4942757,-0.33277708,-0.6703289,9.775848388671875,1.9013217687606812,0.9436428546905518,74.19796752929688,-48.83930587768555, -10.855737686157227
184,3043844146,0.44226167,-0.4949529,-0.34156048,-0.6654043,10.176701545715332,0.7196894884109497,0.36279165744781494,49.07539749145508,-43.99911880493164, -12.445012092590332
185,3043860813,0.44198817,-0.49567658,-0.34945107,-0.66093534,10.377355575561523,0.9138045907020569,1.0306618213653564,42.912601470947266,-40.56525802612305, -11.881051063537598
186,3043877480,0.44191718,-0.4960668,-0.35815436,-0.6560126,10.175703048706055,1.2204196453094482,1.0227621793746948,49.40480041503906,-42.605133056640625, -13.173267364501953
187,3043894147,0.4419823,-0.4958436,-0.36945856,-0.6498395,9.718317031860352,1.1447174549102783,1.3241058588027954,66.54772186279297,-51.69880294799805, -19.16071319580078
188,3043910814,0.4414277,-0.4957092,-0.38263056,-0.6426569,8.880664825439453,1.1958708763122559,1.173567295074463,75.0792465209961,-62.829429626464844, -25.02685546875
189,3043927481,0.4406359,-0.49511576,-0.39805576,-0.63423353,9.28393268585205,1.5324093103408813,1.6811696290969849,88.89149475097656,-72.53838348388672, -31.21986961364746
190,3043944148,0.43756086,-0.49742416,-0.4114856,-0.62593096,10.872363090515137,-0.43667665123939514,-0.27513909339904785,63.29972839355469,-85.03738403320312, -26.82477378845215
191,3043960815,0.43288568,-0.5008605,-0.4257497,-0.6168356,11.219446182250977,-0.317410409450531,0.4530653953552246,60.2755241394043,-99.65824890136719, -31.031408309936523
192,3043977482,0.42554238,-0.50647116,-0.43944734,-0.6076897,11.287800788879395,-0.9560608267784119,-0.06576203554868698,42.36994552612305,-115.21310424804688, -33.919212341308594
193,3043994149,0.41472358,-0.5146782,-0.45219296,-0.5988593,11.781332969665527,-0.046701107174158096,0.12666338682174683,17.744762420654297,-132.7084503173828, -38.2468147277832
194,3044010816,0.40121466,-0.5245864,-0.46449053,-0.58998686,13.147261619567871,0.24037069082260132,0.939548134803772,1.6632401943206787,-146.98483276367188, -42.354209899902344
195,3044027483,0.38615504,-0.53512746,-0.47771013,-0.5799275,14.532549858093262,0.5527393221855164,1.6637728214263916,1.858494758605957,-161.384521484375, -46.69758224487305
196,3044044150,0.37119147,-0.54479307,-0.4931027,-0.56768596,15.181344985961914,0.0826960951089859,2.777554512023926,20.375883102416992,-171.44729614257812, -51.41486358642578
197,3044060817,0.3576279,-0.5526336,-0.5111917,-0.5526133,16.51389503479004,-2.052415132522583,4.995125770568848,50.41195297241211,-177.15902709960938, -55.04879379272461
198,3044077484,0.3480246,-0.55824274,-0.5316512,-0.5334709,17.90180206298828,-4.80302095413208,7.174395561218262,94.27192687988281,-176.19686889648438, -46.91468811035156
199,3044094151,0.34171072,-0.5619457,-0.55438215,-0.5100112,21.423357009887695,-3.427516222000122,9.66256046295166,135.59107971191406,-179.38136291503906, -40.313961029052734
200,3044110818,0.3328855,-0.5658346,-0.577346,-0.48547915,20.11215591430664,2.9757919311523438,13.966255187988281,130.3707275390625,-194.54525756835938, -46.87645721435547
201,3044127485,0.31740928,-0.57334286,-0.5956442,-0.46447545,21.136180877685547,6.689061164855957,6.979538917541504,66.66879272460938,-208.91847229003906, -44.6118278503418
202,3044144152,0.30391988,-0.58286333,-0.60975736,-0.4428309,22.220703125,0.6643760800361633,11.48697280883789,59.41383743286133,-200.77127075195312, -12.064311027526855
203,3044160819,0.29730985,-0.58898747,-0.6199429,-0.4247016,14.52777099609375,4.93865966796875,9.981411933898926,67.40563201904297,-139.54196166992188, 3.005065679550171
204,3044177486,0.29562342,-0.5856308,-0.6391392,-0.40142822,9.453438758850098,13.552084922790527,-8.651079177856445,155.0327606201172,-130.3046875, -48.93634033203125
205,3044194153,0.29417133,-0.5844434,-0.64968616,-0.3870366,12.370534896850586,5.883838176727295,-1.1978018283843994,88.71268463134766,-81.7330551147461, -21.773113250732422
206,3044210820,0.29899043,-0.5844306,-0.6510286,-0.38106123,8.883273124694824,-4.167859077453613,13.43918514251709,49.466514587402344,-4.405479907989502, 20.185436248779297
207,3044227487,0.31376696,-0.5813742,-0.6502331,-0.37516823,3.8596251010894775,-1.0768163204193115,5.685134410858154,89.74066162109375,52.66604995727539, 41.00634765625
208,3044244154,0.32694468,-0.5759511,-0.6453863,-0.38061017,4.84245491027832,6.440809726715088,3.465503454208374,27.304216384887695,105.65496826171875, 18.03921890258789
209,3044260821,0.33518806,-0.57323873,-0.63048846,-0.401909,5.089768409729004,2.365009069442749,3.2710864543914795,-94.97723388671875,162.0703582763672, 21.382749557495117
210,3044277488,0.34719,-0.56884474,-0.6109788,-0.4272937,4.992292881011963,-0.9763411283493042,4.067359447479248,-106.76297760009766,209.76377868652344, 33.229896545410156
211,3044294155,0.3595362,-0.5635051,-0.58575946,-0.45834664,6.096516132354736,2.075857162475586,4.097344875335693,-143.79444885253906,249.80859375, 39.00502395629883
212,3044310822,0.37107483,-0.5578497,-0.55377376,-0.49441078,6.872845649719238,0.24637840688228607,1.8078793287277222,-187.692138671875,283.71990966796875, 48.989166259765625
213,3044327489,0.3864852,-0.54931843,-0.517678,-0.52998877,8.070655822753906,-1.114288091659546,-0.10552048683166504,-177.6562042236328,316.92205810546875, 68.1514892578125
214,3044344156,0.408067,-0.536645,-0.47946066,-0.5617929,10.391264915466309,-2.311475992202759,-1.7583869695663452,-137.65293884277344,345.4627380371094, 93.88090515136719
215,3044360823,0.43661347,-0.5180074,-0.44269258,-0.5874185,12.573010444641113,-2.042902708053589,-1.9644553661346436,-69.24485778808594,364.7154541015625, 113.05404663085938
216,3044377490,0.4673708,-0.49458498,-0.40567547,-0.61022764,14.293513298034668,0.966062068939209,-2.4701454639434814,-39.43709945678711,381.6294250488281, 116.7290267944336
217,3044394157,0.49602842,-0.46942645,-0.3658734,-0.6322433,16.39696502685547,2.2548396587371826,-3.360135555267334,-59.4229736328125,389.37506103515625, 113.6168441772461
218,3044410824,0.5222732,-0.4433959,-0.32432908,-0.652259,19.44662857055664,1.716117262840271,-3.1776134967803955,-57.902320861816406,386.8946228027344, 114.94126892089844
219,3044427491,0.5465722,-0.41532254,-0.28448185,-0.6692058,21.76410484313965,3.9981131553649902,-1.9844821691513062,-42.051639556884766,376.4941711425781, 107.55785369873047
220,3044444158,0.5656388,-0.3873228,-0.24506535,-0.68554854,22.532928466796875,7.146174430847168,-3.1983532905578613,-54.1487922668457,362.818115234375, 84.7542953491211
221,3044460825,0.5761718,-0.3640965,-0.20217465,-0.7032676,21.62076759338379,8.699823379516602,-5.332187175750732,-114.23977661132812,343.40679931640625, 56.60663986206055
222,3044477492,0.58191144,-0.3511108,-0.15439883,-0.7171203,19.945592880249023,-3.41422963142395,-13.602355003356934,-185.1846466064453,297.19989013671875, 75.38660430908203
223,3044494159,0.59086025,-0.33865854,-0.11897515,-0.7225231,17.534873962402344,6.863781452178955,-16.06633949279785,-109.56336975097656,228.47958374023438, 95.79905700683594
224,3044510826,0.59568465,-0.32746205,-0.10700014,-0.7255891,7.366031169891357,10.220527648925781,-24.90543556213379,-5.87797737121582,118.49070739746094, 31.35763168334961
225,3044527493,0.5958879,-0.32218447,-0.12225367,-0.7253751,6.661307334899902,16.335689544677734,-20.104848861694336,97.68697357177734,-33.038536071777344, -35.1253662109375
226,3044544160,0.5831965,-0.33925417,-0.13090687,-0.72639656,11.621939659118652,8.977546691894531,-15.372676849365234,-56.54202651977539,-125.3517837524414, -70.94400024414062
227,3044560827,0.5690143,-0.35819602,-0.1470393,-0.7254639,15.528071403503418,2.606545925140381,-9.911428451538086,-28.466350555419922,-170.41549682617188, -86.19127655029297
228,3044577494,0.55194753,-0.37674347,-0.15999766,-0.72651166,18.5034236907959,-2.8518638610839844,17.34541130065918,-51.85610580444336,-153.91256713867188, -100.8439712524414
229,3044594161,0.53527445,-0.3934491,-0.1676166,-0.7284118,10.969803810119629,-8.385698318481445,9.828752517700195,-71.46540069580078,-122.0064697265625, -90.31188201904297
230,3044610828,0.51322013,-0.41562033,-0.1709169,-0.7311993,19.291854858398438,5.148924827575684,-10.271219253540039,-128.72317504882812,-137.50579833984375, -102.64722442626953
231,3044627495,0.49223304,-0.43380877,-0.18439297,-0.73178947,21.37276840209961,-2.811941385269165,0.7348958253860474,-57.90621566772461,-158.2002410888672, -123.14033508300781
232,3044644162,0.47547454,-0.446495,-0.20254582,-0.73043925,9.588473320007324,6.576476097106934,0.8820774555206299,-0.6546775102615356,-146.71310424804688, -116.23275756835938
233,3044660829,0.45589545,-0.46006197,-0.21195322,-0.73183227,10.741490364074707,7.754930019378662,-0.6522876620292664,-60.007022857666016,-118.12972259521484, -111.21227264404297
234,3044677496,0.44283825,-0.4697879,-0.2217068,-0.7307803,9.130511283874512,3.4416394233703613,-0.8530502319335938,-22.087390899658203,-98.15391540527344, -77.31719207763672
235,3044694163,0.43452784,-0.47593713,-0.23116654,-0.7288564,9.558691024780273,5.222599029541016,0.15110185742378235,3.98520827293396,-74.91307830810547, -55.31074142456055
236,3044710830,0.4300718,-0.48047954,-0.23966488,-0.72576755,12.86106014251709,-2.7509379386901855,-0.5066885948181152,18.419740676879883,-61.719234466552734, -31.90342903137207
237,3044727497,0.4280145,-0.4827538,-0.2516994,-0.7213875,13.225399017333984,0.09477142989635468,0.35226118564605713,52.88144302368164,-61.1783447265625, -31.655139923095703
238,3044744164,0.42339057,-0.4869874,-0.2605297,-0.7181284,11.983802795410156,-0.10140123963356018,0.6953376531600952,22.23247528076172,-62.282718658447266, -33.169212341308594
239,3044760831,0.4178587,-0.4917163,-0.26760152,-0.715541,9.654570579528809,0.6041961312294006,1.190466284751892,8.438182830810547,-59.031734466552734, -32.721561431884766
240,3044777498,0.41216788,-0.4966058,-0.27285746,-0.71347684,10.022431373596191,1.6196588277816772,1.1829650402069092,-2.7049150466918945,-53.165428161621094, -28.74305534362793
241,3044794165,0.4082476,-0.50044334,-0.27911672,-0.7106226,9.54506778717041,1.1022589206695557,1.9087567329406738,11.032097816467285,-50.21997833251953, -23.828723907470703
242,3044810832,0.4057423,-0.5034842,-0.2865597,-0.7069375,9.379668235778809,2.2604448795318604,2.1419754028320312,25.52923011779785,-49.860591888427734, -20.222129821777344
243,3044827499,0.40481248,-0.50552183,-0.29603943,-0.7020936,8.827917098999023,1.7117507457733154,1.9693537950515747,45.97276306152344,-51.636287689208984, -18.37886619567871
244,3044844166,0.4044723,-0.5069039,-0.3072283,-0.6964636,9.279725074768066,1.3589658737182617,0.19403722882270813,61.523128509521484,-54.81601333618164, -20.151418685913086
245,3044860833,0.40360427,-0.50849605,-0.31860533,-0.6906708,9.617100715637207,-0.03746515139937401,-0.002439454197883606,61.436744689941406,-58.01034164428711, -22.230243682861328
246,3044877500,0.40340227,-0.50935996,-0.33202675,-0.6837963,9.748268127441406,1.249921202659607,0.5515960454940796,75.00623321533203,-62.596553802490234, -25.621240615844727
247,3044894167,0.40279984,-0.509927,-0.34630284,-0.67661005,9.6334228515625,1.3480031490325928,1.476222276687622,79.1663818359375,-65.60308074951172, -30.35594367980957
248,3044910834,0.4019915,-0.5102453,-0.36068323,-0.6692984,9.636393547058105,1.375167727470398,0.7593790888786316,79.92755889892578,-65.72099304199219, -31.970916748046875
249,3044927501,0.40049446,-0.510808,-0.37440118,-0.66219586,9.345945358276367,0.6715788245201111,0.37261712551116943,73.27780151367188,-66.034912109375, -32.83264923095703
250,3044944168,0.39861998,-0.51136893,-0.38810462,-0.65496486,9.75662612915039,-0.03563506528735161,-0.6683555841445923,72.2319107055664,-67.4566879272461, -34.20682144165039
251,3044960835,0.39691997,-0.5116146,-0.40289992,-0.6468205,10.355473518371582,1.4238964319229126,0.2126733958721161,81.07591247558594,-71.80361938476562, -35.666725158691406
252,3044977502,0.39308396,-0.5141875,-0.41555905,-0.6390672,11.565410614013672,0.2695583403110504,0.21819961071014404,56.63374328613281,-80.91081237792969, -32.30840301513672
253,3044994169,0.38699374,-0.518433,-0.42826825,-0.6309117,10.77686595916748,0.5974052548408508,0.6009842753410339,45.52519607543945,-96.30864715576172, -36.58024215698242
254,3045010836,0.37832826,-0.5247695,-0.43984428,-0.62291414,11.341064453125,1.4583133459091187,1.0469865798950195,25.412389755249023,-109.44924926757812, -38.01509475708008
255,3045027503,0.36768305,-0.5326419,-0.4509639,-0.61460036,12.807341575622559,1.7624002695083618,0.9116957187652588,13.286321640014648,-122.04448699951172, -39.40146255493164
256,3045044170,0.35632938,-0.5411619,-0.46311226,-0.6047316,13.694786071777344,1.8382710218429565,1.0566915273666382,18.234630584716797,-135.34689331054688, -40.24406433105469
257,3045060837,0.3448915,-0.5495768,-0.47674564,-0.5930674,14.338059425354004,1.1764799356460571,1.651655673980713,30.083534240722656,-145.57928466796875, -42.0792236328125
258,3045077504,0.33469486,-0.5569513,-0.49297267,-0.5785869,15.501416206359863,-1.2123719453811646,2.7927064895629883,57.06742477416992,-154.16209411621094, -43.59546661376953
259,3045094171,0.32779577,-0.562843,-0.51219904,-0.55983037,17.1179256439209,-3.9164505004882812,4.893192291259766,99.55393981933594,-160.50433349609375, -37.24790954589844
260,3045110838,0.32113987,-0.568221,-0.5326478,-0.53877693,19.91335105895996,-1.6936867237091064,8.090230941772461,114.4659652709961,-169.51856994628906, -37.828311920166016
261,3045127505,0.31177187,-0.5738248,-0.5511788,-0.5193509,19.797286987304688,-1.5195586681365967,12.57613468170166,90.33197021484375,-169.97715759277344, -43.25741195678711
262,3045144172,0.29870895,-0.580739,-0.56791043,-0.50099194,18.871002197265625,2.7184665203094482,7.510180473327637,62.5192985534668,-180.9722900390625, -46.77178192138672
263,3045160839,0.28411976,-0.5879082,-0.58456147,-0.48158896,20.85615348815918,4.681872367858887,7.165154457092285,59.745330810546875,-192.071533203125, -48.57640075683594
264,3045177506,0.27299607,-0.5957281,-0.5976685,-0.46192405,19.937206268310547,-1.1532121896743774,11.970956802368164,61.853858947753906,-174.68983459472656, -19.628826141357422
265,3045194173,0.26850513,-0.60051775,-0.6071322,-0.44572857,14.23404312133789,3.038205862045288,11.474700927734375,68.91264343261719,-117.11295318603516, -2.6885480880737305
266,3045210840,0.26943582,-0.59717816,-0.6267689,-0.42183357,9.822569847106934,13.10763168334961,-8.2039155960083,169.71319580078125,-120.4414291381836, -47.74951171875
267,3045227507,0.2706362,-0.59448844,-0.64063215,-0.40364617,12.354900360107422,7.577384948730469,-4.2627482414245605,128.3385009765625,-86.8546142578125, -30.766752243041992
268,3045244174,0.2733206,-0.5938164,-0.6454007,-0.39514074,10.94796371459961,-3.9469122886657715,14.87260913848877,62.79778289794922,-29.376134872436523, 1.5147541761398315
269,3045260841,0.28981128,-0.59095085,-0.64639264,-0.38595748,2.679011583328247,-5.173438549041748,9.02242374420166,116.03314208984375,41.84162139892578, 45.907554626464844
270,3045277508,0.30589265,-0.5849784,-0.6446842,-0.38550287,4.333578109741211,5.22863245010376,4.090012073516846,74.54524993896484,89.01106262207031, 24.548397064208984
271,3045294175,0.3139565,-0.58168274,-0.6332028,-0.40265483,4.623189449310303,3.4931516647338867,3.352168321609497,-67.2443618774414,137.7334747314453, 17.531293869018555
272,3045310842,0.32320476,-0.578672,-0.61469907,-0.42757732,4.7814812660217285,-2.289907932281494,3.8387539386749268,-116.39690399169922,188.34893798828125, 33.3755989074707
273,3045327509,0.3366573,-0.5732833,-0.59246945,-0.4549594,4.716405868530273,0.24984365701675415,4.564023017883301,-115.7803955078125,231.17726135253906, 44.940799713134766
274,3045344176,0.34939778,-0.5675876,-0.5636729,-0.487892,5.781315803527832,1.6065902709960938,3.0726771354675293,-161.0702362060547,266.32354736328125, 54.440616607666016
275,3045360843,0.3636054,-0.56023985,-0.5296255,-0.5228953,7.122160911560059,0.1663367748260498,1.5883219242095947,-177.04827880859375,298.28558349609375, 68.43418884277344
276,3045377510,0.38231337,-0.54963,-0.49190092,-0.55657625,9.426444053649902,-0.9744969010353088,0.2114666998386383,-159.98895263671875,330.57562255859375, 90.14100646972656
277,3045394177,0.4067241,-0.53462267,-0.45259508,-0.58644,12.249922752380371,-1.1753716468811035,-0.5407685041427612,-120.03426361083984,356.531494140625, 113.03495025634766
278,3045410844,0.43502077,-0.5152417,-0.41205293,-0.61277676,14.71912670135498,0.37734144926071167,-1.574347734451294,-87.5382308959961,376.89947509765625, 129.456787109375
279,3045427511,0.46538806,-0.4918855,-0.37074146,-0.63562053,17.541521072387695,1.686212182044983,-2.609103202819824,-73.08660888671875,389.174072265625, 139.2832794189453
280,3045444178,0.49452293,-0.46672946,-0.32814,-0.65569437,20.53485679626465,2.8984344005584717,-2.4747812747955322,-58.72513961791992,389.37005615234375, 143.4104766845703
281,3045460845,0.5222008,-0.43880492,-0.2876664,-0.67231303,22.63252830505371,4.763349533081055,-1.6449089050292969,-36.618751525878906,380.5195007324219, 135.60552978515625
282,3045477512,0.5462724,-0.40811157,-0.25111842,-0.6870017,22.916439056396484,7.158512115478516,-2.4347712993621826,-15.64028263092041,366.5693054199219, 108.67417907714844
283,3045494179,0.56261957,-0.37866905,-0.21582514,-0.70248747,22.486286163330078,10.265423774719238,-4.334629058837891,-37.56711196899414,345.19781494140625, 67.99913024902344
284,3045510846,0.5733179,-0.35988125,-0.17523636,-0.7149017,19.666908264160156,-3.8527979850769043,-15.754964828491211,-114.68091583251953,298.2381896972656, 82.42601013183594
285,3045527513,0.5841695,-0.34462392,-0.1440216,-0.72058195,18.029016494750977,10.076870918273926,-17.47197914123535,-73.89852905273438,227.9697723388672, 90.79894256591797
286,3045544180,0.58814174,-0.3359196,-0.13334619,-0.72350967,7.299107074737549,8.899463653564453,-27.032482147216797,-12.113873481750488,100.18462371826172, 25.80646514892578
287,3045560847,0.5854772,-0.3334648,-0.14912227,-0.72372675,7.130949974060059,17.44573974609375,-20.01529884338379,81.31893920898438,-49.738216400146484, -51.487953186035156
288,3045577514,0.56814635,-0.3541696,-0.15518773,-0.72642314,13.11970329284668,8.443645477294922,-15.809540748596191,-96.61873626708984,-134.93313598632812, -88.18910217285156
289,3045594181,0.5477223,-0.37845182,-0.16514874,-0.7276679,17.831451416015625,0.7192268371582031,1.7101705074310303,-97.19739532470703,-174.56414794921875, -103.4220199584961
290,3045610848,0.53332996,-0.39331025,-0.17840144,-0.7273507,15.673104286193848,-12.561405181884766,16.0210018157959,-27.7611083984375,-136.94891357421875, -86.53611755371094
291,3045627515,0.51518667,-0.41164124,-0.18923414,-0.72754705,16.67403793334961,4.085960388183594,-7.805920600891113,-63.236759185791016,-148.91842651367188, -96.56629180908203
292,3045644182,0.49415734,-0.43097684,-0.20183992,-0.7275496,22.337120056152344,-1.6671019792556763,-2.5392978191375732,-65.8829116821289,-164.31842041015625, -113.89192199707031
293,3045660849,0.47741786,-0.44426513,-0.22221616,-0.7247902,12.202889442443848,0.6094002723693848,-0.3399474322795868,10.104192733764648,-162.5256805419922, -114.44313049316406
294,3045677516,0.45992333,-0.45581603,-0.23893978,-0.7236091,11.207612991333008,8.818912506103516,-2.0961880683898926,-7.134642124176025,-138.2243194580078, -114.89274597167969
295,3045694183,0.44408908,-0.46673745,-0.2509233,-0.72248083,10.497808456420898,2.784215211868286,-2.7202398777008057,-23.712038040161133,-117.19873809814453, -92.81957244873047
296,3045710850,0.43568394,-0.4720602,-0.26533854,-0.71898144,10.091039657592773,4.065270900726318,-0.4837612211704254,33.38029098510742,-91.59467315673828, -66.12847900390625
297,3045727517,0.42961818,-0.4765297,-0.2757848,-0.71574485,11.665205955505371,0.3203178346157074,0.5847671627998352,23.411516189575195,-70.40069580078125, -44.01935958862305
298,3045744184,0.4266735,-0.47871736,-0.2879931,-0.7112239,12.049943923950195,0.7712241411209106,0.691698431968689,51.51001739501953,-62.71171188354492, -35.04939270019531
299,3045760851,0.4228289,-0.48161235,-0.29737762,-0.70769477,11.448935508728027,0.9779133200645447,0.9279629588127136,30.72018051147461,-56.44559860229492, -31.738256454467773
300,3045777518,0.42102748,-0.48372546,-0.3073484,-0.70305246,10.893514633178711,0.6014878153800964,1.0691633224487305,40.15700912475586,-53.985374450683594, -23.611515045166016
301,3045794185,0.4193217,-0.48612553,-0.31622216,-0.6984662,9.837556838989258,2.3014180660247803,0.8947297930717468,33.475433349609375,-51.933082580566406, -19.269638061523438
302,3045810852,0.419158,-0.48836964,-0.32545814,-0.6927328,9.77192211151123,1.6512824296951294,1.036305546760559,42.540348052978516,-52.83467483520508, -10.260897636413574
303,3045827519,0.4205466,-0.4900618,-0.33590746,-0.68567216,9.366308212280273,2.2560203075408936,1.8500710725784302,58.09192657470703,-54.783084869384766, -4.303735256195068
304,3045844186,0.4229498,-0.4911879,-0.34788215,-0.6773671,9.398914337158203,1.5431712865829468,1.7828493118286133,74.12044525146484,-58.4445686340332, -2.0936479568481445
305,3045860853,0.42599574,-0.4912173,-0.36234355,-0.66778773,9.135931968688965,1.2109434604644775,0.8835074305534363,96.17060089111328,-63.333011627197266, -5.9428606033325195
306,3045877520,0.42812726,-0.49105856,-0.37735707,-0.6581569,9.73086166381836,1.2144997119903564,1.1216615438461304,97.21153259277344,-66.55897521972656, -12.158500671386719
307,3045894187,0.42825082,-0.49198064,-0.3903073,-0.64978206,9.877128601074219,2.015254259109497,2.1945652961730957,74.39383697509766,-66.44573974609375, -15.234545707702637
308,3045910854,0.4264038,-0.4941498,-0.4003373,-0.64321536,9.720844268798828,2.4649856090545654,1.8773020505905151,48.843223571777344,-62.49701690673828, -15.722771644592285
309,3045927521,0.4241549,-0.49625662,-0.41017473,-0.63685095,9.45478343963623,2.191059112548828,1.6528717279434204,46.26580810546875,-62.17487716674805, -17.63006019592285
310,3045944188,0.4207978,-0.49870726,-0.41952103,-0.63104874,9.183614730834961,2.3341968059539795,0.9965106248855591,37.75997543334961,-63.554283142089844, -21.499788284301758
311,3045960855,0.4163323,-0.50194496,-0.4289053,-0.6251073,9.458915710449219,0.05530296638607979,-0.16147387027740479,32.260250091552734,-70.83918762207031, -23.781475067138672
312,3045977522,0.4103863,-0.5057783,-0.43842375,-0.619319,9.967461585998535,0.2698633670806885,-0.572979211807251,25.586685180664062,-77.68135833740234, -29.35420036315918
313,3045994189,0.40285262,-0.51082456,-0.44768366,-0.6134717,10.66916275024414,0.5798192024230957,0.40156811475753784,15.732251167297363,-87.16027069091797, -31.447826385498047
314,3046010856,0.393571,-0.5170616,-0.45753834,-0.6069662,10.901820182800293,1.0047963857650757,1.2231937646865845,10.843193054199219,-101.60409545898438, -35.4676628112793
315,3046027523,0.38207015,-0.5246842,-0.46856,-0.5993169,10.348132133483887,1.9035556316375732,1.5950406789779663,7.68922233581543,-121.69728088378906, -41.460479736328125
316,3046044190,0.3679069,-0.5340064,-0.4797721,-0.59101653,11.528899192810059,2.479886531829834,2.095691680908203,-3.481750249862671,-140.2465057373047, -45.94415283203125
317,3046060857,0.35204586,-0.54417163,-0.4918384,-0.5814087,13.780913352966309,1.690437912940979,1.6221826076507568,-4.041094779968262,-156.36949157714844, -49.897239685058594
318,3046077524,0.3359763,-0.5540423,-0.50576407,-0.56952626,15.469014167785645,0.23779554665088654,1.5366523265838623,11.040127754211426,-169.03805541992188, -53.21711730957031
319,3046094191,0.32174635,-0.5622242,-0.5226914,-0.55423534,17.15886878967285,-2.6733665466308594,2.050602436065674,45.578182220458984,-176.08815002441406, -55.53544998168945
320,3046110858,0.31199977,-0.5677923,-0.5429597,-0.5342873,18.93321418762207,-6.223394870758057,6.049583435058594,98.17558288574219,-175.5865478515625, -50.625694274902344
321,3046127525,0.3050145,-0.5726394,-0.5639543,-0.5108873,22.230417251586914,-5.445561408996582,5.775034427642822,126.07035064697266,-177.97772216796875, -38.854530334472656
322,3046144192,0.30025446,-0.57620025,-0.58677155,-0.4832594,22.028766632080078,-3.827549457550049,13.510115623474121,160.33120727539062,-185.65301513671875, -34.561126708984375
323,3046160859,0.28731865,-0.5822934,-0.6051274,-0.46065533,20.14460563659668,6.112532615661621,9.27971363067627,87.64161682128906,-198.4779815673828, -44.36960220336914
324,3046177526,0.27291375,-0.59068984,-0.6200594,-0.43832642,22.255901336669922,3.3881144523620605,9.352104187011719,65.31034851074219,-204.4195556640625, -26.205772399902344
325,3046194193,0.26150262,-0.5990632,-0.62909156,-0.42069426,19.461124420166016,1.2543789148330688,14.928670883178711,39.77103805541992,-161.8532257080078, -2.145017623901367
326,3046210860,0.26022235,-0.6003961,-0.6399856,-0.4027746,10.283547401428223,5.70526647567749,5.473781585693359,100.86590576171875,-102.71952056884766, -10.474825859069824
327,3046227527,0.26180837,-0.59522057,-0.6570442,-0.38139477,10.227888107299805,16.52560806274414,-9.66481876373291,156.7459716796875,-97.56629943847656, -50.27780532836914
328,3046244194,0.2576394,-0.5952304,-0.66186637,-0.37584007,11.81754207611084,5.327491283416748,0.5378038883209229,20.428064346313477,-50.17098617553711, -20.01043701171875
329,3046260861,0.26133198,-0.59731245,-0.6571409,-0.37827164,6.362739562988281,-6.887051105499268,13.766963958740234,-12.03696346282959,29.757190704345703, 34.70750045776367
330,3046277528,0.2788861,-0.59415007,-0.65322345,-0.3775016,2.6725287437438965,-1.9165631532669067,6.763045787811279,70.80956268310547,91.13270568847656, 49.35713195800781
331,3046294195,0.29756853,-0.5867075,-0.6482978,-0.3833244,4.0520243644714355,5.942633628845215,2.6410553455352783,51.36497116088867,136.10841369628906, 24.549072265625
332,3046310862,0.3121232,-0.58024406,-0.63557667,-0.40241575,4.570111274719238,3.5584604740142822,2.885658025741577,-46.93562316894531,184.62020874023438, 22.46332550048828
333,3046327529,0.3292481,-0.5724987,-0.6180102,-0.4265026,4.562549591064453,-0.026898035779595375,3.331514358520508,-69.1651840209961,229.7401885986328, 32.624637603759766
334,3046344196,0.3473081,-0.5633821,-0.59544456,-0.45543802,5.771425724029541,1.9018967151641846,4.123432159423828,-97.68702697753906,268.1492004394531, 38.193206787109375
335,3046360863,0.3640543,-0.5539184,-0.5657981,-0.4904197,7.313771724700928,1.0351165533065796,2.6578078269958496,-148.9161834716797,304.1849670410156, 45.615440368652344
336,3046377530,0.38275322,-0.5421182,-0.5316157,-0.5263009,8.792373657226562,-0.31301799416542053,0.787584662437439,-154.46511840820312,334.4686279296875, 58.06258010864258
337,3046394197,0.4056685,-0.5267895,-0.49421504,-0.56006914,11.327554702758789,-1.2764384746551514,-0.9213642477989197,-133.4219207763672,363.3343811035156, 77.88919067382812
338,3046410864,0.43388146,-0.5064208,-0.45618007,-0.58922386,13.94257640838623,-1.4237239360809326,-1.67730712890625,-92.12708282470703,385.3157653808594, 97.18013000488281
339,3046427531,0.4651018,-0.48210824,-0.41631287,-0.6147645,16.54277229309082,-0.9007503986358643,-2.5805437564849854,-66.64698028564453,403.9106140136719, 113.52559661865234
340,3046444198,0.4967022,-0.4552593,-0.37483746,-0.63680667,19.59358787536621,0.35693973302841187,-3.5427045822143555,-48.30801010131836,410.0813293457031, 124.00977325439453
341,3046460865,0.5257211,-0.42770562,-0.33198696,-0.65610206,22.644935607910156,2.8739049434661865,-3.409313678741455,-52.949649810791016,402.9461975097656, 124.59877014160156
342,3046477532,0.5513144,-0.3998618,-0.29027358,-0.6722383,24.070480346679688,4.19553279876709,-3.760085105895996,-49.67422866821289,383.4185485839844, 116.64891052246094
343,3046494199,0.570694,-0.37233242,-0.25142357,-0.68735963,23.20041275024414,8.923393249511719,-4.6737260818481445,-52.74694061279297,356.3585205078125, 84.65422058105469
344,3046510866,0.58117235,-0.3558882,-0.2083731,-0.7015434,20.29996681213379,2.2152953147888184,-12.264745712280273,-137.43116760253906,303.14532470703125, 76.41192626953125
345,3046527533,0.5876863,-0.34752533,-0.16677956,-0.7113617,18.594364166259766,6.6195573806762695,-18.235702514648438,-166.1519775390625,242.5744171142578, 82.88046264648438
346,3046544200,0.5914138,-0.34125105,-0.14963596,-0.7151129,8.954679489135742,8.316901206970215,-26.757667541503906,-54.71805953979492,116.50166320800781, 37.957794189453125
347,3046560867,0.589936,-0.33875704,-0.16017315,-0.7152369,6.956980228424072,15.000099182128906,-20.423847198486328,57.49005126953125,-27.88465118408203, -33.75955581665039
348,3046577534,0.57642335,-0.35312995,-0.17008324,-0.71701276,11.99746036529541,11.183707237243652,-15.239436149597168,-44.05908966064453,-117.27003479003906, -79.34454345703125
349,3046594201,0.55917704,-0.37335455,-0.18345195,-0.7171282,14.3677978515625,3.3770251274108887,-9.3955659866333,-57.47187042236328,-167.85203552246094, -92.45865631103516
350,3046610868,0.54047817,-0.39297405,-0.1962049,-0.7176061,18.03460121154785,-3.1509792804718018,12.593903541564941,-62.38988494873047,-163.12832641601562, -100.04934692382812
351,3046627535,0.5251242,-0.40769243,-0.20635656,-0.7179475,12.36618709564209,-13.49197006225586,14.802638053894043,-47.771976470947266,-125.28083038330078, -82.61682891845703
352,3046644202,0.50511134,-0.4262509,-0.21501432,-0.7189864,16.689512252807617,5.650408744812012,-10.149357795715332,-82.9039535522461,-143.83804321289062, -98.74829864501953
353,3046660869,0.48295453,-0.44459996,-0.22758918,-0.71922815,21.487173080444336,-1.6138191223144531,-1.5265254974365234,-67.99082946777344,-161.58981323242188, -118.15656280517578
354,3046677536,0.46448326,-0.45799416,-0.24547762,-0.71710366,10.573822975158691,1.253141164779663,0.731113076210022,-10.285372734069824,-156.02769470214844, -116.04065704345703
355,3046694203,0.44647646,-0.46900514,-0.26060033,-0.716087,10.711688995361328,9.769630432128906,-2.283407688140869,-16.754804611206055,-131.22064208984375, -112.583984375
356,3046710870,0.4306906,-0.47923803,-0.27073425,-0.71522003,10.991201400756836,3.434337615966797,-2.6873111724853516,-32.155460357666016,-107.58174133300781, -87.19276428222656
357,3046727537,0.42361653,-0.48400417,-0.28452826,-0.71086764,10.444937705993652,3.61264967918396,-0.5773107409477234,37.2036018371582,-86.76653289794922, -56.231300354003906
358,3046744204,0.4184695,-0.4881143,-0.29439437,-0.70707846,11.995512008666992,0.2482651174068451,0.7510330080986023,25.215993881225586,-66.48826599121094, -36.66453170776367
359,3046760871,0.41681847,-0.48982385,-0.3064088,-0.701747,12.596840858459473,-0.28719669580459595,0.18802550435066223,57.45185852050781,-59.13663864135742, -27.395639419555664
360,3046777538,0.4141889,-0.49187344,-0.31657135,-0.69734544,11.903477668762207,-0.05184553563594818,0.5941739082336426,42.318885803222656,-54.41567611694336, -27.94205093383789
361,3046794205,0.41231838,-0.49353904,-0.32660562,-0.69263387,10.905403137207031,0.2638978958129883,0.7461183667182922,46.0663948059082,-51.643707275390625, -23.92302131652832
362,3046810872,0.41058666,-0.49529457,-0.3353259,-0.68822867,9.879480361938477,2.3599510192871094,0.9218395948410034,32.60478973388672,-47.47144317626953, -21.009580612182617
363,3046827539,0.41042313,-0.49663684,-0.34386566,-0.6831261,9.437278747558594,1.6288561820983887,1.3100584745407104,39.38180160522461,-43.91084289550781, -11.994811058044434
364,3046844206,0.41116083,-0.49817005,-0.35315707,-0.6767966,8.867523193359375,3.0141496658325195,2.3295066356658936,48.53556442260742,-49.08777618408203, -6.3353705406188965
365,3046860873,0.4130457,-0.4996741,-0.36380208,-0.6688552,8.873556137084961,2.4744133949279785,2.771261692047119,63.51776123046875,-55.58401107788086, -0.931685209274292
366,3046877540,0.41590852,-0.5001681,-0.37670958,-0.6595014,8.839652061462402,2.365247964859009,1.2985427379608154,84.92596435546875,-59.801429748535156, -2.4730002880096436
367,3046894207,0.4176135,-0.5006709,-0.38965264,-0.6504603,9.409266471862793,1.4054080247879028,0.7857252955436707,80.41143798828125,-61.94993209838867, -8.653592109680176
368,3046910874,0.41806024,-0.50146174,-0.40106875,-0.64257747,9.976690292358398,1.0121781826019287,0.7612921595573425,65.24503326416016,-58.339534759521484, -11.561864852905273
369,3046927541,0.41715124,-0.5028933,-0.4103743,-0.6361415,10.35871410369873,1.5948848724365234,1.173328161239624,50.38604736328125,-53.441375732421875, -12.20493221282959
370,3046944208,0.41546348,-0.50454694,-0.41859287,-0.6305572,9.956665992736816,2.2004592418670654,1.9392521381378174,39.916133880615234,-50.637245178222656, -13.717216491699219
371,3046960875,0.4129804,-0.5064909,-0.42682746,-0.62508625,9.322793960571289,1.3611866235733032,0.825690746307373,36.08879470825195,-53.95524215698242, -16.735076904296875
372,3046977542,0.40995347,-0.50848234,-0.436394,-0.6188249,8.756348609924316,0.5339635014533997,0.5257769823074341,42.12051010131836,-62.38045883178711, -21.372028350830078
373,3046994209,0.40636703,-0.5105469,-0.4474036,-0.6115863,9.33750057220459,0.6824803352355957,0.3891022801399231,49.04719161987305,-71.94026947021484, -25.888994216918945
374,3047010876,0.40069723,-0.51455456,-0.45722032,-0.60466933,10.85865306854248,0.16659419238567352,0.0036090463399887085,30.313961029052734,-82.13993835449219, -25.442235946655273
375,3047027543,0.39401373,-0.5194192,-0.46799687,-0.59660375,11.791156768798828,-0.5471012592315674,0.718306303024292,31.98284339904785,-95.67109680175781, -27.263761520385742
376,3047044210,0.38552594,-0.52541643,-0.47942388,-0.5877588,11.430977821350098,-0.3279750645160675,0.45201218128204346,27.664560317993164,-110.77056884765625, -31.321752548217773
377,3047060877,0.3744114,-0.53331405,-0.49062374,-0.578516,11.633772850036621,0.7511818408966064,1.0407321453094482,13.543808937072754,-128.04347229003906, -33.87242126464844
378,3047077544,0.3606004,-0.5428578,-0.5014535,-0.5690494,12.767271041870117,1.2656399011611938,1.4535834789276123,-1.2832190990447998,-143.6813201904297, -37.153526306152344
379,3047094211,0.34557793,-0.5530326,-0.5131187,-0.55806834,14.204412460327148,0.8185670971870422,1.2850383520126343,1.137944221496582,-158.1973419189453, -39.114715576171875
380,3047110878,0.33061698,-0.5625302,-0.5268996,-0.5446367,15.213890075683594,0.22004681825637817,2.4846723079681396,19.762758255004883,-169.8818817138672, -43.54770278930664
381,3047127545,0.31753772,-0.5704588,-0.5430781,-0.5280272,16.60163116455078,-3.32381010055542,5.009868144989014,51.12321090698242,-175.137451171875, -44.32322692871094
382,3047144212,0.30826175,-0.57667744,-0.5621456,-0.5063699,19.703861236572266,-3.0162365436553955,5.618769645690918,99.13026428222656,-181.1423797607422, -37.4002571105957
383,3047160879,0.30000353,-0.58189917,-0.58149374,-0.4829663,21.832149505615234,-3.831521511077881,11.379101753234863,113.01634216308594,-181.6190185546875, -35.30805969238281
384,3047177546,0.2890704,-0.58696634,-0.60017776,-0.46010405,19.62556266784668,2.8312456607818604,12.34060287475586,98.29047393798828,-188.8255157470703, -43.4688835144043
385,3047194213,0.27142364,-0.59447557,-0.6155013,-0.44055218,20.745990753173828,5.321497440338135,5.288188934326172,42.13679122924805,-204.7670135498047, -47.66199493408203
386,3047210880,0.25876918,-0.60165876,-0.63011587,-0.41713244,22.2187442779541,2.161736011505127,12.399341583251953,77.45783233642578,-197.50723266601562, -23.76311683654785
387,3047227547,0.24998531,-0.6082349,-0.6374521,-0.40151295,17.25039291381836,-0.20935067534446716,16.762792587280273,39.957366943359375,-134.34896850585938, 0.8916077017784119
388,3047244214,0.25267687,-0.6060553,-0.6516564,-0.37973073,8.386878967285156,7.400089740753174,-3.5529069900512695,149.05984497070312,-98.08160400390625, -23.968589782714844
389,3047260881,0.2559954,-0.5999995,-0.66773796,-0.35859868,11.49238109588623,16.306751251220703,-9.227205276489258,160.49038696289062,-85.6460952758789, -48.40878677368164
390,3047277548,0.24934252,-0.6017034,-0.6682287,-0.3595162,10.789823532104492,0.2646094262599945,9.00316333770752,-33.7832145690918,-32.0052604675293, -11.51846981048584
391,3047294215,0.256387,-0.60297805,-0.6631026,-0.361909,3.8089330196380615,-10.27925968170166,11.843281745910645,2.9730799198150635,47.413570404052734, 41.00748825073242
392,3047310882,0.27544868,-0.59833544,-0.66029495,-0.36074027,4.1293439865112305,0.9976739883422852,4.946224212646484,85.08280181884766,97.84168243408203, 40.4075927734375
393,3047327549,0.28984776,-0.59243697,-0.65257347,-0.37303457,4.271980285644531,6.591463088989258,3.2229549884796143,-5.029582977294922,144.41603088378906, 17.917388916015625
394,3047344216,0.30084905,-0.5882781,-0.63605875,-0.39855742,4.598572254180908,0.611828088760376,3.4706485271453857,-104.184326171875,196.11672973632812, 26.57466697692871
395,3047360883,0.31655025,-0.58219194,-0.6160941,-0.42576596,4.896347999572754,-0.8836180567741394,3.7063331604003906,-98.037353515625,235.89419555664062, 41.43128967285156
396,3047377550,0.33243707,-0.57519007,-0.59050983,-0.4581924,5.900690078735352,2.13932204246521,3.8818039894104004,-133.91220092773438,272.4752502441406, 49.12863540649414
397,3047394217,0.34762868,-0.567462,-0.55838126,-0.49532998,6.951376914978027,1.0483806133270264,2.1101419925689697,-174.78326416015625,305.5342712402344, 59.04392623901367
398,3047410884,0.36541966,-0.5571792,-0.52119577,-0.53326803,9.014464378356934,-0.21786054968833923,0.4531308114528656,-178.87265014648438,339.4967346191406, 75.8064956665039
399,3047427551,0.38922107,-0.5423616,-0.48169276,-0.5677351,12.242613792419434,-1.9213957786560059,-1.149247169494629,-144.2273712158203,369.6661682128906, 100.47443389892578
400,3047444218,0.41969216,-0.52223057,-0.44264606,-0.5959852,15.179388999938965,-1.760882019996643,-1.793821096420288,-82.8188705444336,388.3565979003906, 123.27998352050781
401,3047460885,0.45366153,-0.4976096,-0.4030655,-0.6197696,17.9838809967041,0.13319282233715057,-2.4252591133117676,-45.741371154785156,403.29150390625, 138.22108459472656
402,3047477552,0.4868675,-0.47058025,-0.36269414,-0.64028704,20.98570442199707,2.7788259983062744,-2.4332151412963867,-31.652158737182617,403.3899230957031, 140.76051330566406
403,3047494219,0.5160783,-0.44312346,-0.32112923,-0.65892416,23.85811996459961,4.006563186645508,-1.925420880317688,-43.762962341308594,393.5538330078125, 132.3640594482422
404,3047510886,0.5419222,-0.41315392,-0.2842059,-0.6744268,23.735082626342773,5.931017875671387,-2.0489470958709717,-17.196914672851562,371.86376953125, 108.68162536621094
405,3047527553,0.55799925,-0.38662562,-0.24656916,-0.69163656,22.912525177001953,9.781457901000977,-4.780376434326172,-64.51521301269531,344.7695007324219, 65.96559143066406
406,3047544220,0.5695595,-0.37105435,-0.20428102,-0.7044076,20.248411178588867,-4.206140518188477,-17.57011604309082,-133.34120178222656,291.5962829589844, 92.74375915527344
407,3047560887,0.5811987,-0.35614166,-0.17806843,-0.709692,15.65518856048584,11.365397453308105,-22.871667861938477,-47.18031311035156,207.22314453125, 82.3599624633789
408,3047577554,0.58487856,-0.34930363,-0.17733909,-0.7102499,4.862218856811523,9.690974235534668,-27.26752471923828,31.071517944335938,45.48139190673828, 10.206987380981445
409,3047594221,0.5788016,-0.35222536,-0.1941988,-0.70937526,9.067146301269531,17.180641174316406,-17.561004638671875,55.95148849487305,-87.59208679199219, -61.82556915283203
410,3047610888,0.56046224,-0.3724369,-0.20391367,-0.71105,14.246078491210938,7.5749077796936035,-12.811721801757812,-81.08929443359375,-153.20596313476562, -91.01422119140625
411,3047627555,0.5397706,-0.39387113,-0.21576332,-0.71201086,17.778139114379883,0.24729426205158234,4.45992374420166,-80.49052429199219,-172.11117553710938, -103.24774932861328
412,3047644222,0.5222794,-0.4109748,-0.22620277,-0.7121491,16.048166275024414,-14.663804054260254,12.77100944519043,-61.442806243896484,-143.09417724609375, -87.0280532836914
413,3047660889,0.50122267,-0.4301847,-0.23841196,-0.7119528,17.519960403442383,4.940842151641846,-7.276940822601318,-69.69769287109375,-166.488037109375, -105.29316711425781
414,3047677556,0.47477993,-0.4521088,-0.24945709,-0.7127082,21.751127243041992,-0.9106307029724121,-2.53810453414917,-102.3318862915039,-181.47581481933594, -126.82623291015625
415,3047694223,0.4538907,-0.4666368,-0.26857835,-0.70999944,11.667022705078125,0.48452892899513245,0.11110377311706543,-15.40489387512207,-172.61447143554688, -126.02511596679688
416,3047710890,0.432698,-0.47870684,-0.28450906,-0.70899,9.91665267944336,10.998464584350586,-3.226285934448242,-27.460739135742188,-145.77919006347656, -127.09434509277344
417,3047727557,0.41576025,-0.48923984,-0.29605228,-0.7072064,10.435131072998047,1.8760149478912354,-3.88127064704895,-28.897611618041992,-119.39488983154297, -92.32353973388672
418,3047744224,0.4080506,-0.4941198,-0.31027672,-0.7021886,10.577740669250488,4.039628505706787,-0.022546812891960144,37.91532897949219,-91.59153747558594, -58.730384826660156
419,3047760891,0.40335298,-0.49727246,-0.32153332,-0.697598,11.675334930419922,0.22963319718837738,1.3160545825958252,37.73774719238281,-67.06970977783203, -38.97840118408203
420,3047777558,0.40089688,-0.4985307,-0.33386803,-0.69230145,12.605527877807617,0.6708716750144958,0.36524948477745056,57.41300582885742,-58.49047088623047, -34.255619049072266
421,3047794225,0.39656165,-0.5009656,-0.3430735,-0.6885298,11.604034423828125,0.8052787184715271,0.35334527492523193,29.35177230834961,-54.57853317260742, -34.07206344604492
422,3047810892,0.39274573,-0.5036094,-0.35193372,-0.6843035,10.808908462524414,0.5610010027885437,0.5791773796081543,30.024391174316406,-55.009925842285156, -28.769935607910156
423,3047827559,0.3892329,-0.5063904,-0.3604646,-0.6798029,9.829191207885742,2.0184926986694336,0.17126226425170898,29.84037971496582,-55.0410041809082, -25.213747024536133
424,3047844226,0.387481,-0.508687,-0.3700462,-0.6739155,9.891142845153809,1.5639311075210571,0.4336254894733429,45.62972640991211,-56.10120391845703, -18.176612854003906
425,3047860893,0.3879261,-0.5098901,-0.38185215,-0.666119,9.385713577270508,2.1046090126037598,1.4669349193572998,71.4139175415039,-58.099002838134766, -13.547483444213867
426,3047877560,0.3896888,-0.5102,-0.3958525,-0.65661204,9.498162269592285,2.5114026069641113,2.0808560848236084,92.98294830322266,-62.47834396362305, -13.063344955444336
427,3047894227,0.39192218,-0.5099512,-0.40969825,-0.64691126,9.548779487609863,2.690500020980835,1.6300169229507446,93.35126495361328,-59.453006744384766, -11.55703067779541
428,3047910894,0.3926495,-0.51063144,-0.42012775,-0.6391985,10.154072761535645,1.8797614574432373,0.9742841720581055,64.60396575927734,-51.79209518432617, -9.021757125854492
429,3047927561,0.39237967,-0.51203865,-0.4278231,-0.6331051,10.033011436462402,2.0307164192199707,1.204644799232483,43.505836486816406,-44.72901916503906, -6.097468852996826
430,3047944228,0.39103884,-0.5140901,-0.43376288,-0.62821186,9.83535385131836,1.9869707822799683,0.9040085673332214,28.079252243041992,-41.625606536865234, -5.964277744293213
431,3047960895,0.38975626,-0.51600665,-0.44,-0.62307876,9.699921607971191,1.3081893920898438,0.755669891834259,31.207393646240234,-42.52625274658203, -6.572489261627197
432,3047977562,0.38918015,-0.5170974,-0.44825643,-0.6166161,9.531542778015137,1.1179720163345337,0.761388897895813,48.62431716918945,-47.07923126220703, -9.7056303024292
433,3047994229,0.38770577,-0.51851803,-0.4572054,-0.60974294,9.629059791564941,0.8995582461357117,0.6003872156143188,48.77290725708008,-54.65800857543945, -13.929381370544434
434,3048010896,0.3847022,-0.52081335,-0.46711972,-0.6021271,9.571342468261719,0.3999127447605133,0.6096860766410828,47.39142990112305,-68.45088195800781, -19.121959686279297
435,3048027563,0.37907138,-0.52473015,-0.47686246,-0.5946136,10.006207466125488,-0.06887193024158478,0.2633403241634369,32.67646789550781,-82.88424682617188, -24.522747039794922
436,3048044230,0.37153095,-0.5299448,-0.48735756,-0.5861793,10.831207275390625,-0.07932747155427933,0.7806339263916016,28.515522003173828,-99.83290100097656, -28.47074317932129
437,3048060897,0.3615868,-0.5366586,-0.49851364,-0.5768334,11.200546264648438,0.09179806709289551,0.5679660439491272,21.664216995239258,-119.06168365478516, -33.29542922973633
438,3048077564,0.34908587,-0.544954,-0.50958264,-0.56700057,12.154304504394531,0.5517591834068298,1.3257639408111572,9.634846687316895,-135.80027770996094, -36.55371856689453
439,3048094231,0.33421057,-0.55443096,-0.5204897,-0.5567766,13.916299819946289,0.5909560918807983,1.1929280757904053,-1.3398758172988892,-149.9602813720703, -40.18423843383789
440,3048110898,0.31855908,-0.56401664,-0.5323535,-0.54498184,14.696958541870117,0.26233726739883423,1.4901759624481201,4.752129554748535,-161.50970458984375, -42.87351608276367
441,3048127565,0.30439368,-0.57236534,-0.5464769,-0.53019375,15.580595016479492,-1.8156567811965942,2.2816693782806396,32.66597366333008,-168.18621826171875, -44.12912368774414
442,3048144232,0.29402882,-0.57859737,-0.563498,-0.51111835,16.865564346313477,-5.170690536499023,5.790926933288574,78.73541259765625,-169.3683624267578, -40.819244384765625
443,3048160899,0.28610808,-0.58374614,-0.58233684,-0.48812553,18.99123191833496,-2.071615219116211,6.825494289398193,112.2176742553711,-175.73512268066406, -35.99414825439453
444,3048177566,0.27555874,-0.5890119,-0.6000826,-0.4658686,20.050716400146484,-0.9585288166999817,13.717791557312012,94.84049987792969,-181.99063110351562, -41.57421875
445,3048194233,0.26008877,-0.59515744,-0.61567664,-0.44618827,19.09107780456543,5.17100191116333,10.47897720336914,55.79369354248047,-191.2568817138672, -50.008243560791016
446,3048210900,0.24175377,-0.60232735,-0.6302752,-0.42604017,22.102405548095703,5.96083927154541,6.430195331573486,41.29082489013672,-207.20350646972656, -49.52386474609375
447,3048227567,0.22924587,-0.60908103,-0.643331,-0.40322688,20.890151977539062,0.1258828043937683,12.313546180725098,73.26373291015625,-189.67420959472656, -23.41263198852539
448,3048244234,0.22381663,-0.61324716,-0.65079755,-0.3876814,14.642265319824219,1.2071765661239624,17.338790893554688,59.4063835144043,-112.54857635498047, -3.3783280849456787
449,3048260901,0.2292738,-0.60861176,-0.6687534,-0.36026978,8.916330337524414,11.472372055053711,-11.233596801757812,200.06935119628906,-107.19783782958984, -39.674861907958984
450,3048277568,0.23063911,-0.603586,-0.6815505,-0.3434803,12.910598754882812,14.264139175415039,-6.3127851486206055,122.05008697509766,-72.23062133789062, -46.41482925415039
451,3048294235,0.22497436,-0.60505927,-0.6804154,-0.34687856,9.282468795776367,-1.5976088047027588,11.875884056091309,-44.721412658691406,-14.640271186828613, -6.490463733673096
452,3048310902,0.23527561,-0.6057085,-0.6752054,-0.34908512,2.1532821655273438,-8.993903160095215,8.3695707321167,18.828203201293945,62.99531173706055, 46.427154541015625
453,3048327569,0.25520417,-0.60111123,-0.6719917,-0.34923276,4.418986797332764,1.9641426801681519,3.8513853549957275,81.59169006347656,108.35881805419922, 40.05393981933594
454,3048344236,0.27080235,-0.5954146,-0.6639212,-0.36243132,4.2279558181762695,6.479385852813721,2.1621148586273193,-6.32858943939209,153.3964385986328, 21.833175659179688
455,3048360903,0.28309065,-0.5911731,-0.6476784,-0.38844153,4.420495510101318,0.4400480091571808,2.9325101375579834,-101.37596130371094,202.3399200439453, 29.944047927856445
456,3048377570,0.29789296,-0.5858212,-0.6269877,-0.4182819,4.73502254486084,0.5089573264122009,3.5109622478485107,-117.97091674804688,240.7227020263672, 42.2617301940918
457,3048394237,0.31134138,-0.5802667,-0.59957063,-0.45483226,6.403127670288086,1.510055422782898,3.2526402473449707,-171.33740234375,276.276123046875, 50.74260330200195
458,3048410904,0.325509,-0.57342625,-0.5660573,-0.49477828,7.564154624938965,0.12682385742664337,1.577386498451233,-198.82505798339844,309.8717956542969, 64.63011932373047
459,3048427571,0.34331,-0.5639655,-0.5278697,-0.5342609,9.717473030090332,-1.109253168106079,-0.6004050970077515,-192.78172302246094,341.6334533691406, 86.10643005371094
460,3048444238,0.3679258,-0.5499633,-0.48866266,-0.568665,12.769206047058105,-2.0589582920074463,-1.5342822074890137,-140.97421264648438,365.89190673828125, 110.44288635253906
461,3048460905,0.39871544,-0.53062767,-0.45019418,-0.5973154,15.169490814208984,-1.0593115091323853,-1.9406421184539795,-83.8742904663086,383.6164245605469, 128.96864318847656
462,3048477572,0.43199703,-0.5070342,-0.411045,-0.62236387,18.00442886352539,1.576859712600708,-2.0866293907165527,-55.0480842590332,397.7887878417969, 138.1390838623047
463,3048494239,0.4633703,-0.4816323,-0.36929473,-0.6457086,21.21723747253418,3.2642600536346436,-2.5065343379974365,-60.47135925292969,402.5671081542969, 138.5542449951172
464,3048510906,0.4932434,-0.45402777,-0.32941586,-0.6648723,24.162803649902344,3.4025676250457764,-2.0335402488708496,-39.525848388671875,389.05035400390625, 133.52896118164062
465,3048527573,0.5198922,-0.42320234,-0.29379252,-0.68139416,24.20494842529297,7.781456470489502,-2.117018222808838,-13.260688781738281,374.1801452636719, 107.29694366455078
466,3048544240,0.5358908,-0.3972512,-0.2554908,-0.6998122,22.949615478515625,7.837085247039795,-7.643396854400635,-78.19181823730469,345.3758850097656, 68.49969482421875
467,3048560907,0.55181146,-0.3788036,-0.21912366,-0.7099274,20.5440731048584,-2.9141499996185303,-16.71907615661621,-82.28263092041016,279.9427795410156, 106.8742904663086
468,3048577574,0.5627133,-0.3645035,-0.19575264,-0.715662,12.598494529724121,13.132383346557617,-24.38762855529785,-40.94269943237305,192.2126922607422, 71.41414642333984
469,3048594241,0.5659262,-0.35863096,-0.20037511,-0.7148156,4.389633655548096,10.173600196838379,-27.080812454223633,53.6065788269043,16.44820213317871, 0.5856472849845886
470,3048610908,0.5568924,-0.36524874,-0.21576034,-0.714081,9.260652542114258,17.54095458984375,-16.644277572631836,27.43444061279297,-102.7033462524414, -69.13936614990234
471,3048627575,0.53560525,-0.38807264,-0.22289513,-0.71613175,14.03361701965332,6.24146842956543,-12.891231536865234,-110.34951782226562,-161.3607940673828, -94.7665023803711
472,3048644242,0.51440006,-0.4084981,-0.23470315,-0.71654475,17.893102645874023,-0.7825740575790405,10.959733009338379,-75.85919189453125,-170.54356384277344, -104.2127456665039
473,3048660909,0.49911952,-0.42176342,-0.24714687,-0.7154814,12.62520694732666,-11.495565414428711,11.748887062072754,-28.37789535522461,-132.19619750976562, -83.09416961669922
474,3048677576,0.47921485,-0.43837062,-0.25812876,-0.71523005,18.677326202392578,6.98214054107666,-9.16348934173584,-61.663875579833984,-149.38778686523438, -98.97952270507812
475,3048694243,0.45564783,-0.45599464,-0.27002126,-0.7152221,22.487390518188477,-2.021554470062256,-1.1153123378753662,-72.12245178222656,-162.73831176757812, -118.46900177001953
476,3048710910,0.43777803,-0.46706855,-0.29102594,-0.7109862,11.723621368408203,3.922909736633301,-1.3653538227081299,18.937040328979492,-161.538818359375, -117.94918823242188
477,3048727577,0.41801047,-0.47948942,-0.30680823,-0.7079732,12.785256385803223,4.614595413208008,-3.7894890308380127,-19.262357711791992,-152.21559143066406, -111.34925079345703
478,3048744244,0.4061743,-0.48734343,-0.32486045,-0.7014162,9.79698657989502,0.9211324453353882,-2.845684766769409,38.481082916259766,-131.324462890625, -79.57485961914062
479,3048760911,0.39770505,-0.4926581,-0.3394617,-0.69561815,9.836585998535156,5.186878204345703,0.9386717081069946,38.509971618652344,-99.31108856201172, -59.61553192138672
480,3048777578,0.3919308,-0.49653122,-0.34968543,-0.69106245,11.530279159545898,0.8261759281158447,1.0474634170532227,27.714893341064453,-69.99996185302734, -38.60413360595703
481,3048794245,0.38757515,-0.49894497,-0.3591896,-0.6868933,12.082378387451172,1.2540971040725708,0.7847146391868591,32.16101837158203,-56.45154571533203, -34.03502655029297
482,3048810912,0.38254496,-0.5012571,-0.36480138,-0.68506986,12.278360366821289,0.9068835377693176,0.805526614189148,5.951797008514404,-39.26765060424805, -30.4307804107666
483,3048827579,0.37913582,-0.5024838,-0.37071344,-0.6828893,10.98930835723877,0.49398744106292725,0.5427831411361694,16.717376708984375,-32.16349411010742, -25.681297302246094
484,3048844246,0.3767115,-0.5035367,-0.37630826,-0.68039054,10.039460182189941,2.0971181392669678,0.3820231854915619,19.91102409362793,-29.162981033325195, -19.65713119506836
485,3048860913,0.37537378,-0.50455976,-0.381465,-0.67749447,9.196805000305176,2.1550192832946777,1.2600889205932617,22.737491607666016,-26.5014705657959, -12.139389038085938
486,3048877580,0.3752379,-0.5055872,-0.38681242,-0.67376155,9.432729721069336,2.552199125289917,1.839097261428833,29.996387481689453,-26.84588623046875, -5.066169738769531
487,3048894247,0.3766443,-0.50614744,-0.39347675,-0.66867775,9.078451156616211,2.163990020751953,2.3081247806549072,44.16583251953125,-29.236379623413086, -0.31010884046554565
488,3048910914,0.37821814,-0.5070556,-0.40056098,-0.66287,9.028183937072754,2.436903476715088,1.6166331768035889,50.37810516357422,-33.51532745361328, 1.7812516689300537
489,3048927581,0.37916073,-0.50869966,-0.40716565,-0.6570221,9.24331283569336,1.6832334995269775,1.3845539093017578,44.11602020263672,-37.6152458190918, 2.6641814708709717
490,3048944248,0.3798071,-0.51076204,-0.4140895,-0.650691,9.208675384521484,1.7762799263000488,1.3156511783599854,44.41850662231445,-43.03337478637695, 2.5897927284240723
491,3048960915,0.3802194,-0.5131692,-0.42194793,-0.64346766,9.223182678222656,1.339497447013855,1.3763655424118042,49.45148849487305,-50.90574645996094, 1.5192378759384155
492,3048977582,0.38053593,-0.5157982,-0.43173057,-0.6346288,9.439292907714844,1.4329766035079956,1.9210526943206787,61.768070220947266,-62.988914489746094, -0.8947017192840576
493,3048994249,0.38031405,-0.5182424,-0.44354835,-0.6245408,9.274813652038574,1.3136996030807495,1.1064178943634033,72.9659652709961,-73.64663696289062, -7.811094760894775
494,3049010916,0.37902018,-0.5206016,-0.45756656,-0.6131481,9.431631088256836,1.3682210445404053,1.235344648361206,82.82614135742188,-87.04467010498047, -17.17560386657715
495,3049027583,0.3757812,-0.5232526,-0.4720085,-0.60183334,9.998489379882812,1.2908331155776978,0.7947466373443604,76.66793823242188,-95.32189178466797, -26.2454776763916
496,3049044250,0.37037554,-0.5267154,-0.48604724,-0.59089017,10.466327667236328,1.8341633081436157,1.9546916484832764,63.919219970703125,-103.4266586303711, -32.15079879760742
497,3049060917,0.36193168,-0.5316632,-0.49854916,-0.5811957,10.554945945739746,1.6314951181411743,1.7327631711959839,38.74067306518555,-111.3207778930664, -37.187843322753906
498,3049077584,0.35154465,-0.5378563,-0.5114029,-0.57060874,10.433860778808594,0.8163507580757141,1.6388267278671265,33.02804946899414,-127.24048614501953, -39.78953552246094
499,3049094251,0.33787525,-0.54576886,-0.5235922,-0.5602033,11.583499908447266,1.7609329223632812,2.1452581882476807,13.510262489318848,-143.400634765625, -44.661521911621094
500,3049110918,0.3215674,-0.55515707,-0.53531766,-0.5493908,13.591035842895508,0.48226723074913025,1.643242597579956,-0.10865961015224457,-159.21435546875, -46.86049270629883
501,3049127585,0.3042816,-0.5649406,-0.5477657,-0.53684986,15.242863655090332,-0.9617092609405518,1.3691205978393555,4.399345397949219,-172.68687438964844, -48.12162399291992
502,3049144252,0.28829607,-0.57350415,-0.5625282,-0.5210953,16.564983367919922,-2.6592037677764893,2.373522996902466,32.66231155395508,-180.8134765625, -50.32748031616211
503,3049160919,0.27566332,-0.5800508,-0.57977873,-0.5014057,18.099096298217773,-5.850890636444092,6.570490837097168,74.01953125,-181.33056640625, -48.331417083740234
504,3049177586,0.2649276,-0.5856863,-0.598195,-0.47848493,20.070043563842773,-1.2767374515533447,7.681006908416748,100.2106704711914,-186.1570587158203, -44.24442672729492
505,3049194253,0.25232828,-0.5914903,-0.61567104,-0.4554329,21.576828002929688,-1.1815334558486938,13.231690406799316,89.88121032714844,-193.69044494628906, -45.82432556152344
506,3049210920,0.23665965,-0.5974196,-0.6324507,-0.4325369,20.12818145751953,5.172097682952881,9.95263671875,74.41659545898438,-205.92372131347656, -52.50826644897461
507,3049227587,0.21951553,-0.604441,-0.6474984,-0.40891314,23.041976928710938,4.2813334465026855,7.928602695465088,64.7294692993164,-216.32693481445312, -43.83486557006836
508,3049244254,0.20895754,-0.6109022,-0.65961236,-0.38476875,21.0596981048584,0.8376390337944031,15.210436820983887,87.12322235107422,-183.7234344482422, -14.85546875
509,3049260921,0.20466843,-0.6146746,-0.66418165,-0.37302637,12.152639389038086,1.6009429693222046,11.241572380065918,41.20785140991211,-85.95116424560547, 3.320324659347534
510,3049277588,0.20909898,-0.6120807,-0.6806531,-0.34401503,9.58275318145752,13.723977088928223,-12.034661293029785,196.53004455566406,-119.99119567871094, -29.321199417114258
511,3049294255,0.2030393,-0.6115402,-0.6861841,-0.33755746,11.6368408203125,11.122491836547852,-2.9574151039123535,18.14556884765625,-63.07326126098633, -30.556760787963867
512,3049310922,0.19652775,-0.6164078,-0.6802627,-0.34447208,9.099547386169434,-7.252835750579834,14.633296966552734,-80.79631805419922,-5.6128692626953125, 23.530242919921875
513,3049327589,0.21069741,-0.61767495,-0.67427176,-0.34560388,1.4886683225631714,-7.059980392456055,7.087815761566162,38.49590301513672,74.80573272705078, 63.5545768737793
514,3049344256,0.2313591,-0.6142549,-0.6693148,-0.3481117,4.369075298309326,5.85244083404541,2.8402349948883057,68.78436279296875,120.314453125, 50.794864654541016
515,3049360923,0.24583459,-0.61131966,-0.65652865,-0.36718395,4.253630638122559,4.321387767791748,2.384720802307129,-53.014892578125,173.0733642578125, 45.090152740478516
516,3049377590,0.2642474,-0.60738367,-0.6391267,-0.39086524,4.485400199890137,-1.0255436897277832,3.7311575412750244,-67.20752716064453,220.55642700195312, 62.18455505371094
517,3049394257,0.28402412,-0.60199445,-0.61685634,-0.42002538,5.5698323249816895,1.9585262537002563,4.371980667114258,-96.1025619506836,262.1636657714844, 69.7554702758789
518,3049410924,0.30180565,-0.59621185,-0.5876565,-0.45618513,7.1714768409729,1.3938663005828857,2.7699902057647705,-153.33482360839844,297.30950927734375, 77.2807388305664
519,3049427591,0.3206423,-0.58830684,-0.5530469,-0.49519995,8.549267768859863,1.0436055660247803,0.8946220874786377,-173.15977478027344,331.1720275878906, 88.15135192871094
520,3049444258,0.34238306,-0.5774042,-0.51428735,-0.5337479,10.745119094848633,-0.02621181681752205,-1.420032262802124,-167.20314025878906,359.75433349609375, 104.32866668701172
521,3049460925,0.3694692,-0.5611905,-0.4756158,-0.5677567,13.218926429748535,-0.17184662818908691,-1.707765817642212,-121.5618667602539,378.9035339355469, 117.63188171386719
522,3049477592,0.3996657,-0.54048103,-0.43588135,-0.59846044,15.755253791809082,0.8203092217445374,-1.9978599548339844,-90.86626434326172,397.0333251953125, 126.60427856445312
523,3049494259,0.4308478,-0.5161341,-0.395002,-0.62605876,18.931243896484375,1.5626507997512817,-2.818240165710449,-71.87938690185547,407.0481872558594, 131.83815002441406
524,3049510926,0.46197188,-0.48879504,-0.35500914,-0.64933044,22.30411720275879,2.974125862121582,-2.5538296699523926,-44.63307189941406,402.6028747558594, 132.47018432617188
525,3049527593,0.491726,-0.45827943,-0.3181957,-0.6685336,24.322362899780273,4.831860065460205,-2.8619985580444336,-15.035869598388672,389.9892272949219, 120.94608306884766
526,3049544260,0.5165937,-0.4259564,-0.28509212,-0.68586785,23.921579360961914,7.861553192138672,-3.8015694618225098,-3.230344772338867,369.585693359375, 89.34507751464844
527,3049560927,0.53386384,-0.40294454,-0.24764742,-0.700925,20.993242263793945,-1.6573703289031982,-12.503924369812012,-74.71123504638672,320.03289794921875, 92.8395004272461
528,3049577594,0.548332,-0.3864217,-0.21455273,-0.7099138,18.272045135498047,8.70458698272705,-18.184059143066406,-74.939453125,251.946044921875, 100.63660430908203
529,3049594261,0.55509347,-0.37759954,-0.20233558,-0.7129869,6.745375156402588,7.623443603515625,-31.129056930541992,-13.914843559265137,109.41674041748047, 41.514949798583984
530,3049610928,0.5557481,-0.37495333,-0.21885313,-0.70898354,6.648685932159424,14.846780776977539,-19.941551208496094,97.32890319824219,-56.41363525390625, -27.182287216186523
531,3049627595,0.5396381,-0.39100826,-0.22709657,-0.71016246,12.669647216796875,11.006973266601562,-14.45607852935791,-65.7266845703125,-127.17671966552734, -78.84808349609375
532,3049644262,0.52050656,-0.41126534,-0.23962542,-0.70888186,15.376319885253906,2.6368649005889893,-7.832306385040283,-64.8570785522461,-174.35401916503906, -89.07239532470703
533,3049660929,0.5029295,-0.4272782,-0.2517986,-0.7078793,18.12261962890625,-8.588922500610352,20.772968292236328,-47.48988723754883,-148.62664794921875, -88.31311798095703
534,3049677596,0.48854056,-0.4396612,-0.2684851,-0.7042314,13.777629852294922,-1.8711072206497192,-0.581182599067688,1.0765676498413086,-149.2174072265625, -83.39765930175781
535,3049694263,0.46532205,-0.45817906,-0.28095287,-0.7032873,22.995431900024414,6.403323650360107,-7.4445414543151855,-71.63150787353516,-172.75108337402344, -111.17237854003906
536,3049710930,0.44107756,-0.47516406,-0.2952347,-0.70178777,17.11421775817871,-2.410627841949463,-0.1269008219242096,-60.22516632080078,-174.41920471191406, -122.76290893554688
537,3049727597,0.42393625,-0.4851586,-0.31663787,-0.69616085,10.743770599365234,4.476895332336426,-4.458287715911865,26.9362735748291,-161.24586486816406, -113.4820785522461
538,3049744264,0.4077099,-0.49439767,-0.33386016,-0.6912894,12.23803997039795,6.513878345489502,-3.651322364807129,10.454719543457031,-140.7738037109375, -98.90023803710938
539,3049760931,0.39723986,-0.5003261,-0.3483514,-0.68594855,8.929644584655762,2.0925419330596924,-1.669341802597046,27.31939125061035,-105.63179016113281, -68.39459228515625
540,3049777598,0.3903065,-0.50409025,-0.36055943,-0.6808457,10.953580856323242,3.477616548538208,1.4086060523986816,34.042537689208984,-79.88371276855469, -49.71195983886719
541,3049794265,0.3854049,-0.5070412,-0.37068558,-0.6759916,11.765603065490723,0.24181130528450012,0.9628024697303772,32.896080017089844,-64.664306640625, -35.665225982666016
542,3049810932,0.3815262,-0.50903404,-0.3803551,-0.67130643,11.564313888549805,0.8912372589111328,0.8599507808685303,36.46876525878906,-55.867767333984375, -32.31201934814453
543,3049827599,0.3780123,-0.5110166,-0.38864383,-0.6670269,11.587926864624023,-0.39591342210769653,0.30834051966667175,30.354341506958008,-49.8905029296875, -26.96983528137207
544,3049844266,0.37637162,-0.51230794,-0.39951995,-0.6605065,9.928696632385254,1.709944486618042,0.1899089515209198,56.611572265625,-56.364925384521484, -23.621543884277344
545,3049860933,0.3760012,-0.51344734,-0.41188595,-0.6521847,9.366809844970703,2.4763541221618652,0.7064458131790161,73.208740234375,-62.43718338012695, -18.930770874023438
546,3049877600,0.37629867,-0.51448005,-0.4239789,-0.6433908,9.222848892211914,3.216554880142212,1.3124219179153442,75.9716796875,-61.0993537902832, -14.107970237731934
547,3049894267,0.3767403,-0.51557875,-0.43445826,-0.63520986,9.840079307556152,2.87349796295166,2.616269111633301,67.4059829711914,-54.72207260131836, -9.185152053833008
548,3049910934,0.37724075,-0.51663876,-0.44368026,-0.6276319,9.696647644042969,2.028061628341675,2.126321315765381,60.451942443847656,-49.12196350097656, -6.18515157699585
549,3049927601,0.377906,-0.51707906,-0.45285258,-0.6202748,9.642723083496094,2.110881805419922,0.9915130138397217,55.43039321899414,-46.8015251159668, -6.829613208770752
550,3049944268,0.37801746,-0.5177553,-0.46069917,-0.61383116,9.69194221496582,1.537978172302246,0.7972515821456909,45.76665115356445,-42.574005126953125, -6.296200752258301
551,3049960935,0.37781677,-0.5185873,-0.4677896,-0.60786086,9.708995819091797,2.1751341819763184,1.0482522249221802,40.96883010864258,-40.3028450012207, -5.901209831237793
552,3049977602,0.37648705,-0.5201608,-0.47360465,-0.60281765,9.623318672180176,3.0529072284698486,1.1576945781707764,30.256454467773438,-39.587669372558594, -6.803510665893555
553,3049994269,0.37496805,-0.52195793,-0.47925416,-0.5977245,9.89470100402832,2.330953359603882,1.2160500288009644,28.4989070892334,-40.984127044677734, -6.135960578918457
554,3050010936,0.3741051,-0.5232404,-0.4866444,-0.5911364,9.726030349731445,1.7287594079971313,0.8811027407646179,44.28318405151367,-46.666015625, -7.552195072174072
555,3050027603,0.37275055,-0.52426463,-0.49556077,-0.5836294,9.556530952453613,1.6049162149429321,1.2549718618392944,52.47779083251953,-54.585323333740234, -13.5856294631958
556,3050044270,0.37010953,-0.5263624,-0.50478023,-0.57546383,9.827362060546875,-0.7766734957695007,-0.4156154990196228,48.57197189331055,-66.53656768798828, -14.540060997009277
557,3050060937,0.36536178,-0.52961427,-0.5142106,-0.56710416,10.255693435668945,-0.6142184734344482,-0.15018194913864136,39.528778076171875,-79.71497344970703, -19.250375747680664
558,3050077604,0.3584679,-0.5342147,-0.5235145,-0.5586128,11.227937698364258,-0.6468906402587891,0.3335922956466675,28.309085845947266,-92.80057525634766, -22.159406661987305
559,3050094271,0.3494241,-0.5402835,-0.53353727,-0.5489397,11.691999435424805,-0.4866335690021515,0.49658799171447754,23.81591796875,-112.39861297607422, -24.959304809570312
560,3050110938,0.338103,-0.5479076,-0.544266,-0.53782725,11.672201156616211,0.3943342864513397,1.4688609838485718,19.571523666381836,-133.78855895996094, -27.108545303344727
561,3050127605,0.32429755,-0.5567791,-0.55513895,-0.52597433,13.23165225982666,0.6051740646362305,1.9786689281463623,10.631885528564453,-150.98814392089844, -30.51457405090332
562,3050144272,0.3090719,-0.56604505,-0.5669228,-0.51250994,14.23647403717041,0.12512682378292084,1.8224502801895142,13.77840805053711,-166.23983764648438, -34.10908889770508
563,3050160939,0.293576,-0.5746595,-0.58020425,-0.49693355,15.37332534790039,-0.9567198753356934,2.9316205978393555,27.63405990600586,-176.62274169921875, -39.035037994384766
564,3050177606,0.28042832,-0.5814596,-0.59568685,-0.4779353,16.761037826538086,-4.540231227874756,5.2353339195251465,61.756317138671875,-179.30490112304688, -40.176727294921875
565,3050194273,0.27130464,-0.5867092,-0.61354196,-0.45357758,18.679025650024414,-3.2275819778442383,6.543333053588867,110.56866455078125,-184.13668823242188, -32.69536209106445
566,3050210940,0.25973687,-0.5920667,-0.63010514,-0.43007115,20.90723991394043,-0.7282730937004089,11.952237129211426,92.8770751953125,-189.42758178710938, -36.434791564941406
567,3050227607,0.24362971,-0.5978252,-0.6447951,-0.409254,20.02144432067871,4.703676700592041,11.457433700561523,56.547916412353516,-196.67971801757812, -45.43049621582031
568,3050244274,0.22539595,-0.604566,-0.6580665,-0.38813046,22.15424346923828,4.915462493896484,6.878171443939209,43.67017364501953,-208.4186553955078, -40.70350646972656
569,3050260941,0.21235809,-0.6111382,-0.66963553,-0.36469498,21.331050872802734,1.3745815753936768,12.895262718200684,71.56439971923828,-192.0086212158203, -16.93447494506836
570,3050277608,0.2045222,-0.6158407,-0.6747564,-0.35158926,14.644991874694824,1.3830891847610474,17.451065063476562,32.51184844970703,-111.26542663574219, -0.5613033175468445
571,3050294275,0.20819625,-0.6113405,-0.6905716,-0.32561982,9.15765380859375,12.558629035949707,-11.326299667358398,179.89080810546875,-105.8454360961914, -42.582637786865234
572,3050310942,0.20648529,-0.60799867,-0.70034313,-0.31180307,12.644591331481934,12.780991554260254,-6.906038284301758,84.54765319824219,-74.10730743408203, -40.75447082519531
573,3050327609,0.20092902,-0.610483,-0.6984624,-0.31478307,10.369710922241211,-3.223999261856079,12.88447380065918,-45.425750732421875,-18.398143768310547, 4.144586563110352
574,3050344276,0.21150143,-0.6118332,-0.69276196,-0.31781822,1.9957517385482788,-7.31247091293335,9.678378105163574,15.27066707611084,66.5584716796875, 49.414939880371094
575,3050360943,0.22959396,-0.6086057,-0.6882299,-0.32128695,4.825613498687744,4.22847843170166,4.052591800689697,53.89478302001953,112.33548736572266, 38.39289474487305
576,3050377610,0.24316311,-0.6045845,-0.67858267,-0.338932,4.494237899780273,6.085287094116211,2.699753522872925,-42.09431457519531,159.9813690185547, 23.783098220825195
577,3050394277,0.25713655,-0.6009708,-0.66278434,-0.3652833,4.606320381164551,-0.1858576536178589,3.2616794109344482,-95.9668960571289,207.3573455810547, 37.71994400024414
578,3050410944,0.27564025,-0.5961348,-0.643135,-0.39373013,5.432329177856445,0.741557240486145,3.851097583770752,-91.52564239501953,247.39559936523438, 51.506324768066406
579,3050427611,0.29344374,-0.5907314,-0.617431,-0.42860958,7.026383399963379,1.6052464246749878,3.1844558715820312,-139.76368713378906,283.1117248535156, 62.199485778808594
580,3050444278,0.3121516,-0.58360934,-0.5868509,-0.46644157,8.114686965942383,0.5594679713249207,1.3745498657226562,-160.81564331054688,313.4032897949219, 72.84547424316406
581,3050460945,0.33380252,-0.57331115,-0.55270207,-0.5043916,9.95910930633545,0.1250401884317398,-0.19846203923225403,-159.5011444091797,341.9954833984375, 87.84497833251953
582,3050477612,0.35994804,-0.5595634,-0.51573974,-0.539758,12.829780578613281,-0.612580418586731,-1.5778014659881592,-134.37721252441406,367.34228515625, 106.58382415771484
583,3050494279,0.3904875,-0.5417039,-0.47816262,-0.5704707,15.016213417053223,-0.6919858455657959,-2.349726438522339,-93.6147232055664,381.9736633300781, 121.36766815185547
584,3050510946,0.42262837,-0.5201973,-0.43976635,-0.5978175,17.653648376464844,1.3682736158370972,-2.5476880073547363,-69.53782653808594,391.722900390625, 126.55191802978516
585,3050527613,0.45273155,-0.49738562,-0.3991585,-0.6231486,20.193750381469727,2.836548328399658,-2.41701078414917,-70.24034881591797,391.5809631347656, 125.88593292236328
586,3050544280,0.48129833,-0.47220358,-0.35964823,-0.645003,23.217689514160156,3.577132225036621,-2.212502956390381,-53.89641571044922,382.4845886230469, 119.92073059082031
587,3050560947,0.5067794,-0.444199,-0.323891,-0.66404575,23.64271354675293,7.345208644866943,-2.679110527038574,-31.00018310546875,366.17071533203125, 96.48619079589844
588,3050577614,0.5220409,-0.42078394,-0.28459096,-0.6851439,21.79207992553711,6.239833354949951,-8.305907249450684,-99.07383728027344,341.5433044433594, 63.9286994934082
589,3050594281,0.53598446,-0.40515286,-0.24605106,-0.6985919,20.41130828857422,-0.2394166886806488,-14.042012214660645,-112.3687744140625,278.09979248046875, 98.41471099853516
590,3050610948,0.5423273,-0.39646795,-0.21544458,-0.70871574,12.894979476928711,10.770040512084961,-24.59506607055664,-115.36359405517578,194.22714233398438, 63.8497428894043
591,3050627615,0.545438,-0.39127314,-0.21827194,-0.7083503,5.34579610824585,9.316176414489746,-26.828523635864258,41.14739227294922,20.201581954956055, 1.6284352540969849
592,3050644282,0.53665495,-0.39727342,-0.23090361,-0.7077139,9.058771133422852,16.986713409423828,-16.822864532470703,15.227933883666992,-88.74698638916016, -64.55033111572266
593,3050660949,0.5165061,-0.41776463,-0.23772001,-0.7086491,13.970744132995605,5.647115707397461,-13.252312660217285,-100.38322448730469,-150.88552856445312, -86.24150085449219
594,3050677616,0.4968853,-0.4358155,-0.25077584,-0.7073059,17.506704330444336,0.7554650902748108,5.445573806762695,-56.14101028442383,-166.21292114257812, -97.22039794921875
595,3050694283,0.48035026,-0.4493423,-0.26145595,-0.7063965,15.294209480285645,-12.975814819335938,13.840507507324219,-43.763465881347656,-129.3873748779297, -84.27970886230469
596,3050710950,0.461265,-0.4637475,-0.27578166,-0.7043561,17.51746368408203,6.600142002105713,-7.180088996887207,-34.62596893310547,-154.0544891357422, -102.97560119628906
597,3050727617,0.4355093,-0.4819295,-0.28691384,-0.70409954,22.91411781311035,-0.6456403136253357,-2.861755609512329,-86.84436798095703,-168.75131225585938, -123.32331848144531
598,3050744284,0.41616237,-0.49281725,-0.30732584,-0.6996364,12.575926780700684,2.092827081680298,-0.5008269548416138,9.450108528137207,-162.1959686279297, -124.80485534667969
599,3050760951,0.39511538,-0.50323874,-0.32376018,-0.6970037,11.623774528503418,8.269319534301758,-3.9696381092071533,-18.039108276367188,-145.88304138183594, -125.66918182373047
600,3050777618,0.38084054,-0.5108623,-0.33949623,-0.69189787,10.027562141418457,1.3115049600601196,-3.180851459503174,15.03977108001709,-123.8843765258789, -90.05914306640625
601,3050794285,0.37273106,-0.51490265,-0.35494012,-0.68553966,9.712018966674805,4.765505313873291,0.5329008102416992,47.590824127197266,-95.97164154052734, -64.81087493896484
602,3050810952,0.36725378,-0.5179592,-0.36642653,-0.6801282,11.343440055847168,0.9822248816490173,1.2829575538635254,38.437652587890625,-71.44046783447266, -43.16179275512695
603,3050827619,0.36457404,-0.5193725,-0.37865046,-0.6737669,12.139297485351562,0.8120208978652954,0.2889772653579712,58.40647888183594,-62.006385803222656, -34.53298568725586
604,3050844286,0.3604985,-0.5216312,-0.38794544,-0.6689098,11.71412181854248,1.3240211009979248,0.32516542077064514,33.8304557800293,-56.86485290527344, -32.204769134521484
605,3050860953,0.3576083,-0.52409697,-0.3977519,-0.66274595,10.61047077178955,0.5953906774520874,0.5762492418289185,43.41888427734375,-60.645870208740234, -24.867233276367188
606,3050877620,0.35571173,-0.526557,-0.40823343,-0.65540254,9.67047119140625,2.7392518520355225,0.3111508786678314,53.3388557434082,-63.86904525756836, -19.985258102416992
607,3050894287,0.35454947,-0.52881575,-0.41789106,-0.6480863,9.258773803710938,2.726700782775879,1.169901728630066,52.71407699584961,-58.836402893066406, -14.3521728515625
608,3050910954,0.35406625,-0.53085476,-0.42655984,-0.6409969,9.642241477966309,3.0119340419769287,1.6891065835952759,50.68325424194336,-52.757354736328125, -8.94184684753418
609,3050927621,0.3537792,-0.5326286,-0.43436787,-0.6344065,9.526070594787598,2.498487949371338,2.481407642364502,46.81346893310547,-47.20214080810547, -6.946387767791748
610,3050944288,0.3539488,-0.5336589,-0.4424279,-0.62784237,9.197662353515625,2.1701982021331787,1.6611016988754272,51.34749221801758,-43.24843978881836, -8.196335792541504
611,3050960955,0.35385862,-0.5338261,-0.45137057,-0.62135196,9.347941398620605,2.2247085571289062,1.7048252820968628,49.91190719604492,-44.059226989746094, -14.232646942138672
612,3050977622,0.35179538,-0.5347353,-0.45838046,-0.61659205,9.345572471618652,1.9483102560043335,1.202009677886963,28.37520980834961,-42.116546630859375, -17.639467239379883
613,3050994289,0.34886193,-0.536309,-0.46446374,-0.6123248,9.688838005065918,1.4881384372711182,0.6513094305992126,20.03704071044922,-43.187408447265625, -17.405776977539062
614,3051010956,0.34556827,-0.5383059,-0.47046092,-0.6078453,9.56035327911377,1.0761387348175049,0.5068362355232239,21.133535385131836,-45.8595085144043, -17.48980712890625
615,3051027623,0.34231654,-0.5401879,-0.4774065,-0.6025774,9.773191452026367,0.3729541301727295,0.06265918165445328,28.092727661132812,-50.4986457824707, -19.38175392150879
616,3051044290,0.33880997,-0.5420363,-0.48553395,-0.5963737,9.564984321594238,0.6340199708938599,0.005813263356685638,35.206520080566406,-57.523170471191406, -22.81879997253418
617,3051060957,0.33474052,-0.54403067,-0.4947801,-0.5892132,9.70919132232666,0.24190311133861542,0.24084290862083435,40.56019592285156,-66.24176788330078, -26.654088973999023
618,3051077624,0.33048013,-0.5459383,-0.50566095,-0.58055276,10.24960708618164,1.4684340953826904,0.6763912439346313,51.783023834228516,-75.99840545654297, -30.475109100341797
619,3051094291,0.324449,-0.5495959,-0.51611286,-0.57123095,11.641316413879395,-1.3645892143249512,-0.0829804390668869,41.76322555541992,-90.75294494628906, -28.399341583251953
620,3051110958,0.31649923,-0.5543842,-0.5273528,-0.560701,11.6399564743042,-0.2602033317089081,-0.03798265755176544,39.37506866455078,-108.4232177734375, -32.352779388427734
621,3051127625,0.30571368,-0.5609531,-0.5377657,-0.5501627,12.558690071105957,0.8428300619125366,0.9800955653190613,21.53504180908203,-123.91085815429688, -33.76274108886719
622,3051144292,0.29227543,-0.56881416,-0.5478384,-0.53935003,13.676408767700195,1.165601372718811,1.1500160694122314,8.328471183776855,-139.1101837158203, -37.20476531982422
623,3051160959,0.27783686,-0.57694757,-0.5588371,-0.52691513,14.382173538208008,0.6854872107505798,1.5577118396759033,13.431147575378418,-152.279541015625, -40.3236198425293
624,3051177626,0.2643888,-0.58417046,-0.57204705,-0.51147413,15.22962474822998,-0.27663907408714294,2.303511142730713,38.67837142944336,-161.54515075683594, -43.36320877075195
625,3051194293,0.25315896,-0.59000766,-0.5876822,-0.49237302,16.54895782470703,-2.7788524627685547,4.780869483947754,73.04696655273438,-167.3333740234375, -44.239990234375
626,3051210960,0.2454915,-0.5948325,-0.6052629,-0.46857795,18.0398006439209,-4.1389336585998535,6.620587348937988,114.82184600830078,-172.34100341796875, -36.210426330566406
627,3051227627,0.23773119,-0.5994624,-0.6223087,-0.4436902,20.966907501220703,-2.8205959796905518,10.644721984863281,117.5839614868164,-176.16793823242188, -33.53285598754883
628,3051244294,0.22806376,-0.6037857,-0.63867193,-0.41896072,19.7353515625,1.4335116147994995,13.314656257629395,107.49488067626953,-182.31454467773438, -38.3119010925293
629,3051260961,0.21118128,-0.6099303,-0.65202093,-0.39781454,20.480972290039062,6.9855146408081055,5.911810398101807,50.377620697021484,-200.38494873046875, -44.27204895019531
630,3051277628,0.1952753,-0.61712885,-0.6630834,-0.37595245,22.391542434692383,1.536534309387207,10.320036888122559,50.048038482666016,-199.10536193847656, -26.188865661621094
631,3051294295,0.18627316,-0.62285626,-0.67082113,-0.35686353,17.352266311645508,0.1002698615193367,15.788002967834473,60.16114044189453,-148.29718017578125, -4.759678840637207
632,3051310962,0.18680431,-0.62221056,-0.6815875,-0.3367446,9.203634262084961,7.243189334869385,3.1694068908691406,121.44430541992188,-97.72811889648438, -22.443042755126953
633,3051327629,0.19024804,-0.6165789,-0.6961202,-0.31472716,10.602389335632324,16.60582733154297,-10.721667289733887,158.13128662109375,-85.7182388305664, -52.46065902709961
634,3051344296,0.18719001,-0.6161137,-0.6993946,-0.31017935,11.74007511138916,3.5891270637512207,3.114000082015991,16.140390396118164,-39.12114334106445, -16.510602951049805
635,3051360963,0.1903647,-0.61885935,-0.69381607,-0.31526813,4.872447967529297,-7.740126132965088,11.718460083007812,-26.735111236572266,35.945579528808594, 37.317901611328125
636,3051377630,0.20723745,-0.6181465,-0.6887435,-0.31714356,3.132077693939209,-1.6349400281906128,6.575397491455078,52.333045959472656,94.16118621826172, 52.40029525756836
637,3051394297,0.22484536,-0.6152329,-0.6815745,-0.32617378,4.4487175941467285,5.295470714569092,3.4226269721984863,24.192337036132812,137.500732421875, 33.05069351196289
638,3051410964,0.23802395,-0.6123058,-0.6683952,-0.34881818,4.368205547332764,3.102569341659546,2.76120924949646,-72.24395751953125,183.22622680664062, 29.604591369628906
639,3051427631,0.25412315,-0.60776055,-0.6513772,-0.3765055,5.008363246917725,-0.9349060654640198,3.075551748275757,-93.19532012939453,226.60775756835938, 44.28573989868164
640,3051444298,0.27263355,-0.60186833,-0.6300286,-0.40803137,6.11707067489624,0.8841143250465393,3.510343074798584,-109.23152160644531,264.46514892578125, 55.74892807006836
641,3051460965,0.29071274,-0.5951159,-0.6027022,-0.44505426,7.337840557098389,1.186542272567749,2.5878641605377197,-150.02835083007812,298.9190673828125, 65.1198959350586
642,3051477632,0.30989665,-0.5865281,-0.5703012,-0.48446405,8.845162391662598,0.5141302347183228,0.6555430293083191,-167.29440307617188,329.007080078125, 76.72777557373047
643,3051494299,0.33346346,-0.574262,-0.5345223,-0.5227919,11.825471878051758,-0.6442001461982727,-0.851043701171875,-153.00933837890625,359.9075622558594, 96.13334655761719
644,3051510966,0.36309445,-0.5577258,-0.4977839,-0.55616164,14.505584716796875,-1.3135457038879395,-1.5332841873168945,-105.59161376953125,380.0530090332031, 117.13341522216797
645,3051527633,0.39686227,-0.5370364,-0.4602556,-0.5850275,17.049463272094727,0.35815003514289856,-1.9586091041564941,-67.03272247314453,395.13104248046875, 132.03842163085938
646,3051544300,0.4306955,-0.5138008,-0.4207019,-0.611163,19.76944351196289,2.010971784591675,-2.966607093811035,-54.119361877441406,402.59173583984375, 136.5745086669922
647,3051560967,0.46246785,-0.48881024,-0.3810147,-0.6340472,22.570234298706055,3.558159112930298,-2.718538284301758,-47.39009094238281,393.1693115234375, 132.9700927734375
648,3051577634,0.49103475,-0.46191365,-0.3435223,-0.6538451,23.788755416870117,5.443553924560547,-2.161309003829956,-34.482940673828125,376.0563049316406, 116.54871368408203
649,3051594301,0.5131681,-0.4343978,-0.30857337,-0.6728594,23.062545776367188,9.385257720947266,-3.285506248474121,-39.60226058959961,352.9751892089844, 80.92060089111328
650,3051610968,0.5244769,-0.4159235,-0.2668596,-0.6933381,21.17755699157715,1.5526080131530762,-13.403468132019043,-138.4130859375,316.976318359375, 65.35663604736328
651,3051627635,0.54176384,-0.39805403,-0.23895071,-0.7006765,18.754858016967773,3.7858388423919678,-19.25267791748047,-33.54419708251953,238.55917358398438, 102.96989440917969
652,3051644302,0.54733545,-0.38921,-0.22561012,-0.70571923,6.283443450927734,12.732251167297363,-27.477500915527344,-25.29438591003418,116.30847930908203, 30.24212074279785
653,3051660969,0.5455202,-0.38730523,-0.2385275,-0.7039228,6.6006574630737305,13.467155456542969,-21.436813354492188,66.660888671875,-44.90434646606445, -38.93693161010742
654,3051677636,0.52825403,-0.40152776,-0.24885915,-0.7055442,11.753555297851562,12.820146560668945,-15.139264106750488,-53.322532653808594,-128.6875762939453, -92.7802963256836
655,3051694303,0.5055157,-0.42363706,-0.25964212,-0.70538753,14.22301197052002,1.4792003631591797,-11.437865257263184,-92.07771301269531,-182.188720703125, -100.17072296142578
656,3051710970,0.48437575,-0.44235116,-0.27050987,-0.7046491,19.335712432861328,-7.006508827209473,19.125064849853516,-74.16748046875,-164.28085327148438, -96.55670166015625
657,3051727637,0.4687457,-0.45384678,-0.28199503,-0.70340574,11.20726490020752,-10.26343059539795,10.000242233276367,-29.338315963745117,-123.01628112792969, -83.66075134277344
658,3051744304,0.4489492,-0.4687525,-0.2935136,-0.70183015,20.54904556274414,6.47816801071167,-11.716551780700684,-52.37895202636719,-148.97442626953125, -96.55252838134766
659,3051760971,0.4254832,-0.48385096,-0.30704924,-0.7004093,21.214017868041992,-2.850120782852173,0.2135101556777954,-55.50005340576172,-162.39193725585938, -120.57998657226562
660,3051777638,0.40940946,-0.4927072,-0.32739213,-0.69457763,9.87962532043457,1.3035446405410767,-1.0621145963668823,29.460922241210938,-151.11880493164062, -107.98809051513672
661,3051794305,0.39266205,-0.5006407,-0.34467632,-0.6901984,13.233625411987305,7.824201583862305,-4.9584832191467285,11.847274780273438,-134.6278839111328, -106.99728393554688
662,3051810972,0.3803824,-0.5065795,-0.35996592,-0.6849169,10.770318031311035,2.3277852535247803,-2.118063449859619,25.16660499572754,-112.06080627441406, -80.99758911132812
663,3051827639,0.37371582,-0.50928336,-0.37450683,-0.6787576,10.144400596618652,5.128567695617676,0.8520576357841492,51.78791809082031,-83.95197296142578, -57.669349670410156
664,3051844306,0.36859593,-0.51195174,-0.38442752,-0.67398673,11.328156471252441,0.1279670149087906,0.8337076902389526,32.12406539916992,-63.10813522338867, -37.85455322265625
665,3051860973,0.3657041,-0.51304257,-0.39518136,-0.6684907,11.568859100341797,1.914685606956482,1.1664875745773315,49.757293701171875,-54.61991882324219, -32.90060043334961
666,3051877640,0.36208686,-0.51491386,-0.40286568,-0.66442174,11.610251426696777,0.496175616979599,1.0045192241668701,27.256183624267578,-47.487178802490234, -26.92293357849121
667,3051894307,0.3601272,-0.5160162,-0.410869,-0.65971386,10.612154006958008,1.4928433895111084,0.9351367354393005,38.28313446044922,-42.50156021118164, -21.113271713256836
668,3051910974,0.35821086,-0.51756495,-0.4175841,-0.65531325,9.782853126525879,2.817392587661743,1.1488863229751587,30.634891510009766,-40.193359375, -15.902992248535156
669,3051927641,0.35726997,-0.5192527,-0.42388278,-0.65042925,9.14610481262207,2.266895294189453,1.524367094039917,33.28792953491211,-38.79360580444336, -8.443665504455566
670,3051944308,0.35693812,-0.52125907,-0.43026724,-0.6447903,9.392532348632812,2.64213490486145,2.4411494731903076,37.287261962890625,-41.44634246826172, -3.2677035331726074
671,3051960975,0.35680482,-0.5234022,-0.43719408,-0.63843733,9.00334644317627,2.1950602531433105,2.488701105117798,42.209449768066406,-45.482688903808594, -2.188993453979492
672,3051977642,0.35699192,-0.5249665,-0.44551787,-0.63125336,9.063926696777344,1.9254908561706543,1.2276113033294678,51.7396240234375,-49.05022048950195, -5.252593994140625
673,3051994309,0.35700533,-0.52620745,-0.45511144,-0.623319,9.225517272949219,0.978807270526886,0.5475783348083496,60.61770248413086,-53.81988525390625, -9.913590431213379
674,3052010976,0.35658956,-0.52703863,-0.4659445,-0.6147925,9.291264533996582,1.8811237812042236,1.4055180549621582,68.40194702148438,-58.300045013427734, -16.368541717529297
675,3052027643,0.35520783,-0.5277161,-0.47614405,-0.607149,9.605583190917969,2.6620655059814453,1.8517444133758545,59.46327209472656,-56.19479751586914, -20.783510208129883
676,3052044310,0.35296908,-0.5287165,-0.48514545,-0.60042113,9.4114990234375,2.722212076187134,1.801775336265564,47.58808517456055,-54.21943283081055, -21.207265853881836
677,3052060977,0.34960133,-0.5301959,-0.49352187,-0.59422845,9.061100959777832,1.8101491928100586,1.3451555967330933,37.98027038574219,-56.62009811401367, -23.30301284790039
678,3052077644,0.3459365,-0.531591,-0.50285554,-0.5872609,8.707036018371582,1.4673947095870972,1.101588249206543,43.660213470458984,-62.516197204589844, -26.46245765686035
679,3052094311,0.34055322,-0.5341154,-0.5119867,-0.5801844,9.646068572998047,0.3685252070426941,0.17326712608337402,34.270694732666016,-73.03521728515625, -28.536563873291016
680,3052110978,0.33390787,-0.53767616,-0.5217356,-0.5720157,11.012421607971191,0.4447809159755707,0.8165944218635559,33.52777862548828,-87.14718627929688, -29.71280860900879
681,3052127645,0.3252428,-0.54250175,-0.53225774,-0.56268203,11.145676612854004,0.251491904258728,0.9194658994674683,30.392812728881836,-105.56124114990234, -33.388938903808594
682,3052144312,0.31393713,-0.5489391,-0.54317665,-0.55233014,10.932319641113281,0.8409494757652283,1.1717419624328613,22.21419334411621,-126.27230072021484, -36.998992919921875
683,3052160979,0.29999033,-0.55677766,-0.55392605,-0.5414523,12.399555206298828,1.085860013961792,1.28409743309021,10.558477401733398,-143.2211456298828, -40.089229583740234
684,3052177646,0.2842498,-0.56570834,-0.56483644,-0.52927876,14.112458229064941,1.2770287990570068,1.0600576400756836,6.992929935455322,-159.58021545410156, -40.6243896484375
685,3052194313,0.26860383,-0.5743985,-0.57700646,-0.51476425,15.399435043334961,0.556225061416626,1.7413837909698486,21.525859832763672,-170.09573364257812, -41.62387466430664
686,3052210980,0.25452676,-0.5817705,-0.5914355,-0.49695408,16.576250076293945,-1.1546586751937866,2.0002567768096924,51.246070861816406,-176.64111328125, -44.25998306274414
687,3052227647,0.24421456,-0.5874215,-0.6082535,-0.47468203,17.735355377197266,-5.610423564910889,5.473782539367676,95.62705993652344,-177.77659606933594, -40.32587432861328
688,3052244314,0.23676853,-0.592277,-0.6263113,-0.4481996,20.596399307250977,-3.583733081817627,5.812427520751953,130.1629638671875,-182.74478149414062, -32.53905487060547
689,3052260981,0.22911786,-0.59658116,-0.6435666,-0.42121026,21.030298233032227,-3.3864808082580566,13.57646369934082,129.91285705566406,-183.2285614013672, -31.684152603149414
690,3052277648,0.2147853,-0.60206324,-0.65781045,-0.39833736,19.310916900634766,5.38785457611084,10.366724014282227,73.7433090209961,-195.3747100830078, -40.16233444213867
