PacketCounter,SampleTimeFine,Quat_W,Quat_X,Quat_Y,Quat_Z,Acc_X,Acc_Y,Acc_Z,Gyr_X,Gyr_Y,Gyr_Z 
1,1208399431,0.17400005,0.012651792,0.14892337,-0.97333753,0.021491535007953644,-0.14669422805309296,0.12438645958900452,-0.04050847515463829,-0.061180759221315384, -0.22668343782424927
2,1208416098,0.17419212,0.012506614,0.14974502,-0.97317904,-0.7081027030944824,-2.8428726196289062,9.165749549865723,0.00784388929605484,-0.8404679298400879, 1.5975345373153687
3,1208432765,0.17424236,0.01205522,0.15039466,-0.97307545,-0.6590124368667603,-2.951723337173462,9.24523639678955,1.41135573387146,-1.5715439319610596, 1.5899275541305542
4,1208449432,0.17429607,0.01131626,0.15110806,-0.9729642,-0.7593819499015808,-2.8799266815185547,9.205217361450195,2.033872365951538,-1.331181526184082, 1.4960824251174927
5,1208466099,0.17415763,0.01090942,0.15120208,-0.97297907,-0.7330565452575684,-3.063688278198242,9.224828720092773,4.260538578033447,-2.615658760070801, 1.5512781143188477
6,1208482766,0.17414787,0.010591065,0.15140475,-0.9729527,-0.7503811717033386,-2.8968212604522705,9.193142890930176,5.088545322418213,-2.279542922973633, 1.6357998847961426
7,1208499433,0.17414202,0.010360995,0.15137781,-0.9729606,-0.6743670701980591,-2.6101131439208984,9.19957160949707,4.792731761932373,-2.5267953872680664, 1.5435428619384766
8,1208516100,0.17407733,0.010097551,0.15090126,-0.9730487,-0.6386431455612183,-2.633272647857666,9.13714599609375,3.9385483264923096,-2.9301187992095947, 1.489730715751648
9,1208532767,0.17407069,0.009797779,0.15037052,-0.97313523,-0.5959749221801758,-2.5411250591278076,9.182608604431152,2.7514891624450684,-2.807689905166626, 1.6022857427597046
10,1208549434,0.17406245,0.0094447415,0.14976904,-0.9732329,-0.5857055187225342,-2.7087087631225586,9.286730766296387,1.8457472324371338,-2.816462278366089, 1.5333106517791748
11,1208566101,0.17423315,0.008965801,0.14875093,-0.9733631,-0.6658101081848145,-3.214564323425293,9.393884658813477,4.6048502922058105,-3.8945906162261963, 2.0083367824554443
12,1208582768,0.17424469,0.008541363,0.14682907,-0.97365654,-0.6958125233650208,-3.3223776817321777,9.104443550109863,12.918048858642578,-4.82539701461792, 1.4237276315689087
13,1208599435,0.1742968,0.0080028,0.14519043,-0.9738977,-0.6559529304504395,-2.7493019104003906,9.155586242675781,12.885598182678223,-5.381655216217041, 0.709286630153656
14,1208616102,0.1741859,0.0075392853,0.14391316,-0.9741107,-0.611826479434967,-2.5866997241973877,9.381635665893555,10.040777206420898,-4.753321647644043, 0.6896029710769653
15,1208632769,0.17422129,0.006952272,0.14306633,-0.9742334,-0.6231124401092529,-2.2530128955841064,9.166450500488281,6.145889759063721,-4.996551990509033, 0.8704541325569153
16,1208649436,0.1743427,0.0063558538,0.14273459,-0.9742644,-0.568494975566864,-2.2303647994995117,9.04049301147461,1.4761303663253784,-4.612539768218994, 1.41591477394104
17,1208666103,0.17451844,0.005848472,0.14245248,-0.9742774,-0.4530981481075287,-2.411332845687866,9.420953750610352,0.49175751209259033,-4.097609996795654, 2.1421377658843994
18,1208682770,0.17489699,0.0052511054,0.14178899,-0.97430974,-0.5522411465644836,-2.4067728519439697,9.264419555664062,2.650588035583496,-4.8349738121032715, 2.376647710800171
19,1208699437,0.1751792,0.0045835744,0.14136916,-0.9743234,-0.49180930852890015,-2.273674964904785,8.9716215133667,0.7201331257820129,-5.048288345336914, 2.0011394023895264
20,1208716104,0.17548929,0.0037946454,0.1411897,-0.974297,-0.5226812958717346,-2.9187440872192383,9.239788055419922,-1.2417166233062744,-5.5556511878967285, 1.9996155500411987
21,1208732771,0.17579357,0.003021144,0.14067963,-0.9743186,-0.6077843308448792,-2.961361885070801,9.215481758117676,1.613926887512207,-5.9122443199157715, 2.079885959625244
22,1208749438,0.17595637,0.0021499034,0.14040506,-0.97433126,-0.6245790123939514,-2.5984842777252197,8.96549129486084,0.38006049394607544,-6.476466655731201, 1.7151097059249878
23,1208766105,0.17605229,0.0012894034,0.14060144,-0.97428703,-0.5449360609054565,-2.418485641479492,9.110923767089844,-2.754774570465088,-6.147062301635742, 2.084599018096924
24,1208782772,0.17641017,0.00047948406,0.14098397,-0.9741678,-0.5116121768951416,-2.285884380340576,9.109903335571289,-4.033181667327881,-5.340428829193115, 2.025625705718994
25,1208799439,0.17666653,-0.00016189806,0.14127764,-0.97407883,-0.4768856167793274,-2.3489248752593994,9.06205940246582,-3.4423341751098633,-4.388262748718262, 1.9410008192062378
26,1208816106,0.17703052,-0.00062433217,0.14152181,-0.9739771,-0.32495421171188354,-2.515261173248291,9.184022903442383,-2.988182306289673,-3.191495895385742, 2.2597765922546387
27,1208832773,0.17725047,-0.0009768668,0.1415884,-0.9739271,-0.36238908767700195,-2.7665343284606934,9.141621589660645,-1.6649537086486816,-2.715574264526367, 2.3667099475860596
28,1208849440,0.1776841,-0.001217523,0.14158472,-0.9738484,-0.4775872230529785,-2.658831834793091,8.848820686340332,-0.8184025287628174,-1.683996558189392, 2.141458511352539
29,1208866107,0.17788662,-0.0012640388,0.14179738,-0.9737804,-0.45728105306625366,-2.651798725128174,8.94761848449707,-1.9567461013793945,-0.3043428957462311, 2.049483299255371
30,1208882774,0.17802612,-0.0010850992,0.14201349,-0.97372365,-0.36789289116859436,-2.690365791320801,9.148496627807617,-1.6146631240844727,1.2144709825515747, 1.957021713256836
31,1208899441,0.1782518,-0.00083691766,0.1421738,-0.9736593,-0.38329118490219116,-2.7030436992645264,9.192822456359863,-1.0672554969787598,1.7727059125900269, 1.8953526020050049
32,1208916108,0.17855978,-0.0006003318,0.14253658,-0.9735501,-0.36163851618766785,-2.85052752494812,9.201679229736328,-2.416020631790161,1.976807713508606, 2.196500539779663
33,1208932775,0.17881538,-0.00044819288,0.1430024,-0.97343475,-0.41684749722480774,-2.928063154220581,9.179769515991211,-3.1275665760040283,1.516329288482666, 2.1561472415924072
34,1208949442,0.17903943,-0.00044424948,0.14347076,-0.9733246,-0.5197826623916626,-3.028810501098633,9.240035057067871,-3.21774959564209,0.45805123448371887, 2.1726937294006348
35,1208966109,0.17928313,-0.0006366779,0.14388928,-0.97321796,-0.5962380170822144,-2.9228708744049072,9.03239917755127,-2.9834182262420654,-0.9495139122009277, 2.026931047439575
36,1208982776,0.17957944,-0.0009775177,0.14445987,-0.9730784,-0.5626930594444275,-2.6277081966400146,8.952899932861328,-4.106471061706543,-1.7799162864685059, 1.94822359085083
37,1208999443,0.17981327,-0.0013290768,0.1452201,-0.97292167,-0.5027862191200256,-2.5122313499450684,9.17624282836914,-5.448807716369629,-1.7107493877410889, 1.905194640159607
38,1209016110,0.17997102,-0.0015285697,0.14567174,-0.97282475,-0.39608028531074524,-2.495455503463745,9.2906494140625,-3.2359983921051025,-1.0775903463363647, 1.6745264530181885
39,1209032777,0.18013631,-0.001579953,0.14571482,-0.9727876,-0.2843574583530426,-2.3122568130493164,9.16373348236084,-0.3358849287033081,-0.45208975672721863, 1.378814935684204
40,1209049444,0.18029916,-0.0014406294,0.14564186,-0.97276866,-0.26151949167251587,-2.2957801818847656,9.055275917053223,0.5600664615631104,0.718019962310791, 1.5939358472824097
41,1209066111,0.18044879,-0.0011340189,0.14545739,-0.9727688,-0.3221202492713928,-2.4035701751708984,9.016586303710938,1.428529143333435,1.7988632917404175, 1.5357697010040283
42,1209082778,0.1806163,-0.0006437258,0.14534682,-0.97275466,-0.4001058340072632,-2.4129080772399902,8.951114654541016,1.107627511024475,3.2506039142608643, 1.4505305290222168
43,1209099445,0.1806819,-0.0000052703417,0.14563099,-0.9727002,-0.4342923164367676,-2.326136350631714,8.797319412231445,-1.4493331909179688,4.756144046783447, 1.2511612176895142
44,1209116112,0.18070495,0.00072146585,0.14668547,-0.97253716,-0.4541037380695343,-2.4229116439819336,8.881979942321777,-6.650749683380127,6.340534210205078, 1.1868352890014648
45,1209132779,0.18084382,0.0015279783,0.14814302,-0.97228956,-0.5024375915527344,-2.793274402618408,9.046568870544434,-9.346551895141602,7.333296775817871, 1.876009464263916
46,1209149446,0.18096963,0.0022861524,0.14906105,-0.9721243,-0.6012079119682312,-3.271454095840454,9.134821891784668,-5.685969829559326,6.268370628356934, 1.8937203884124756
47,1209166113,0.18103288,0.0031774442,0.14940083,-0.9720579,-0.5839095711708069,-3.152573347091675,9.052024841308594,-1.4225422143936157,6.445762634277344, 1.6020808219909668
48,1209182780,0.1812976,0.004110536,0.14981553,-0.97194135,-0.5651760101318359,-3.055513381958008,9.280314445495605,-1.7417281866073608,6.996501445770264, 1.7331798076629639
49,1209199447,0.18135582,0.0051641213,0.15051702,-0.9718169,-0.5327804088592529,-2.967374801635742,9.141834259033203,-3.5317740440368652,8.003785133361816, 1.6830300092697144
50,1209216114,0.18148099,0.006253098,0.15131031,-0.9716639,-0.5043380260467529,-2.9328033924102783,9.026646614074707,-4.0344743728637695,8.559017181396484, 1.3329683542251587
51,1209232781,0.18140706,0.0074849813,0.15203089,-0.97155654,-0.5046789050102234,-2.7484130859375,9.103203773498535,-3.353574514389038,9.321930885314941, 1.1518995761871338
52,1209249448,0.18180759,0.008682183,0.15268952,-0.97136843,-0.5363231301307678,-2.822364091873169,9.124945640563965,-2.8913416862487793,9.413111686706543, 1.54564368724823
53,1209266115,0.18180992,0.009909354,0.15309057,-0.9712931,-0.581324577331543,-2.969738006591797,9.157563209533691,-1.2075109481811523,8.827770233154297, 1.6936849355697632
54,1209282782,0.18204655,0.011030237,0.15341213,-0.9711861,-0.6080145239830017,-3.111084222793579,9.21588134765625,-0.7248907089233398,8.214678764343262, 1.806880235671997
55,1209299449,0.18238682,0.012057018,0.1537026,-0.971064,-0.7054423689842224,-3.0577497482299805,9.350918769836426,-0.5599449872970581,7.655336856842041, 1.760764718055725
56,1209316116,0.1826703,0.012959668,0.15394354,-0.9709609,-0.7449853420257568,-3.0185911655426025,9.317597389221191,-0.379657119512558,6.6546735763549805, 1.7754790782928467
57,1209332783,0.18301785,0.013698562,0.15423472,-0.97083914,-0.7331210374832153,-2.8949642181396484,9.208091735839844,-0.8656452894210815,5.778437614440918, 1.322966456413269
58,1209349450,0.18322824,0.014333846,0.15455359,-0.97073954,-0.736257016658783,-2.849790334701538,9.203886032104492,-1.2489137649536133,4.8846306800842285, 1.4954426288604736
59,1209366117,0.1835261,0.014793437,0.15465854,-0.9706598,-0.7268996834754944,-2.873415946960449,9.163712501525879,0.009406264871358871,3.5071792602539062, 1.3763176202774048
60,1209382784,0.18387298,0.015131139,0.15464824,-0.9705905,-0.7245079874992371,-2.8690781593322754,9.192389488220215,0.6514397859573364,2.5675768852233887, 1.3521519899368286
61,1209399451,0.18419984,0.015364087,0.15464045,-0.9705261,-0.7542030215263367,-2.882340669631958,9.174878120422363,0.4843553602695465,1.8193916082382202, 1.3509225845336914
62,1209416118,0.18443787,0.015519414,0.15465514,-0.970476,-0.7718693614006042,-3.000912666320801,9.174410820007324,0.1947525441646576,1.1983861923217773, 1.3856662511825562
63,1209432785,0.18474044,0.015589622,0.15461768,-0.97042334,-0.7512118220329285,-2.993321180343628,9.119561195373535,0.4764794409275055,0.6117401123046875, 1.3598229885101318
64,1209449452,0.18504207,0.015630193,0.15456901,-0.97037303,-0.7253474593162537,-2.8828697204589844,9.079160690307617,0.5384237766265869,0.42390936613082886, 1.2512507438659668
65,1209466119,0.18525667,0.015701585,0.15459819,-0.9703262,-0.7341708540916443,-2.7870676517486572,9.047148704528809,0.018447548151016235,0.6390817165374756, 1.2941776514053345
66,1209482786,0.18551783,0.015802171,0.15465584,-0.97026545,-0.7253223061561584,-2.8256335258483887,9.027331352233887,-0.15714670717716217,0.8425489068031311, 1.593436360359192
67,1209499453,0.18578717,0.015923217,0.15468414,-0.97020745,-0.7812521457672119,-2.925665855407715,9.06328296661377,0.07555104792118073,0.9688065052032471, 1.5707945823669434
68,1209516120,0.18629009,0.016044034,0.15468979,-0.9701082,-0.7723252177238464,-2.9207799434661865,9.063714981079102,0.3071538805961609,1.1603769063949585, 1.671478271484375
69,1209532787,0.18656175,0.016211864,0.15479727,-0.970036,-0.7467038035392761,-2.8932929039001465,9.02554702758789,-0.38298672437667847,1.4026987552642822, 1.5731768608093262
70,1209549454,0.18695791,0.016398292,0.15492184,-0.96993667,-0.7522521018981934,-2.9450361728668213,9.089465141296387,-0.42987075448036194,1.6873455047607422, 1.598751187324524
71,1209566121,0.1872059,0.016642349,0.15500244,-0.9698719,-0.7686251401901245,-2.942690849304199,9.122651100158691,-0.09967181831598282,1.8504983186721802, 1.6707611083984375
72,1209582788,0.18779938,0.01681038,0.15498321,-0.96975726,-0.7730733752250671,-2.9245376586914062,9.061544418334961,0.5966799259185791,1.542134165763855, 1.754591703414917
73,1209599455,0.18810688,0.017023828,0.1549372,-0.9697013,-0.761990487575531,-2.926485538482666,9.096772193908691,0.7641229033470154,1.5547231435775757, 1.617346167564392
74,1209616122,0.18856908,0.01721763,0.15492885,-0.9696095,-0.7641554474830627,-2.9354515075683594,9.104105949401855,0.5402422547340393,1.6436116695404053, 1.6136960983276367
75,1209632789,0.1888493,0.017416278,0.15493238,-0.9695507,-0.7833659648895264,-2.946359634399414,9.066561698913574,0.41821062564849854,1.5261391401290894, 1.5219001770019531
76,1209649456,0.18946455,0.017543584,0.1549748,-0.9694217,-0.7684409618377686,-2.949939727783203,9.104897499084473,0.18318842351436615,1.4623889923095703, 1.4791653156280518
77,1209666123,0.18987153,0.017676063,0.15497339,-0.9693399,-0.7819765210151672,-2.9508471488952637,9.080403327941895,0.41685307025909424,1.1851186752319336, 1.579541563987732
78,1209682790,0.19015393,0.01779974,0.15494029,-0.9692875,-0.7905233502388,-2.9322304725646973,9.08773422241211,0.596321165561676,0.9839181303977966, 1.4627985954284668
79,1209699457,0.19047332,0.017909912,0.15490846,-0.96922785,-0.7859811186790466,-2.9433579444885254,9.08111572265625,0.5805181860923767,0.9124971628189087, 1.5339893102645874
80,1209716124,0.1907439,0.018028073,0.15490998,-0.9691722,-0.7829741835594177,-2.9086196422576904,9.074787139892578,0.36494889855384827,1.0015654563903809, 1.4100110530853271
81,1209732791,0.19111255,0.018147558,0.15496373,-0.9690888,-0.7835568785667419,-2.914245128631592,9.103580474853516,0.035825762897729874,1.1489536762237549, 1.5557985305786133
82,1209749458,0.19138356,0.018263848,0.15504731,-0.96901983,-0.7837375402450562,-2.8979289531707764,9.076044082641602,-0.19578346610069275,1.0883539915084839, 1.4810991287231445
83,1209766125,0.19164188,0.018392693,0.15519863,-0.968942,-0.7914619445800781,-2.883519411087036,9.064183235168457,-0.653789758682251,1.220682144165039, 1.6082663536071777
84,1209782792,0.19197494,0.018482668,0.15535943,-0.96884865,-0.8209822177886963,-2.894148111343384,9.071931838989258,-0.7365443110466003,1.0721538066864014, 1.5283160209655762
85,1209799459,0.19221964,0.018586142,0.15546912,-0.96878046,-0.8172376751899719,-2.9418752193450928,9.064719200134277,-0.3918871283531189,1.0232594013214111, 1.4596613645553589
86,1209816126,0.19250657,0.01867531,0.15553473,-0.96871126,-0.8407979607582092,-2.9889230728149414,9.037568092346191,-0.10909728705883026,0.8592100143432617, 1.6241459846496582
87,1209832793,0.19279608,0.018776016,0.15555912,-0.96864784,-0.8052459359169006,-2.9724392890930176,9.089585304260254,0.21876448392868042,0.9405816197395325, 1.4525794982910156
88,1209849460,0.19308662,0.018872252,0.15556943,-0.96858644,-0.7855472564697266,-2.957824945449829,9.077605247497559,0.30641117691993713,0.862847089767456, 1.5585392713546753
89,1209866127,0.19347276,0.018963935,0.15559748,-0.96850306,-0.7894504070281982,-2.9202287197113037,9.09206771850586,0.23041827976703644,0.9900525808334351, 1.4856839179992676
90,1209882794,0.19373971,0.019056678,0.15564573,-0.9684401,-0.8016546368598938,-2.9135656356811523,9.093017578125,0.04381692409515381,0.8744239211082458, 1.569488525390625
91,1209899461,0.19399157,0.019146355,0.15563816,-0.9683892,-0.8345288634300232,-2.9248569011688232,9.067245483398438,0.4206053614616394,0.7717170715332031, 1.5480636358261108
92,1209916128,0.19433206,0.019198732,0.15563601,-0.9683203,-0.8326917886734009,-2.9286773204803467,9.03972053527832,0.3649873733520508,0.6099600791931152, 1.5733050107955933
93,1209932795,0.19467063,0.019251417,0.15565549,-0.968248,-0.8018038868904114,-2.9413394927978516,9.05029010772705,0.21602390706539154,0.6234835386276245, 1.6354924440383911
94,1209949462,0.1949919,0.019327149,0.1556698,-0.9681795,-0.7910640239715576,-3.022824764251709,9.08715534210205,0.27937689423561096,0.7507144808769226, 1.6789186000823975
95,1209966129,0.19533403,0.019401511,0.15568118,-0.9681072,-0.8387264013290405,-2.9649596214294434,9.073920249938965,0.3377866744995117,0.8228656649589539, 1.501051425933838
96,1209982796,0.19565961,0.019475754,0.15569675,-0.9680375,-0.8266488313674927,-2.9376213550567627,9.04782485961914,0.316220760345459,0.8347498774528503, 1.4288620948791504
97,1209999463,0.1959829,0.01956012,0.15572931,-0.9679651,-0.794164776802063,-2.9356846809387207,9.054431915283203,0.21753506362438202,0.9256622791290283, 1.4433461427688599
98,1210016130,0.19625421,0.019637182,0.15572992,-0.96790856,-0.7924864888191223,-2.923621654510498,9.05807876586914,0.408657044172287,0.7744448184967041, 1.4612493515014648
99,1210032797,0.19651617,0.019720985,0.15571423,-0.9678562,-0.8021596670150757,-2.913989782333374,9.088647842407227,0.5302661657333374,0.7925273776054382, 1.473825216293335
100,1210049464,0.19683932,0.019795526,0.15571076,-0.9677897,-0.8266592621803284,-2.9808812141418457,9.104050636291504,0.4538250267505646,0.8009411692619324, 1.5323117971420288
101,1210066131,0.19712949,0.019866271,0.1556882,-0.9677327,-0.8565037846565247,-3.0192649364471436,9.056853294372559,0.5632039904594421,0.6895386576652527, 1.6197279691696167
102,1210082798,0.19738397,0.019933539,0.15566756,-0.9676829,-0.8303123712539673,-3.0119075775146484,9.053177833557129,0.5524082779884338,0.6602633595466614, 1.525959849357605
103,1210099465,0.19766793,0.01997522,0.15566687,-0.9676241,-0.8357815742492676,-2.957998275756836,9.062356948852539,0.41903015971183777,0.5933501720428467, 1.376112699508667
104,1210116132,0.19796324,0.020052522,0.15561983,-0.9675697,-0.8277552127838135,-2.935828685760498,9.092011451721191,0.8022090196609497,0.8035024404525757, 1.3469783067703247
105,1210132799,0.19825566,0.020106068,0.15552723,-0.9675235,-0.7977023720741272,-2.9012997150421143,9.059348106384277,1.0919911861419678,0.6062206625938416, 1.2465254068374634
106,1210149466,0.19848219,0.020158201,0.15541443,-0.96749413,-0.8076596260070801,-2.925786018371582,9.056123733520508,1.193724513053894,0.47313693165779114, 1.3437892198562622
107,1210166133,0.19871442,0.02021051,0.15531231,-0.96746176,-0.7991241216659546,-2.9192662239074707,9.044093132019043,1.1256331205368042,0.49663659930229187, 1.3641643524169922
108,1210182800,0.19899672,0.020263636,0.15522829,-0.96741617,-0.8334125280380249,-2.9581100940704346,9.068050384521484,1.0214918851852417,0.5690948367118835, 1.4341509342193604
109,1210199467,0.1992523,0.02033112,0.15517698,-0.9673704,-0.8503624796867371,-3.010770797729492,9.03865909576416,0.8084327578544617,0.6722372770309448, 1.4973503351211548
110,1210216134,0.19951026,0.020387257,0.15513007,-0.96732354,-0.8547313213348389,-2.973332643508911,9.05500602722168,0.787225604057312,0.6411051750183105, 1.3835147619247437
111,1210232801,0.19977699,0.020439608,0.15509333,-0.96727335,-0.8257803320884705,-2.9317426681518555,9.069870948791504,0.7257166504859924,0.6420528292655945, 1.3846162557601929
112,1210249468,0.20002723,0.020483898,0.15505771,-0.9672263,-0.7974840402603149,-2.9027280807495117,9.057125091552734,0.709926426410675,0.5854742527008057, 1.3529332876205444
113,1210266135,0.20032538,0.020531408,0.15504593,-0.9671656,-0.7867087721824646,-2.9043943881988525,9.064629554748535,0.5710287094116211,0.6906528472900391, 1.391288161277771
114,1210282802,0.20066491,0.020598944,0.15506425,-0.9670907,-0.8030869960784912,-2.9251925945281982,9.081064224243164,0.4028173089027405,0.8918405175209045, 1.5100927352905273
115,1210299469,0.20095369,0.020686751,0.15507731,-0.9670268,-0.8310450315475464,-2.944960355758667,9.072122573852539,0.44591060280799866,0.9569863677024841, 1.580220103263855
116,1210316136,0.20120567,0.020763835,0.15507908,-0.9669724,-0.8605555891990662,-2.975543975830078,9.000288963317871,0.5071762800216675,0.8615792989730835, 1.483980655670166
117,1210332803,0.20150937,0.020825949,0.15510169,-0.9669043,-0.8467385172843933,-2.987131357192993,9.018020629882812,0.3623236417770386,0.8080742359161377, 1.6120439767837524
118,1210349470,0.20179358,0.02090229,0.15511364,-0.9668414,-0.8277636170387268,-2.95919132232666,9.060317993164062,0.47062692046165466,0.9059532284736633, 1.5138448476791382
119,1210366137,0.20204566,0.020993507,0.15513453,-0.96678346,-0.8262510895729065,-2.9369285106658936,9.064151763916016,0.4261761009693146,0.9934588074684143, 1.5184040069580078
120,1210382804,0.20234933,0.021076653,0.15516643,-0.966713,-0.841602623462677,-2.926848888397217,9.07729434967041,0.3673180639743805,1.0239635705947876, 1.4928679466247559
121,1210399471,0.2026271,0.02118193,0.15519899,-0.96664727,-0.8330643177032471,-2.951090097427368,9.057534217834473,0.38677093386650085,1.1463924646377563, 1.5294559001922607
122,1210416138,0.20285594,0.021301588,0.15523256,-0.96659124,-0.8581241369247437,-2.939598798751831,9.062296867370605,0.39501821994781494,1.2196063995361328, 1.4723652601242065
123,1210432805,0.2030974,0.021411585,0.15526377,-0.9665332,-0.8357909321784973,-2.950806140899658,9.08887767791748,0.4090283513069153,1.168944239616394, 1.4684077501296997
124,1210449472,0.20335583,0.021494867,0.15530244,-0.9664708,-0.8497090339660645,-2.987428665161133,9.042211532592773,0.32783615589141846,1.0126428604125977, 1.4882962703704834
125,1210466139,0.20361724,0.021568473,0.1553139,-0.9664122,-0.8578800559043884,-3.004563570022583,9.05474853515625,0.5049735307693481,0.8990505337715149, 1.541839599609375
126,1210482806,0.203894,0.02163921,0.15533303,-0.9663492,-0.8804052472114563,-2.9445459842681885,9.075249671936035,0.46960240602493286,0.9240997433662415, 1.5043299198150635
127,1210499473,0.20414664,0.021697924,0.15535581,-0.96629083,-0.8530201315879822,-2.970996618270874,9.09908390045166,0.42759764194488525,0.8382973670959473, 1.4568952322006226
128,1210516140,0.20443298,0.021755463,0.15539156,-0.9662233,-0.8439847826957703,-2.9314212799072266,9.064493179321289,0.3711472153663635,0.9270196557044983, 1.3429186344146729
129,1210532807,0.20468669,0.021813063,0.15541194,-0.966165,-0.8561233878135681,-2.9183905124664307,9.042287826538086,0.4573340117931366,0.8462756276130676, 1.442564845085144
130,1210549474,0.20489442,0.02188108,0.15542485,-0.9661174,-0.8602684736251831,-2.942279100418091,9.057827949523926,0.5176134705543518,0.8854503035545349, 1.3738973140716553
131,1210566141,0.20519699,0.021933805,0.15542011,-0.9660527,-0.8389685750007629,-2.9863481521606445,9.071024894714355,0.6559861302375793,0.8466854691505432, 1.4250458478927612
132,1210582808,0.20550558,0.021985305,0.15542798,-0.9659847,-0.8396094441413879,-2.9942264556884766,9.033827781677246,0.5580814480781555,0.8142468929290771, 1.6108914613723755
133,1210599475,0.20578106,0.022054883,0.15544821,-0.9659213,-0.8571749329566956,-2.966182231903076,9.021930694580078,0.4989737570285797,0.9365795850753784, 1.5901260375976562
134,1210616142,0.20600429,0.022108983,0.15550636,-0.965863,-0.9090379476547241,-2.9582736492156982,9.039641380310059,0.2079431116580963,0.8465189933776855, 1.5469495058059692
135,1210632809,0.20625608,0.0221458,0.15552679,-0.9658052,-0.9120937585830688,-2.965737819671631,9.074114799499512,0.46942317485809326,0.7355520129203796, 1.4471625089645386
136,1210649476,0.20649588,0.02215316,0.15551151,-0.9657562,-0.8662490844726562,-2.9568750858306885,9.0665283203125,0.6771677732467651,0.48703187704086304, 1.3830024003982544
137,1210666143,0.20678528,0.022134395,0.15549491,-0.9656974,-0.8803783059120178,-2.9000964164733887,9.098264694213867,0.6745296716690063,0.3633737862110138, 1.3829128742218018
138,1210682810,0.20697898,0.02211984,0.15545721,-0.96566224,-0.8732027411460876,-2.958911895751953,9.065932273864746,0.7778640389442444,0.24389052391052246, 1.445728063583374
139,1210699477,0.20728661,0.022092814,0.15534392,-0.96561515,-0.8801784515380859,-2.9695661067962646,9.069454193115234,1.345339059829712,0.2197505533695221, 1.2996203899383545
140,1210716144,0.2075143,0.022061381,0.15519239,-0.96559125,-0.864838719367981,-3.02390456199646,9.03147029876709,1.568912148475647,0.04020553082227707, 1.3351963758468628
141,1210732811,0.20775682,0.022014346,0.1550599,-0.96556145,-0.8470832705497742,-2.9955379962921143,9.047164916992188,1.4414889812469482,0.0000704349295119755, 1.2751985788345337
142,1210749478,0.20798932,0.021991959,0.15498033,-0.9655247,-0.846242368221283,-2.9752323627471924,9.061549186706543,1.1222013235092163,0.24141894280910492, 1.292205572128296
143,1210766145,0.20818669,0.021971367,0.15493493,-0.96549,-0.8504380583763123,-2.944445848464966,9.088091850280762,0.8997933268547058,0.31494012475013733, 1.1575978994369507
144,1210782812,0.20838785,0.021959033,0.15487948,-0.96545565,-0.8648656606674194,-2.951002359390259,9.055766105651855,0.9810879826545715,0.34892818331718445, 1.2228718996047974
145,1210799479,0.20860825,0.02192578,0.15481378,-0.9654195,-0.8637511730194092,-2.930325508117676,9.045645713806152,1.0357327461242676,0.21896938979625702, 1.208528995513916
146,1210816146,0.20885615,0.02190138,0.15476884,-0.9653736,-0.8508185148239136,-2.905630111694336,9.059670448303223,0.9112166166305542,0.30884432792663574, 1.3338388204574585
147,1210832813,0.2090961,0.021874076,0.15475206,-0.96532494,-0.8492403626441956,-2.948843240737915,9.062366485595703,0.7156636118888855,0.3307431936264038, 1.3265392780303955
148,1210849480,0.20936775,0.02185682,0.15474805,-0.9652672,-0.8400549292564392,-2.958627939224243,9.058233261108398,0.6411179304122925,0.39638856053352356, 1.5381003618240356
149,1210866147,0.20961167,0.02185511,0.15474495,-0.9652148,-0.8555597066879272,-2.9563210010528564,9.044468879699707,0.6506458520889282,0.4769149124622345, 1.5600248575210571
150,1210882814,0.20985703,0.02186026,0.15475602,-0.9651595,-0.8804712891578674,-2.9270167350769043,9.029117584228516,0.5792760848999023,0.5686596035957336, 1.5102721452713013
151,1210899481,0.21007453,0.021874823,0.15478526,-0.96510714,-0.8836968541145325,-2.931408643722534,9.039161682128906,0.4703964591026306,0.6541803479194641, 1.4495571851730347
152,1210916148,0.21030316,0.021881545,0.15480964,-0.9650533,-0.8715085983276367,-2.971668004989624,9.075486183166504,0.4893242120742798,0.5761128067970276, 1.5560930967330933
153,1210932815,0.21058212,0.021886438,0.15482277,-0.9649902,-0.8684495091438293,-2.9519684314727783,9.08609676361084,0.5881892442703247,0.5971793532371521, 1.58614981174469
154,1210949482,0.21071665,0.02189813,0.15484479,-0.96495706,-0.8593147397041321,-2.9197959899902344,9.052653312683105,0.4943315386772156,0.5367461442947388, 1.4895769357681274
155,1210966149,0.21094486,0.021891836,0.15489408,-0.9648995,-0.8258015513420105,-2.956667900085449,9.060401916503906,0.3205237090587616,0.5474265813827515, 1.5289947986602783
156,1210982816,0.21120235,0.021876378,0.15491185,-0.9648407,-0.8610072135925293,-2.977835178375244,9.062326431274414,0.5398581027984619,0.473149836063385, 1.5374855995178223
157,1210999483,0.21151045,0.021854253,0.15493079,-0.96477056,-0.8661555051803589,-2.9728803634643555,9.062458038330078,0.5531767010688782,0.4938064515590668, 1.5232961177825928
158,1211016150,0.21172766,0.021842262,0.15495434,-0.9647194,-0.8824014663696289,-2.958193302154541,9.071599006652832,0.5037569999694824,0.4799755811691284, 1.5187627077102661
159,1211032817,0.21194765,0.021816049,0.1549667,-0.9646697,-0.8818622827529907,-2.9814608097076416,9.041632652282715,0.5693126320838928,0.38146913051605225, 1.4850945472717285
160,1211049484,0.2121915,0.021770172,0.15496804,-0.96461695,-0.8674638271331787,-2.966888189315796,9.046592712402344,0.6451775431632996,0.2890200912952423, 1.3823877573013306
161,1211066151,0.21239074,0.02172525,0.15496767,-0.9645743,-0.8574144840240479,-2.9388694763183594,9.063788414001465,0.6522977948188782,0.27038687467575073, 1.3175235986709595
162,1211082818,0.21259448,0.021714034,0.15498859,-0.9645262,-0.8490962386131287,-2.927109718322754,9.035213470458984,0.5612702965736389,0.5345562696456909, 1.3624227046966553
163,1211099485,0.21281546,0.021721695,0.15500578,-0.96447456,-0.8570918440818787,-2.959494113922119,9.050300598144531,0.6105491518974304,0.6384414434432983, 1.5161501169204712
164,1211116152,0.21302827,0.021715589,0.15502213,-0.9644251,-0.8847423195838928,-2.958106517791748,9.031513214111328,0.6057595610618591,0.5590932369232178, 1.4461634159088135
165,1211132819,0.21324483,0.021716408,0.15502821,-0.9643762,-0.9266001582145691,-2.9776761531829834,9.03044319152832,0.6949430704116821,0.6034928560256958, 1.4349579811096191
166,1211149486,0.21344598,0.021699367,0.15505521,-0.9643278,-0.857772707939148,-2.987290382385254,9.059545516967773,0.5527155995368958,0.5622435808181763, 1.214112401008606
167,1211166153,0.2136617,0.021685028,0.1550822,-0.96427596,-0.8273420333862305,-2.968397617340088,9.070191383361816,0.5478619933128357,0.5503849387168884, 1.3868573904037476
168,1211182820,0.2138908,0.021677962,0.15511379,-0.9642202,-0.8324183821678162,-2.946669101715088,9.059932708740234,0.5362851023674011,0.6182073950767517, 1.4257885217666626
169,1211199487,0.21410963,0.021682981,0.1551358,-0.9641681,-0.8356815576553345,-2.8807435035705566,9.040423393249512,0.6265442967414856,0.6947892904281616, 1.3891751766204834
170,1211216154,0.21429941,0.02169101,0.15518184,-0.9641182,-0.8795938491821289,-2.9358646869659424,9.073267936706543,0.4531078040599823,0.7205813527107239, 1.4127774238586426
171,1211232821,0.21451543,0.021669379,0.1551682,-0.96407294,-0.9033614993095398,-2.9752063751220703,9.033263206481934,0.8099952340126038,0.41116705536842346, 1.5576812028884888
172,1211249488,0.21469681,0.021627,0.1551868,-0.9640305,-0.9015053510665894,-2.9814629554748535,9.062068939208984,0.5516015291213989,0.2869839072227478, 1.5380488634109497
173,1211266155,0.21490468,0.021588515,0.15521255,-0.9639809,-0.8808479905128479,-2.9984652996063232,9.106986999511719,0.5323280096054077,0.370724618434906, 1.4921766519546509
174,1211282822,0.21513215,0.021554213,0.15517877,-0.9639364,-0.8758566379547119,-2.961437225341797,9.09716796875,0.9804606437683105,0.38630998134613037, 1.3201618194580078
175,1211299489,0.21532327,0.021509977,0.15511283,-0.9639053,-0.8695482015609741,-2.931647539138794,9.073919296264648,1.162822961807251,0.21717649698257446, 1.3736668825149536
176,1211316156,0.21552752,0.021448528,0.15502743,-0.9638748,-0.8634160161018372,-2.932939291000366,9.037419319152832,1.2719329595565796,0.07014678418636322, 1.4257628917694092
177,1211332823,0.2157056,0.02141055,0.15495253,-0.96384776,-0.8419704437255859,-2.897284984588623,9.063273429870605,1.2437846660614014,0.2630231976509094, 1.3048709630966187
178,1211349490,0.21584716,0.021391746,0.15490416,-0.9638243,-0.8572909235954285,-2.947730302810669,9.049049377441406,1.0557234287261963,0.34088581800460815, 1.512308120727539
179,1211366157,0.21597078,0.021378119,0.1548823,-0.9638004,-0.8541989922523499,-2.985480785369873,9.03051471710205,0.890073299407959,0.42483142018318176, 1.4402213096618652
180,1211382824,0.21612872,0.021375852,0.1548561,-0.9637692,-0.8716607689857483,-3.0097289085388184,9.015411376953125,0.9484317302703857,0.5191885828971863, 1.508479118347168
181,1211399491,0.2162454,0.021376485,0.15484679,-0.9637446,-0.8565370440483093,-2.9529759883880615,9.057326316833496,0.8417678475379944,0.5471065044403076, 1.432435154914856
182,1211416158,0.2163672,0.02137232,0.15485576,-0.9637159,-0.8637518882751465,-2.9353835582733154,9.061856269836426,0.7123979926109314,0.5436615347862244, 1.4615310430526733
183,1211432825,0.21649875,0.021354664,0.15488036,-0.9636827,-0.8713157176971436,-2.9568629264831543,9.054121971130371,0.6023658514022827,0.5150649547576904, 1.3743582963943481
184,1211449492,0.21665236,0.021340026,0.15488735,-0.9636475,-0.8652152419090271,-2.9353597164154053,9.073244094848633,0.7375624179840088,0.5315722823143005, 1.3912113904953003
185,1211466159,0.21680927,0.021309128,0.15490296,-0.9636103,-0.8565848469734192,-2.914088249206543,9.005066871643066,0.6649248600006104,0.45419642329216003, 1.3425344228744507
186,1211482826,0.21697636,0.021268496,0.15494287,-0.96356726,-0.8791728019714355,-2.9446558952331543,9.055556297302246,0.4913092255592346,0.4399557411670685, 1.3398579359054565
187,1211499493,0.21717773,0.02121225,0.15496804,-0.96351904,-0.8976858854293823,-2.988604784011841,9.053678512573242,0.5693639516830444,0.30977919697761536, 1.4680622816085815
188,1211516160,0.21730924,0.021152427,0.15496945,-0.96349037,-0.9016616940498352,-2.9840035438537598,9.08971881866455,0.6997197270393372,0.17022839188575745, 1.4830329418182373
189,1211532827,0.21746925,0.02107932,0.1549854,-0.96345335,-0.8606895804405212,-2.954387903213501,9.061824798583984,0.6106259822845459,0.1654004007577896, 1.3756260871887207
190,1211549494,0.21758725,0.021025427,0.1550168,-0.96342283,-0.8472155928611755,-2.929368019104004,9.034132957458496,0.5202003121376038,0.27379336953163147, 1.401584506034851
191,1211566161,0.2177533,0.020977266,0.15506387,-0.9633788,-0.8251262903213501,-2.9444096088409424,9.052733421325684,0.442017525434494,0.3867453932762146, 1.4274790287017822
192,1211582828,0.2178995,0.02096252,0.1550921,-0.96334153,-0.8253324627876282,-2.912173271179199,9.062739372253418,0.620474100112915,0.5799675583839417, 1.4091914892196655
193,1211599495,0.21807712,0.020944787,0.1551341,-0.963295,-0.8436741232872009,-2.944977283477783,9.061274528503418,0.5226719379425049,0.581081748008728, 1.5381258726119995
194,1211616162,0.21823798,0.020934971,0.15516795,-0.9632533,-0.868809700012207,-2.974832057952881,9.05966854095459,0.5901357531547546,0.6178359389305115, 1.5116549730300903
195,1211632829,0.21836106,0.020922877,0.15520234,-0.9632202,-0.8993372917175293,-3.008051633834839,9.069186210632324,0.561667263507843,0.5411387085914612, 1.5907853841781616
196,1211649496,0.21846697,0.020903267,0.15523851,-0.9631908,-0.8810395002365112,-2.9742300510406494,9.063414573669434,0.5602201819419861,0.5361698269844055, 1.3882917165756226
197,1211666163,0.21858738,0.020896552,0.15527664,-0.9631575,-0.8682346940040588,-2.969160556793213,9.024064064025879,0.5683266520500183,0.6211400032043457, 1.4740430116653442
198,1211682830,0.21869892,0.02088321,0.15533009,-0.96312374,-0.8611147403717041,-2.953124523162842,9.067550659179688,0.47988590598106384,0.6585729718208313, 1.2556818723678589
199,1211699497,0.21882561,0.020886065,0.15536816,-0.96308875,-0.8750506043434143,-2.946645736694336,9.07237720489502,0.5994716882705688,0.7155996561050415, 1.4262880086898804
200,1211716164,0.21891414,0.020876933,0.1554196,-0.96306056,-0.8996267914772034,-2.922142505645752,9.071808815002441,0.4970720410346985,0.6711744070053101, 1.2400195598602295
201,1211732831,0.2189872,0.020871328,0.15546027,-0.96303755,-0.872650146484375,-2.97344970703125,9.043620109558105,0.5553537607192993,0.6203588247299194, 1.3799163103103638
202,1211749498,0.21907093,0.020874249,0.15551096,-0.96301025,-0.8396698236465454,-2.9864001274108887,9.060362815856934,0.4958042502403259,0.6736460328102112, 1.499476432800293
203,1211766165,0.21914311,0.020918816,0.15554641,-0.96298707,-0.8361636996269226,-2.9658079147338867,9.049561500549316,0.6405030488967896,0.8672395944595337, 1.711613416671753
204,1211782832,0.21917069,0.02096215,0.15563712,-0.96296525,-0.8742905259132385,-2.9172279834747314,9.03321361541748,0.26358669996261597,0.9403253793716431, 1.5834345817565918
205,1211799499,0.21930668,0.020996585,0.15574539,-0.9629161,-0.954745888710022,-2.9693350791931152,9.083609580993652,0.17573513090610504,1.0281513929367065, 1.57607102394104
206,1211816166,0.21944198,0.021013891,0.15578468,-0.96287847,-0.9351413249969482,-2.9503140449523926,9.015722274780273,0.6265186667442322,0.8189212083816528, 1.5102591514587402
207,1211832833,0.21958713,0.021029314,0.15583004,-0.9628377,-0.8966471552848816,-2.931741952896118,9.055220603942871,0.6032494902610779,0.8641021251678467, 1.381709098815918
208,1211849500,0.21973428,0.021051433,0.15587167,-0.9627969,-0.8775982856750488,-2.920213222503662,9.06334114074707,0.6374680995941162,0.9022520780563354, 1.4027756452560425
209,1211866167,0.21973306,0.021090576,0.15585655,-0.9627987,-0.8569157719612122,-2.9744298458099365,9.115708351135254,0.9922422170639038,0.7790165543556213, 1.3827333450317383
210,1211882834,0.21983634,0.02109634,0.15581135,-0.96278244,-0.8707787990570068,-2.9925761222839355,9.082558631896973,1.1683679819107056,0.5651506185531616, 1.5546587705612183
211,1211899501,0.21991599,0.02109526,0.15575029,-0.96277416,-0.8703067898750305,-2.9814774990081787,9.054510116577148,1.2630070447921753,0.48082077503204346, 1.5206067562103271
212,1211916168,0.21990387,0.021102037,0.15571447,-0.96278256,-0.881119966506958,-2.956742763519287,9.062381744384766,1.0800553560256958,0.5028220415115356, 1.441514492034912
213,1211932835,0.21992265,0.021092603,0.15570225,-0.96278036,-0.9037958383560181,-2.9281749725341797,9.047192573547363,0.9190027117729187,0.49179577827453613, 1.3465299606323242
214,1211949502,0.22001974,0.021046696,0.15569854,-0.9627598,-0.9039410948753357,-2.9640753269195557,9.048405647277832,0.8311129808425903,0.32774654030799866, 1.3794680833816528
215,1211966169,0.2200099,0.021009788,0.15568517,-0.96276504,-0.8807430863380432,-2.923759937286377,9.08207893371582,0.8727078437805176,0.2647136449813843, 1.3618335723876953
216,1211982836,0.21999575,0.020971257,0.15567274,-0.96277106,-0.8737496137619019,-2.941467761993408,9.028584480285645,0.8684817552566528,0.268619567155838, 1.3108259439468384
217,1211999503,0.21999139,0.020949198,0.15567915,-0.96277153,-0.8799070715904236,-2.953132152557373,9.046138763427734,0.7726263403892517,0.42401182651519775, 1.316396713256836
218,1212016170,0.22005902,0.020948542,0.15569732,-0.9627531,-0.8878159523010254,-3.005460739135742,9.052531242370605,0.7426081895828247,0.6288238763809204, 1.4557299613952637
219,1212032837,0.22020075,0.020941,0.1557141,-0.9627182,-0.8880524039268494,-2.988696813583374,9.060079574584961,0.7688099145889282,0.647136926651001, 1.501742959022522
220,1212049504,0.22017184,0.02094387,0.1557408,-0.96272045,-0.8904046416282654,-2.963021755218506,9.074027061462402,0.6579325795173645,0.5638187527656555, 1.4612364768981934
221,1212066171,0.2203009,0.020916035,0.15578645,-0.9626842,-0.888307511806488,-2.9280004501342773,9.042200088500977,0.5473625659942627,0.5559172034263611, 1.4506200551986694
222,1212082838,0.22033606,0.020898318,0.15582393,-0.96267045,-0.8828985691070557,-2.9601223468780518,9.069379806518555,0.5868316888809204,0.5268340110778809, 1.4060795307159424
223,1212099505,0.22042121,0.020868879,0.15586321,-0.96264523,-0.8962239623069763,-2.9168009757995605,9.086149215698242,0.5800315737724304,0.5114664435386658, 1.3827335834503174
224,1212116172,0.22041927,0.020851474,0.15590149,-0.9626398,-0.8863502740859985,-2.953827142715454,9.07017993927002,0.5616928935050964,0.4750194847583771, 1.4645533561706543
225,1212132839,0.22043057,0.020808546,0.15592779,-0.96263385,-0.8996511101722717,-2.9831349849700928,9.049283027648926,0.6211399435997009,0.3268756568431854, 1.3583118915557861
226,1212149506,0.22051655,0.020754816,0.15593731,-0.96261376,-0.8767455816268921,-2.9988207817077637,9.043885231018066,0.7331827282905579,0.2659302353858948, 1.494430422782898
227,1212166173,0.22055027,0.02071876,0.15597433,-0.9626009,-0.8726043105125427,-2.9699809551239014,9.065693855285645,0.5569674372673035,0.370545357465744, 1.5175589323043823
228,1212182840,0.22056253,0.020683287,0.15601347,-0.9625925,-0.886441171169281,-2.9233551025390625,9.07814884185791,0.5479644536972046,0.38943469524383545, 1.4093962907791138
229,1212199507,0.22052829,0.020659473,0.15605843,-0.9625936,-0.9057281017303467,-2.9522576332092285,9.048261642456055,0.5016438961029053,0.4068897068500519, 1.4832762479782104
230,1212216174,0.22060253,0.020617498,0.15608074,-0.9625738,-0.9073026776313782,-2.9255709648132324,9.05752182006836,0.67282634973526,0.3749890923500061, 1.4473928213119507
231,1212232841,0.22056335,0.020602284,0.15612051,-0.9625767,-0.893742024898529,-2.95393443107605,9.078693389892578,0.5539835095405579,0.4660167098045349, 1.443474292755127
232,1212249508,0.22054486,0.020599483,0.15615335,-0.96257555,-0.8482083082199097,-2.943446159362793,9.052886962890625,0.6367637515068054,0.5814786553382874, 1.389290452003479
233,1212266175,0.22047621,0.020610403,0.15619034,-0.96258515,-0.8851854801177979,-3.014542579650879,9.050679206848145,0.5901615023612976,0.5725656151771545, 1.5819237232208252
234,1212282842,0.22044626,0.020651607,0.15622838,-0.96258503,-0.9075120687484741,-2.980828046798706,9.12273120880127,0.6524258852005005,0.8331234455108643, 1.5674139261245728
235,1212299509,0.22044152,0.020606361,0.15629894,-0.9625755,-0.9270668625831604,-2.9703123569488525,8.947393417358398,0.31581100821495056,0.34526562690734863, 1.4541418552398682
236,1212316176,0.22038168,0.020591648,0.15636466,-0.9625789,-0.8783127069473267,-2.954127311706543,9.081841468811035,0.3869374394416809,0.5106852650642395, 1.3811969757080078
237,1212332843,0.22040555,0.020591974,0.15640181,-0.96256745,-0.8713611364364624,-2.9696414470672607,9.051558494567871,0.6177718639373779,0.6055161952972412, 1.5685665607452393
238,1212349510,0.22042805,0.020593492,0.15644537,-0.9625551,-0.8855661749839783,-2.904136896133423,9.08590030670166,0.591339647769928,0.6684978604316711, 1.4275046586990356
239,1212366177,0.22045511,0.020620218,0.15652934,-0.9625347,-0.8940560817718506,-2.978066921234131,9.090943336486816,0.3367621600627899,0.852166473865509, 1.6259773969650269
240,1212382844,0.22036919,0.020677427,0.15657055,-0.9625464,-0.8953824043273926,-2.9754292964935303,9.003911972045898,0.656126856803894,0.9375336766242981, 1.4214086532592773
241,1212399511,0.22038002,0.020707726,0.15661809,-0.96253556,-0.9262371063232422,-2.973284959793091,9.03182601928711,0.6062717437744141,0.8570585250854492, 1.450492024421692
242,1212416178,0.22025312,0.02075061,0.15665723,-0.9625573,-0.9229059815406799,-2.938361167907715,9.091333389282227,0.6281065940856934,0.7699369192123413, 1.4834938049316406
243,1212432845,0.2200706,0.020804642,0.156665,-0.96259665,-0.9152487516403198,-2.9625751972198486,9.073164939880371,0.8343528509140015,0.7331443428993225, 1.494417667388916
244,1212449512,0.22007366,0.020797424,0.15662572,-0.96260256,-0.9059062600135803,-2.9309067726135254,9.064471244812012,1.1396561861038208,0.47101107239723206, 1.3827974796295166
245,1212466179,0.21998215,0.020779815,0.15658186,-0.9626309,-0.8956180810928345,-2.963073492050171,9.061558723449707,1.1093307733535767,0.2689909338951111, 1.4460225105285645
246,1212482846,0.219954,0.020754278,0.15652716,-0.9626468,-0.8911080360412598,-2.973417043685913,9.039421081542969,1.2081319093704224,0.3023899495601654, 1.3301763534545898
247,1212499513,0.21984877,0.020736955,0.15651211,-0.96267366,-0.8844944834709167,-2.9379329681396484,9.058765411376953,0.9300547242164612,0.3522578179836273, 1.284572958946228
248,1212516180,0.21990223,0.020701187,0.15652227,-0.9626606,-0.9062661528587341,-2.9717743396759033,9.059709548950195,0.7804893851280212,0.4121147692203522, 1.371527910232544
249,1212532847,0.21972497,0.020690346,0.15649971,-0.96270496,-0.9179041981697083,-2.9690630435943604,9.035645484924316,0.9438344240188599,0.2522018253803253, 1.466922640800476
250,1212549514,0.21963832,0.020650174,0.15647101,-0.96273035,-0.9006730318069458,-2.9417905807495117,9.05594253540039,0.9689221382141113,0.1191951110959053, 1.5259727239608765
251,1212566181,0.219422,0.020645007,0.15647951,-0.96277833,-0.8768990635871887,-2.9173288345336914,9.073763847351074,0.7417886257171631,0.3328946828842163, 1.3520880937576294
252,1212582848,0.21932314,0.020625642,0.15651646,-0.9627952,-0.8902257084846497,-2.972651481628418,9.055386543273926,0.5548926591873169,0.366741806268692, 1.4880400896072388
253,1212599515,0.2192036,0.020628128,0.15653002,-0.9628202,-0.9017607569694519,-2.9488375186920166,9.056435585021973,0.7534807920455933,0.4909890592098236, 1.388995885848999
254,1212616182,0.21906337,0.020644702,0.15656357,-0.9628463,-0.9142324924468994,-2.9560606479644775,9.047920227050781,0.6305398344993591,0.5914676785469055, 1.4093835353851318
255,1212632849,0.21889801,0.02066341,0.15660076,-0.9628775,-0.9208779335021973,-2.926331043243408,9.046114921569824,0.6011748313903809,0.5883429050445557, 1.3947970867156982
256,1212649516,0.21879767,0.020657772,0.15664868,-0.96289265,-0.936068594455719,-2.9784042835235596,9.021105766296387,0.5071378946304321,0.48749297857284546, 1.4556018114089966
257,1212666183,0.21860525,0.020657502,0.15668963,-0.96292967,-0.9063239097595215,-2.9634358882904053,9.070706367492676,0.5325840711593628,0.41945281624794006, 1.4280937910079956
258,1212682850,0.21854804,0.020650486,0.15670861,-0.96293974,-0.8865612149238586,-2.96085262298584,9.086149215698242,0.7212472558021545,0.4828186631202698, 1.4410024881362915
259,1212699517,0.21830545,0.020652262,0.15675007,-0.9629879,-0.9012618660926819,-2.9297902584075928,9.056374549865723,0.5190734267234802,0.3945828676223755, 1.3818243741989136
260,1212716184,0.2181445,0.020627504,0.15678316,-0.9630196,-0.8881049156188965,-2.9519026279449463,9.027630805969238,0.5617441534996033,0.28101617097854614, 1.398306131362915
261,1212732851,0.21801737,0.02060215,0.15681294,-0.96304405,-0.919253945350647,-2.9472432136535645,9.056705474853516,0.595207154750824,0.30559152364730835, 1.4125981330871582
262,1212749518,0.21794994,0.020591367,0.15683147,-0.96305645,-0.897072970867157,-2.9393255710601807,9.057076454162598,0.7119882702827454,0.4397892951965332, 1.460621953010559
263,1212766185,0.21784465,0.020578373,0.15686944,-0.9630744,-0.8940274715423584,-2.9445416927337646,9.046622276306152,0.57113116979599,0.4385342299938202, 1.3756004571914673
264,1212782852,0.21771057,0.020557446,0.15690124,-0.9631,-0.909934401512146,-2.968679189682007,9.024750709533691,0.5823111534118652,0.32354605197906494, 1.4375576972961426
265,1212799519,0.21750222,0.020565862,0.15693368,-0.9631416,-0.9167414307594299,-2.972418785095215,9.039617538452148,0.5983190536499023,0.44826704263687134, 1.4329087734222412
266,1212816186,0.21756007,0.020522416,0.15696819,-0.96312386,-0.900547981262207,-2.946380376815796,9.04605770111084,0.6057851314544678,0.3896523714065552, 1.4085383415222168
267,1212832853,0.2175213,0.020514235,0.15701415,-0.96312535,-0.8922030329704285,-2.9771997928619385,9.06031608581543,0.5456081628799438,0.5406520962715149, 1.4274406433105469
268,1212849520,0.21733877,0.020531196,0.15704124,-0.9631617,-0.9069065451622009,-2.943411111831665,9.055968284606934,0.6593540906906128,0.5265779495239258, 1.432844877243042
269,1212866187,0.21717271,0.020535223,0.15706414,-0.9631953,-0.9187123775482178,-2.9544174671173096,9.053786277770996,0.6728776097297668,0.4474986493587494, 1.4333186149597168
270,1212882854,0.21716453,0.02050768,0.15708987,-0.9631936,-0.8861006498336792,-2.96708607673645,9.065220832824707,0.6763865351676941,0.4433494508266449, 1.3085464239120483
271,1212899521,0.21683784,0.020535829,0.1571406,-0.96325827,-0.8877215385437012,-2.9806301593780518,9.056096076965332,0.47380292415618896,0.5143479108810425, 1.3293181657791138
272,1212916188,0.21665151,0.020563241,0.15717497,-0.9632941,-0.9060794711112976,-2.9278829097747803,9.016655921936035,0.6145831346511841,0.5763689279556274, 1.5304803848266602
273,1212932855,0.21654806,0.020638177,0.15722856,-0.9633069,-0.9104719758033752,-2.948546886444092,9.077982902526855,0.5803133249282837,1.0012067556381226, 1.616884708404541
274,1212949522,0.2163184,0.020673687,0.15729392,-0.96334714,-0.9503185153007507,-2.939183235168457,8.986237525939941,0.4212840795516968,0.6948917508125305, 1.3284090757369995
275,1212966189,0.2160107,0.020742446,0.15735391,-0.96340495,-0.8975916504859924,-2.9994547367095947,9.079744338989258,0.45432448387145996,0.7547999024391174, 1.569667935371399
276,1212982856,0.21591684,0.020767346,0.15741238,-0.96341586,-0.923224687576294,-2.9566361904144287,9.006386756896973,0.4936271011829376,0.7329522371292114, 1.4079238176345825
277,1212999523,0.21573056,0.020827726,0.15744013,-0.96345174,-0.8970851302146912,-2.958019256591797,9.106305122375488,0.7086713314056396,0.7858808040618896, 1.5491392612457275
278,1213016190,0.2155013,0.020907493,0.15749013,-0.9634931,-0.8937129974365234,-2.909339189529419,9.070358276367188,0.587817907333374,0.957550048828125, 1.3912756443023682
279,1213032857,0.21528359,0.020950302,0.15747584,-0.9635431,-0.9170272350311279,-2.927485942840576,9.019247055053711,0.9609692096710205,0.5934270620346069, 1.456498146057129
280,1213049524,0.21513523,0.02096948,0.1574664,-0.96357745,-0.9239519238471985,-2.9654226303100586,9.051260948181152,0.9171589016914368,0.5167426466941833, 1.442142367362976
281,1213066191,0.21489722,0.021014588,0.15742509,-0.96363646,-0.9297096133232117,-2.987424850463867,9.068212509155273,1.1383755207061768,0.5423296093940735, 1.4640793800354004
282,1213082858,0.21456704,0.021048067,0.15739524,-0.963714,-0.9255757331848145,-2.953171968460083,9.076207160949707,1.0270885229110718,0.4315291941165924, 1.2898236513137817
283,1213099525,0.21428795,0.021077717,0.15738735,-0.9637768,-0.9251635074615479,-2.9675533771514893,9.048107147216797,0.8683537244796753,0.43051743507385254, 1.495736837387085
284,1213116192,0.21410441,0.021072455,0.15739182,-0.963817,-0.9317341446876526,-2.9584298133850098,9.02224063873291,0.7755717039108276,0.34064245223999023, 1.3992407321929932
285,1213132859,0.21392275,0.021077558,0.15738565,-0.9638582,-0.9239636659622192,-2.9518277645111084,9.0831298828125,0.8686227798461914,0.4058011770248413, 1.3683520555496216
286,1213149526,0.21341832,0.021145396,0.15739383,-0.96396726,-0.9065886735916138,-2.94277024269104,9.042177200317383,0.745323121547699,0.5010164380073547, 1.394553780555725
287,1213166193,0.21324869,0.021142427,0.15741704,-0.964001,-0.8749851584434509,-2.967900514602661,9.074573516845703,0.657804548740387,0.405288964509964, 1.3750625848770142
288,1213182860,0.2130753,0.021128897,0.15745737,-0.964033,-0.8953611850738525,-2.9660298824310303,9.066216468811035,0.5215321779251099,0.3481726050376892, 1.3959881067276
289,1213199527,0.21288423,0.021074688,0.15750234,-0.964069,-0.9280571937561035,-2.9705655574798584,9.115218162536621,0.4232178032398224,0.062885582447052, 1.3618335723876953
290,1213216194,0.21269536,0.020920807,0.15751591,-0.96411186,-0.9480369091033936,-3.009467840194702,9.141213417053223,0.49141162633895874,-0.6525091528892517, 1.274865746498108
291,1213232861,0.21236354,0.020689972,0.15747252,-0.9641973,-0.9599326252937317,-2.9380805492401123,9.115043640136719,0.7250378131866455,-1.3840973377227783, 1.1117254495620728
292,1213249528,0.21210033,0.020376895,0.1573844,-0.9642762,-0.9256249070167542,-2.9689440727233887,9.10638427734375,0.9312970638275146,-1.9380747079849243, 1.0686835050582886
293,1213266195,0.21177125,0.020006854,0.15726392,-0.9643759,-0.9152281880378723,-2.902686357498169,9.063505172729492,1.0657379627227783,-2.380995035171509, 0.8198304772377014
294,1213282862,0.21149276,0.019597262,0.15714495,-0.9644648,-0.850517213344574,-2.967162847518921,9.08825969696045,1.0167921781539917,-2.5845260620117188, 0.7702571153640747
295,1213299529,0.21129732,0.019201469,0.1570307,-0.9645342,-0.846337080001831,-2.9836671352386475,9.050637245178223,1.0293935537338257,-2.4113714694976807, 0.8466085195541382
296,1213316196,0.21104473,0.018862303,0.15690906,-0.96461606,-0.8583096265792847,-2.9844799041748047,8.995400428771973,1.135327696800232,-2.130976676940918, 0.9795640707015991
297,1213332863,0.21084258,0.01858079,0.1568739,-0.96467143,-0.8703213930130005,-2.9559128284454346,8.99648666381836,0.6567415595054626,-1.544202208518982, 0.984443187713623
298,1213349530,0.21055643,0.018392159,0.15685734,-0.9647402,-0.8604965806007385,-2.967695474624634,8.976584434509277,0.6308984160423279,-1.0059003829956055, 1.1271955966949463
299,1213366197,0.2102833,0.01824499,0.15688673,-0.96479774,-0.845852255821228,-2.9282338619232178,9.030991554260254,0.38190457224845886,-0.6558772325515747, 1.1977459192276
300,1213382864,0.21004832,0.018173689,0.15689422,-0.96484905,-0.8486412167549133,-2.9086782932281494,9.028868675231934,0.620269238948822,-0.23652048408985138, 1.5817444324493408
301,1213399531,0.2097811,0.018131176,0.1569264,-0.9649028,-0.8670183420181274,-2.8499855995178223,9.033477783203125,0.4950487017631531,-0.004520641639828682, 1.4780128002166748
302,1213416198,0.20965993,0.01805463,0.15695344,-0.96492624,-0.8562687635421753,-2.9446306228637695,9.070588111877441,0.5227488279342651,-0.09347355365753174, 1.4950965642929077
303,1213432865,0.20938335,0.017980017,0.15693477,-0.96499056,-0.8648464679718018,-3.0472629070281982,9.068526268005371,0.7898380160331726,-0.29851603507995605, 1.4249815940856934
304,1213449532,0.20913436,0.017887086,0.15687843,-0.9650556,-0.8850170969963074,-3.021355152130127,9.072519302368164,1.0412521362304688,-0.4186267554759979, 1.3142963647842407
305,1213466199,0.2089126,0.01775315,0.15687314,-0.96510684,-0.8394975066184998,-3.0253870487213135,9.091521263122559,0.6631191968917847,-0.5353310108184814, 1.105194330215454
306,1213482866,0.2086185,0.017559022,0.15685812,-0.9651765,-0.8554688692092896,-3.0238571166992188,9.08211612701416,0.6287853717803955,-1.0087305307388306, 0.9708173871040344
307,1213499533,0.2082588,0.017218446,0.15677737,-0.9652733,-1.0444515943527222,-2.9004135131835938,9.143717765808105,0.8593509197235107,-2.12062931060791, 0.7082744240760803
308,1213516200,0.20794906,0.016670546,0.15661946,-0.9653754,-1.036763310432434,-2.9205453395843506,9.201714515686035,1.095397710800171,-3.60151743888855, 0.6014055013656616
309,1213532867,0.20765741,0.015795019,0.15624727,-0.9655132,-0.9327415823936462,-3.10955548286438,9.356398582458496,2.114475965499878,-6.0207014083862305, 0.04654468595981598
310,1213549534,0.20733865,0.014447266,0.15567222,-0.96569574,-0.6928636431694031,-3.121145725250244,9.549215316772461,2.8414032459259033,-9.43063735961914, -0.6570299863815308
311,1213566201,0.20698754,0.012670739,0.15504612,-0.9658967,-0.7392892837524414,-2.976560592651367,9.525644302368164,2.5652859210968018,-12.4321928024292, -0.9655224084854126
312,1213582868,0.20677432,0.010503273,0.15458629,-0.9660419,-0.7478727698326111,-2.8104264736175537,9.486161231994629,0.8870517611503601,-14.765617370605469, -0.9408704042434692
313,1213599535,0.20652825,0.00796931,0.1539833,-0.9662152,-0.6406068801879883,-2.9489939212799072,9.34798812866211,1.3140671253204346,-17.510984420776367, -1.1204928159713745
314,1213616202,0.20633674,0.004930617,0.15288638,-0.9664506,-0.5320122838020325,-2.9938604831695557,9.288264274597168,3.964090347290039,-21.577041625976562, -1.5052095651626587
315,1213632869,0.20597146,0.0013516786,0.15153629,-0.96675277,-0.27786144614219666,-2.90224027633667,9.493300437927246,4.886844635009766,-25.73211669921875, -2.038724660873413
316,1213649536,0.20564215,-0.0029140683,0.15024279,-0.9670212,-0.1516704559326172,-2.9735467433929443,9.821657180786133,3.523953914642334,-30.266664505004883, -2.386573553085327
317,1213666203,0.20529681,-0.007981698,0.1490081,-0.9672571,-0.24969439208507538,-2.833510637283325,10.057332038879395,1.9787626266479492,-35.591590881347656, -2.928492307662964
318,1213682870,0.20505266,-0.013745487,0.14776094,-0.9674355,0.010245949029922485,-2.9355297088623047,9.944902420043945,1.0782558917999268,-40.180946350097656, -3.4115030765533447
319,1213699537,0.20477185,-0.019972524,0.14605471,-0.96764547,0.335773766040802,-3.045928955078125,9.388077735900879,3.5255420207977295,-44.12342834472656, -3.3447213172912598
320,1213716204,0.20438218,-0.026630998,0.1438392,-0.96789944,0.5717012286186218,-2.853405714035034,9.060503959655762,6.384895324707031,-47.808467864990234, -3.861184597015381
321,1213732871,0.2042947,-0.033702046,0.14162275,-0.9680244,0.6393786668777466,-2.7165112495422363,9.280033111572266,5.789822101593018,-50.07188034057617, -4.668135643005371
322,1213749538,0.20420583,-0.04117994,0.13926548,-0.9680957,0.7383404970169067,-3.1204171180725098,9.619256019592285,6.106173992156982,-52.83799743652344, -5.467867374420166
323,1213766205,0.20438826,-0.04896589,0.1363998,-0.9681028,0.9738069772720337,-3.4764256477355957,9.707087516784668,9.047858238220215,-55.49993896484375, -5.233002185821533
324,1213782872,0.20468922,-0.057397507,0.13362584,-0.967963,1.3267816305160522,-3.377753973007202,9.46634292602539,7.446405410766602,-59.7837028503418, -4.91417932510376
325,1213799539,0.20492162,-0.06651946,0.13122031,-0.9676588,1.636357069015503,-2.917959213256836,9.558610916137695,3.858295440673828,-63.81569290161133, -5.713443756103516
326,1213816206,0.20509194,-0.07641323,0.12983699,-0.9670785,1.7104231119155884,-2.738107681274414,9.58345890045166,-4.3277587890625,-67.4794921875, -6.2303900718688965
327,1213832873,0.20532817,-0.08676617,0.12874655,-0.9663004,2.1679086685180664,-3.049128293991089,9.485345840454102,-7.0706000328063965,-70.26258850097656, -5.76893949508667
328,1213849540,0.20564134,-0.09746177,0.1276357,-0.9653612,2.4741568565368652,-2.8524324893951416,9.589547157287598,-7.512282848358154,-72.70533752441406, -5.344921112060547
329,1213866207,0.20592031,-0.10862262,0.12627396,-0.9642889,2.6137630939483643,-2.5088582038879395,9.584944725036621,-6.64825963973999,-76.1788101196289, -5.956753730773926
330,1213882874,0.20615765,-0.12005971,0.12442169,-0.9631221,2.922483444213867,-2.7958505153656006,9.294967651367188,-3.9147562980651855,-78.71391296386719, -6.700212001800537
331,1213899541,0.20648916,-0.13143232,0.12160072,-0.9619258,3.361440658569336,-3.139303207397461,9.156391143798828,2.639633893966675,-79.73628997802734, -6.775991916656494
332,1213916208,0.20712528,-0.14238335,0.119351,-0.96051115,3.824134349822998,-3.1715023517608643,9.522358894348145,-0.4411494731903076,-76.55403137207031, -3.5801022052764893
333,1213932875,0.20787248,-0.153234,0.119654246,-0.95864046,3.4430429935455322,-3.143479585647583,9.103523254394531,-17.41924285888672,-72.7557373046875, 0.3906717598438263
334,1213949542,0.20830841,-0.16447102,0.120322295,-0.95659786,3.5777130126953125,-3.4372830390930176,8.663803100585938,-20.839435577392578,-74.68366241455078, -1.3443880081176758
335,1213966209,0.20863162,-0.17593665,0.12158296,-0.95432544,3.587674379348755,-3.7100443840026855,8.408516883850098,-25.367191314697266,-75.48234558105469, -1.273530125617981
336,1213982876,0.2089089,-0.18800305,0.12374026,-0.951683,3.5725409984588623,-3.59798002243042,7.591146469116211,-32.45492935180664,-78.52889251708984, -0.46224406361579895
337,1213999543,0.20924486,-0.20000473,0.1256196,-0.94891226,3.7513015270233154,-3.758685827255249,7.8366241455078125,-30.55277442932129,-78.70164489746094, -0.19914376735687256
338,1214016210,0.20963672,-0.21194084,0.12899081,-0.9457775,4.304011344909668,-3.5710813999176025,7.921322345733643,-40.407432556152344,-76.66152954101562, 2.795360803604126
339,1214032877,0.20993632,-0.22398779,0.13255185,-0.94243634,4.442526340484619,-3.7546908855438232,7.37837553024292,-42.105350494384766,-77.30604553222656, 2.6765549182891846
340,1214049544,0.21021666,-0.23592803,0.13505599,-0.939099,4.526248931884766,-3.7831602096557617,7.365692615509033,-35.109886169433594,-78.09225463867188, 1.0194693803787231
341,1214066211,0.21055861,-0.24754187,0.13702387,-0.9357417,5.019476890563965,-3.7319109439849854,7.501458168029785,-31.077768325805664,-76.82843780517578, 0.8808357119560242
342,1214082878,0.21084404,-0.25911438,0.13867575,-0.9322949,5.3280930519104,-3.508867025375366,7.191575527191162,-29.1553897857666,-77.09439086914062, 0.1538783758878708
343,1214099545,0.21095523,-0.2707746,0.1404923,-0.928677,5.297894477844238,-3.0422213077545166,7.102991104125977,-30.80647850036621,-77.52637481689453, -0.4953233003616333
344,1214116212,0.21110243,-0.28211987,0.14178309,-0.92506325,5.310393333435059,-3.5754339694976807,7.892419815063477,-26.929018020629883,-76.28120422363281, -0.9320291876792908
345,1214132879,0.21091731,-0.29375982,0.14476158,-0.92101216,5.238003253936768,-3.2202484607696533,7.669964790344238,-39.16742706298828,-76.22201538085938, 0.5837476849555969
346,1214149546,0.21057978,-0.30530953,0.14710192,-0.91695344,5.030168056488037,-3.1827352046966553,6.362400531768799,-35.32521057128906,-76.43699645996094, -1.5573036670684814
347,1214166213,0.2104525,-0.3161258,0.14678766,-0.9133606,4.966837406158447,-3.1181299686431885,6.586974143981934,-16.618545532226562,-74.87966918945312, -5.729577541351318
348,1214182880,0.21029735,-0.32601294,0.14453119,-0.9102755,5.068404674530029,-3.258079767227173,6.444324016571045,-2.6369259357452393,-70.72065734863281, -9.919785499572754
349,1214199547,0.21014896,-0.33517376,0.1409785,-0.9075356,4.887545585632324,-2.923738479614258,6.154150485992432,6.875312328338623,-67.2785415649414, -12.561907768249512
350,1214216214,0.20966269,-0.34355572,0.13706335,-0.90511036,4.741473197937012,-3.4851043224334717,6.635433673858643,9.774699211120605,-61.890010833740234, -15.206174850463867
351,1214232881,0.20912504,-0.35104966,0.13256046,-0.90302753,4.105729579925537,-4.166370868682861,5.758850574493408,14.905445098876953,-56.36769104003906, -16.58380889892578
352,1214249548,0.20897225,-0.3576422,0.12713046,-0.9012551,3.815340995788574,-5.228206634521484,5.721306800842285,23.183441162109375,-51.721336364746094, -16.088056564331055
353,1214266215,0.20850502,-0.36376202,0.1221254,-0.89960456,4.083591938018799,-5.817260265350342,7.075589656829834,20.59739112854004,-47.63066482543945, -16.805130004882812
354,1214282882,0.20773728,-0.36939955,0.117494255,-0.89810044,3.6539673805236816,-4.718358993530273,6.382717609405518,18.378726959228516,-43.53550720214844, -17.591751098632812
355,1214299549,0.2065723,-0.37468868,0.11291609,-0.89676434,3.6161017417907715,-4.17241096496582,6.4882097244262695,17.692960739135742,-40.602115631103516, -19.9149112701416
356,1214316216,0.20466158,-0.3796691,0.10945232,-0.8955364,3.9814608097076416,-3.8350327014923096,8.954703330993652,9.42855167388916,-36.303504943847656, -21.59383773803711
357,1214332883,0.20180714,-0.38400322,0.10820894,-0.89448667,3.048328399658203,-2.9218451976776123,10.6044340133667,-5.685378551483154,-28.104965209960938, -21.401029586791992
358,1214349550,0.19832811,-0.3870904,0.10850966,-0.8938976,1.4519089460372925,-2.3040833473205566,10.48306655883789,-14.809797286987305,-16.738157272338867, -20.897916793823242
359,1214366217,0.19486232,-0.38904276,0.10855833,-0.8938062,0.8198583722114563,-2.440755844116211,9.088888168334961,-11.365815162658691,-8.944615364074707, -21.344341278076172
360,1214382884,0.19231807,-0.3896046,0.1077807,-0.89420664,0.13536734879016876,-3.292773962020874,8.495712280273438,-1.6348857879638672,-1.0186821222305298, -17.544422149658203
361,1214399551,0.19132386,-0.38916117,0.10512314,-0.89492893,0.816694974899292,-4.032190322875977,7.545902729034424,15.624250411987305,2.2484333515167236, -12.78139591217041
362,1214416218,0.1916599,-0.3876767,0.100947835,-0.8959815,2.7806968688964844,-4.1588358879089355,8.053008079528809,30.134811401367188,6.465775966644287, -8.392914772033691
363,1214432885,0.19274363,-0.38440424,0.096606925,-0.89763594,5.185715675354004,-3.0155389308929443,9.116315841674805,35.92647171020508,18.25986671447754, -3.8170828819274902
364,1214449552,0.19359937,-0.3792278,0.09362043,-0.89996713,6.049626350402832,-1.170719027519226,9.73977279663086,29.91518783569336,33.6827392578125, -1.2756496667861938
365,1214466219,0.19379309,-0.37216043,0.09271188,-0.90296483,4.769442558288574,-0.6928063631057739,10.332378387451172,18.220155715942383,50.260704040527344, 0.4098265767097473
366,1214482886,0.19381575,-0.36331287,0.09313096,-0.9065131,0.9218853116035461,-2.3162155151367188,10.34524917602539,12.195895195007324,64.51969146728516, 3.1748509407043457
367,1214499553,0.19488011,-0.35252544,0.09328158,-0.9105197,-2.909285545349121,-3.2986698150634766,10.170079231262207,19.316909790039062,76.58783721923828, 9.60520076751709
368,1214516220,0.197291,-0.33875495,0.09280999,-0.91526383,-2.310574531555176,-1.3253289461135864,9.248370170593262,30.937259674072266,95.14987182617188, 17.391517639160156
369,1214532887,0.19934781,-0.32118183,0.09380014,-0.92103434,2.681870460510254,0.6513586044311523,9.147171020507812,26.691884994506836,123.5088882446289, 19.577022552490234
370,1214549554,0.2006256,-0.2982326,0.09816538,-0.9279927,6.063422203063965,-1.4462745189666748,9.17207145690918,11.660636901855469,165.24462890625, 23.967575073242188
371,1214566221,0.20279045,-0.2675151,0.11416736,-0.9350281,10.477700233459473,-2.5811994075775146,8.178634643554688,-50.044097900390625,230.46142578125, 58.65181350708008
372,1214582888,0.2069759,-0.22651653,0.1408291,-0.94128567,16.5588436126709,3.522336006164551,8.270956039428711,-101.17218780517578,308.6090393066406, 100.45785522460938
373,1214599555,0.20902616,-0.17042331,0.1770523,-0.9465287,28.832809448242188,2.4017772674560547,10.858255386352539,-146.09349060058594,420.8591003417969, 117.75248718261719
374,1214616222,0.21071525,-0.09935962,0.21125275,-0.94926244,24.268596649169922,-9.214723587036133,13.941621780395508,-115.07063293457031,513.638427734375, 135.1269073486328
375,1214632889,0.21147387,-0.027088216,0.21841732,-0.95228106,10.515425682067871,-10.960692405700684,2.076617479324341,63.11554718017578,484.2614440917969, 112.0458755493164
376,1214649556,0.20922923,0.0050476426,0.23765041,-0.94853574,29.63222885131836,-7.42891788482666,-38.507930755615234,-84.8563003540039,242.1315155029297, 44.20622253417969
377,1214666223,0.20659369,0.022334466,0.24212894,-0.9477309,-2.533534526824951,-7.848423480987549,15.17720890045166,-4.649694919586182,125.09494018554688, 14.05286693572998
378,1214682890,0.20358944,0.019034607,0.2601989,-0.94365555,2.019972085952759,2.247091293334961,-6.493007183074951,-127.86370849609375,11.333663940429688, -20.047327041625977
379,1214699557,0.20444146,0.011144865,0.2599987,-0.9436526,2.4393038749694824,-15.745920181274414,4.729583740234375,-8.944015502929688,-51.45804214477539, -6.518623352050781
380,1214716224,0.20316596,0.0015251223,0.24515776,-0.94795525,-0.5585729479789734,-1.1785708665847778,12.773650169372559,91.73675537109375,-79.73104095458984, -28.287939071655273
381,1214732891,0.20265096,-0.007807608,0.23392116,-0.9508694,1.3207721710205078,-4.293123722076416,11.656599044799805,66.1825942993164,-74.05882263183594, -21.00759506225586
382,1214749558,0.20315929,-0.014116985,0.22823063,-0.9520703,1.1887503862380981,-4.182287216186523,13.103161811828613,31.402095794677734,-48.250091552734375, -6.786664009094238
383,1214766225,0.20260336,-0.01867804,0.2298082,-0.9517308,-0.30859389901161194,-3.266057252883911,13.016610145568848,-16.30018424987793,-25.096986770629883, -8.154138565063477
384,1214782892,0.20116974,-0.021962564,0.23902608,-0.9496922,-0.3048537075519562,-4.832825660705566,12.495229721069336,-67.38289642333984,-4.942127704620361, -8.529667854309082
385,1214799559,0.19987857,-0.024177209,0.2511513,-0.9467772,-1.1423287391662598,-6.734450340270996,11.456263542175293,-86.3432846069336,5.679362773895264, -4.169447422027588
386,1214816226,0.19875742,-0.025498006,0.26097447,-0.9443187,-2.596142292022705,-6.423298358917236,10.42566967010498,-69.30760955810547,8.077634811401367, -2.5120468139648438
387,1214832893,0.19770291,-0.027026946,0.2673987,-0.9426989,-4.1828508377075195,-6.099034309387207,10.344537734985352,-46.002952575683594,2.0447988510131836, -4.203395366668701
388,1214849560,0.19734468,-0.028567724,0.26868182,-0.9423637,-4.116735458374023,-7.264310359954834,9.298680305480957,-10.209637641906738,-6.148767471313477, -2.4537620544433594
389,1214866227,0.19735992,-0.031256318,0.26544634,-0.94319165,-3.9760444164276123,-7.772518634796143,9.595216751098633,19.76118278503418,-20.257936477661133, -4.667825698852539
390,1214882894,0.197613,-0.036014024,0.2605408,-0.9443362,-4.597561359405518,-7.471800327301025,12.138062477111816,28.44968605041504,-36.38114547729492, -7.742471218109131
391,1214899561,0.1980142,-0.041039895,0.2559482,-0.94530255,-6.236239433288574,-6.585057735443115,15.255011558532715,25.77785873413086,-38.089866638183594, -7.004281520843506
392,1214916228,0.19876094,-0.043506093,0.25115383,-0.94632083,-6.196660041809082,-6.706355094909668,13.809882164001465,30.71965980529785,-22.437219619750977, -0.46380993723869324
393,1214932895,0.1994666,-0.04331318,0.24555252,-0.9476503,-5.2952799797058105,-5.979808807373047,11.283803939819336,40.106117248535156,-6.193289279937744, 3.1165266036987305
394,1214949562,0.19993187,-0.04252011,0.2418001,-0.94855267,-5.213624477386475,-4.906489372253418,11.32522201538086,28.082704544067383,0.4283030927181244, 3.6366219520568848
395,1214966229,0.20037355,-0.042124838,0.24042794,-0.948826,-6.023534297943115,-4.954793930053711,11.728010177612305,10.934289932250977,0.8594922423362732, 4.3228302001953125
396,1214982896,0.20115401,-0.04136999,0.23868431,-0.94913405,-5.86240291595459,-5.522177696228027,10.726507186889648,13.98153018951416,2.0264337062835693, 6.908167362213135
397,1214999563,0.20276344,-0.03956812,0.23442069,-0.9499308,-5.678379058837891,-5.025288105010986,9.41945743560791,32.9071159362793,4.0393385887146, 12.584028244018555
398,1215016230,0.20478603,-0.03691238,0.2290465,-0.9509143,-5.18900728225708,-3.5849781036376953,8.791132926940918,41.76500701904297,7.343873977661133, 16.041460037231445
399,1215032897,0.2065881,-0.0341767,0.22479872,-0.9516401,-4.485258102416992,-2.653120756149292,8.304759979248047,34.03221130371094,9.636141777038574, 15.32604694366455
400,1215049564,0.20757091,-0.031907793,0.22323546,-0.95187306,-3.86991548538208,-1.9952154159545898,8.056336402893066,14.820768356323242,11.462372779846191, 10.534551620483398
401,1215066231,0.20763893,-0.030726638,0.22498642,-0.95148474,-3.900068998336792,-1.8094199895858765,7.94091796875,-9.613631248474121,10.272063255310059, 4.457336902618408
402,1215082898,0.20698331,-0.030791143,0.22904599,-0.95065665,-3.735124111175537,-2.023639678955078,7.3095622062683105,-27.366809844970703,6.378213882446289, -1.124157428741455
403,1215099565,0.20570762,-0.03159929,0.23407881,-0.94968057,-3.513181209564209,-2.230172872543335,6.754769802093506,-35.180519104003906,3.7856571674346924, -5.966710090637207
404,1215116232,0.20452705,-0.032440796,0.23875226,-0.94874334,-3.4995388984680176,-2.937039852142334,6.068695545196533,-32.81956481933594,2.85821533203125, -5.565980911254883
405,1215132899,0.20391934,-0.03329945,0.24179004,-0.9480748,-3.254094362258911,-4.292354583740234,5.368656635284424,-21.608585357666016,-0.49020230770111084, -2.6317219734191895
406,1215149566,0.20373337,-0.034914006,0.24216758,-0.9479603,-3.5541388988494873,-4.587636947631836,5.322935104370117,-4.284763336181641,-9.773452758789062, -2.550180673599243
407,1215166233,0.20381433,-0.037875105,0.2408885,-0.9481551,-3.4363927841186523,-4.68656063079834,5.534411907196045,5.235584259033203,-21.298097610473633, -3.910182237625122
408,1215182900,0.20400508,-0.04241643,0.23864374,-0.94848937,-3.1098475456237793,-4.783389091491699,5.411693096160889,9.604939460754395,-33.153987884521484, -6.283270359039307
409,1215199567,0.20394999,-0.049207445,0.23613404,-0.94880134,-2.8075599670410156,-4.526719093322754,5.148834705352783,8.099721908569336,-47.84954833984375, -11.645286560058594
410,1215216234,0.20374438,-0.058810536,0.23600234,-0.9483315,-2.361398696899414,-4.224674701690674,6.068446159362793,-12.648321151733398,-62.92326354980469, -15.315873146057129
411,1215232901,0.20358819,-0.07065689,0.24077284,-0.94635516,-1.5383827686309814,-4.872014999389648,7.737380504608154,-50.16686248779297,-71.40614318847656, -14.569235801696777
412,1215249568,0.20374006,-0.08726093,0.24955261,-0.94265544,-1.2183135747909546,-6.139732360839844,4.90600061416626,-85.6155776977539,-98.11823272705078, -16.112812042236328
413,1215266235,0.20370416,-0.10454379,0.25258738,-0.94009304,-0.7421569228172302,-6.737783908843994,8.194718360900879,-47.44307327270508,-109.57134246826172, -23.56650161743164
414,1215282902,0.20386603,-0.12017093,0.25156033,-0.9384643,-0.2986392080783844,-6.2454833984375,12.153633117675781,-17.084579467773438,-104.24243927001953, -23.666715621948242
415,1215299569,0.20403436,-0.1338326,0.24948202,-0.93713266,0.369785875082016,-7.300013065338135,13.451628684997559,-7.05755090713501,-92.81979370117188, -21.53177833557129
416,1215316236,0.2055651,-0.14782864,0.2447898,-0.9359316,0.41034379601478577,-8.165851593017578,8.612696647644043,10.765769958496094,-100.88055419921875, -15.932138442993164
417,1215332903,0.20795687,-0.15974097,0.23401836,-0.93620104,1.5502361059188843,-7.907294273376465,6.309315204620361,56.21601867675781,-96.03672790527344, -15.155180931091309
418,1215349570,0.21046726,-0.17166719,0.21960376,-0.93702096,2.730182409286499,-6.230222702026367,7.526846408843994,80.71894836425781,-100.921875, -19.201013565063477
419,1215366237,0.2118191,-0.18547529,0.20729707,-0.93688816,3.6899256706237793,-4.98308801651001,10.207498550415039,61.626502990722656,-109.35655212402344, -25.627933502197266
420,1215382904,0.21015128,-0.2008184,0.19928236,-0.9358393,1.211925983428955,-3.917269706726074,13.285849571228027,26.56318473815918,-109.83995819091797, -40.44477844238281
421,1215399571,0.20470074,-0.21100786,0.1971084,-0.93526554,-4.331657886505127,-5.047829627990723,22.55509376525879,-8.203089714050293,-62.44052505493164, -50.35472106933594
422,1215416238,0.20396137,-0.2397971,0.16464476,-0.934767,-28.8491153717041,20.623096466064453,-83.52381134033203,167.2619171142578,-231.22640991210938, -89.38935852050781
423,1215432905,0.20661397,-0.25671583,0.101177305,-0.93870705,59.526512145996094,-35.32623291015625,27.99416160583496,393.66351318359375,-195.45021057128906, -111.48062896728516
424,1215449572,0.20441455,-0.28345352,0.08089968,-0.93344754,85.56887817382812,8.004194259643555,35.28101348876953,85.88674926757812,-209.63348388671875, -60.0237922668457
425,1215466239,0.19339743,-0.3162523,0.08797785,-0.9245766,25.454242706298828,13.57492733001709,20.785903930664062,-117.54844665527344,-210.99977111816406, -61.16217803955078
426,1215482906,0.18526055,-0.3374546,0.08513271,-0.918997,-10.107979774475098,-7.002841472625732,10.822253227233887,-30.93914794921875,-144.77345275878906, -61.56929397583008
427,1215499573,0.18229105,-0.346711,0.081540674,-0.9164674,-11.75728702545166,-6.843935966491699,12.922682762145996,2.8410444259643555,-66.46122741699219, -27.65944480895996
428,1215516240,0.18007818,-0.34872234,0.086687274,-0.91566914,-11.403000831604004,4.895257472991943,6.954049110412598,-40.31741714477539,-6.4612507820129395, -0.29992642998695374
429,1215532907,0.17967713,-0.34621572,0.09172706,-0.91620797,-12.284225463867188,2.9084317684173584,3.7424004077911377,-29.020870208740234,23.725971221923828, 11.880290031433105
430,1215549574,0.17936675,-0.33684683,0.09064277,-0.91986185,-11.236486434936523,0.7900439500808716,6.4379777908325195,20.12434959411621,66.51081085205078, -1.6726657152175903
431,1215566241,0.1808416,-0.31927377,0.08852471,-0.92602587,-3.541522741317749,-2.2791948318481445,10.565176963806152,42.41997146606445,121.60256958007812, 9.19298267364502
432,1215582908,0.18689336,-0.2926771,0.094289824,-0.93301684,3.958299160003662,-3.472849130630493,13.045782089233398,13.98613452911377,187.7808837890625, 60.05088806152344
433,1215599575,0.19948876,-0.25754607,0.10597157,-0.93949157,11.11933422088623,1.9664924144744873,12.144339561462402,-0.16687209904193878,244.88072204589844, 120.1004867553711
434,1215616242,0.21072604,-0.21186975,0.12673305,-0.9458566,20.063745498657227,9.198105812072754,11.269698143005371,-46.926055908203125,326.4522399902344, 135.2694549560547
435,1215632909,0.21208648,-0.15616432,0.16252859,-0.950903,27.278181076049805,2.6252849102020264,14.150191307067871,-145.95065307617188,420.57763671875, 103.65174865722656
436,1215649576,0.2084641,-0.08729893,0.19361173,-0.9546917,14.5378999710083,-16.19679832458496,18.036243438720703,-102.71131134033203,504.2854309082031, 83.12895202636719
437,1215666243,0.20605321,-0.018592663,0.18326487,-0.9610465,16.31878662109375,-13.87158203125,-6.848944664001465,173.47840881347656,444.2375183105469, 61.38127899169922
438,1215682910,0.20518842,0.0079913,0.2036446,-0.9572683,23.662261962890625,-4.945340633392334,-28.217973709106445,-101.77210998535156,206.12188720703125, 36.54847717285156
439,1215699577,0.20158896,0.0178152,0.22435588,-0.9532623,-7.25401496887207,0.5667055249214172,16.135562896728516,-127.59716796875,100.68330383300781, -5.590877532958984
440,1215716244,0.20151114,0.01448921,0.24982744,-0.9469793,1.0516597032546997,-14.099933624267578,-6.926958084106445,-181.0648193359375,15.740921020507812, 0.22282445430755615
441,1215732911,0.20134215,0.013147787,0.24198104,-0.94907,-2.08756947517395,-4.009912014007568,10.702970504760742,52.9848747253418,-18.794822692871094, -4.12247371673584
442,1215749578,0.200973,0.007141991,0.23437464,-0.95111907,0.20237889885902405,-6.008080959320068,6.964766502380371,44.91175079345703,-48.571075439453125, -13.157325744628906
443,1215766245,0.2006845,-0.0018927418,0.2255604,-0.95333356,1.3120570182800293,-5.969155311584473,11.357378959655762,48.91683578491211,-70.18846893310547, -17.673349380493164
444,1215782912,0.19946319,-0.012326853,0.21972263,-0.9548742,-0.2003794014453888,-5.532618999481201,13.1453275680542,26.440523147583008,-73.7859878540039, -24.967199325561523
445,1215799579,0.1989726,-0.02018501,0.21623585,-0.9556383,-0.8577944040298462,-6.141439437866211,14.168521881103516,13.446233749389648,-54.803367614746094, -14.998887062072754
446,1215816246,0.19941585,-0.023784911,0.21393016,-0.9559821,-1.643411636352539,-4.536332130432129,14.166264533996582,11.044746398925781,-26.645965576171875, -1.7831610441207886
447,1215832913,0.20055364,-0.024050713,0.21164943,-0.956245,-2.629903554916382,-5.190160751342773,13.23727798461914,15.457235336303711,-5.733844757080078, 7.802039623260498
448,1215849580,0.20136519,-0.022815727,0.20687531,-0.95714897,-2.898939847946167,-5.98004150390625,11.348610877990723,34.82028579711914,1.259093999862671, 6.536640644073486
449,1215866247,0.20144013,-0.021736002,0.2003392,-0.9585477,-3.8324649333953857,-5.007236003875732,10.46223258972168,46.821754455566406,-1.103480339050293, 0.4945402145385742
450,1215882914,0.2012579,-0.02190715,0.1969751,-0.95927906,-4.860572338104248,-3.040540933609009,10.568602561950684,23.24999237060547,-4.740932464599609, -1.5427325963974
451,1215899581,0.20130084,-0.023162924,0.19851157,-0.9589237,-4.861185550689697,-3.2759578227996826,10.482065200805664,-12.008432388305664,-5.635501861572266, 0.6949305534362793
452,1215916248,0.20128411,-0.024263341,0.20142962,-0.95829135,-5.30858850479126,-3.533351421356201,10.66551399230957,-21.285114288330078,-2.7146694660186768, 1.098152756690979
453,1215932915,0.2011642,-0.024970286,0.20247054,-0.9580789,-5.2343268394470215,-4.631737232208252,9.708794593811035,-7.801258563995361,-2.5634477138519287, 0.048837028443813324
454,1215949582,0.20163783,-0.025456186,0.2008904,-0.9582992,-5.041507720947266,-5.5620646476745605,9.06059741973877,10.493790626525879,-5.541694164276123, 3.196357488632202
455,1215966249,0.20271894,-0.026198847,0.19746199,-0.95876366,-5.505218029022217,-4.951242923736572,8.81421184539795,22.789508819580078,-10.647953033447266, 6.162359237670898
456,1215982916,0.20394802,-0.027577084,0.19501008,-0.958966,-5.799027442932129,-3.5354835987091064,8.938948631286621,15.161276817321777,-13.786121368408203, 6.793939590454102
457,1215999583,0.20523068,-0.029047884,0.19434421,-0.95878416,-5.980170249938965,-3.000859022140503,8.726472854614258,2.7576892375946045,-12.100381851196289, 7.876595497131348
458,1216016250,0.2061624,-0.030069148,0.19533652,-0.9583511,-5.014985084533691,-2.4407849311828613,8.571014404296875,-7.944001197814941,-6.443953990936279, 6.8243088722229
459,1216032917,0.2065854,-0.030608868,0.19837753,-0.95761794,-4.8091816902160645,-1.6031911373138428,9.07210636138916,-21.276491165161133,0.20042608678340912, 4.945749282836914
460,1216049584,0.20728095,-0.031674888,0.20380534,-0.9562922,-4.618409633636475,-2.4025943279266357,8.298529624938965,-38.50835418701172,-0.4190644323825836, 7.343540191650391
461,1216066251,0.20810035,-0.03357358,0.208932,-0.9549422,-4.009536266326904,-3.4687607288360596,7.278278827667236,-37.73174285888672,-6.548369884490967, 6.936923503875732
462,1216082918,0.20903625,-0.036243867,0.21205518,-0.9539513,-4.045224666595459,-3.621142864227295,7.072914123535156,-25.13822364807129,-14.607247352600098, 5.5968852043151855
463,1216099585,0.20976642,-0.03970928,0.21367715,-0.9532908,-3.835540771484375,-3.557375192642212,7.670413017272949,-16.002443313598633,-21.640079498291016, 2.2185583114624023
464,1216116252,0.21009967,-0.043958858,0.2148083,-0.9527766,-3.3299753665924072,-3.223048686981201,7.9929375648498535,-13.810310363769531,-26.903181076049805, -1.8973952531814575
465,1216132919,0.21000527,-0.049443707,0.2168304,-0.95207036,-2.7307918071746826,-3.042027235031128,7.988255500793457,-21.849756240844727,-33.16665267944336, -5.991549015045166
466,1216149586,0.20964351,-0.055535574,0.21942627,-0.9512191,-2.776078939437866,-3.106956958770752,8.299667358398438,-26.79810905456543,-35.987640380859375, -8.256185531616211
467,1216166253,0.20955361,-0.061295606,0.22141357,-0.9504242,-3.1223342418670654,-3.9421064853668213,8.044300079345703,-22.160066604614258,-35.109004974365234, -6.305028438568115
468,1216182920,0.20995888,-0.06712274,0.22271541,-0.94963664,-2.5952682495117188,-4.655158996582031,7.849498748779297,-17.55816078186035,-37.31612014770508, -3.486997604370117
469,1216199587,0.21031104,-0.07269031,0.22302838,-0.94907516,-2.1653997898101807,-4.8359479904174805,8.48038101196289,-10.398720741271973,-36.88896942138672, -4.232149600982666
470,1216216254,0.21073903,-0.078742705,0.22271016,-0.948572,-1.5600402355194092,-5.7369279861450195,8.480721473693848,-6.847341060638428,-41.07341766357422, -4.890544414520264
471,1216232921,0.21108304,-0.0863485,0.22262318,-0.94785386,-1.4508750438690186,-5.469409942626953,8.041275024414062,-10.965415954589844,-50.87227249145508, -7.387479782104492
472,1216249588,0.2115301,-0.09613706,0.2255901,-0.9461089,-1.9198616743087769,-3.794832229614258,8.64090347290039,-35.53455352783203,-61.447696685791016, -6.763448715209961
473,1216266255,0.21145792,-0.10747268,0.22895028,-0.94409585,-1.017029881477356,-3.1007003784179688,8.817481994628906,-41.11117935180664,-70.33068084716797, -11.90585994720459
474,1216282922,0.21114698,-0.1191606,0.23226075,-0.9419515,-0.472160667181015,-5.155160903930664,8.513068199157715,-41.702796936035156,-72.42214965820312, -13.865811347961426
475,1216299589,0.2113156,-0.1289281,0.23202641,-0.9406843,-0.045561857521533966,-6.895199775695801,10.419110298156738,-14.160503387451172,-65.18576049804688, -11.878042221069336
476,1216316256,0.21212357,-0.13652715,0.22836098,-0.9403273,-0.3306075930595398,-6.716329574584961,12.305989265441895,13.217086791992188,-56.364288330078125, -8.6503324508667
477,1216332923,0.21301705,-0.14295754,0.22159012,-0.9407895,-0.4053359031677246,-6.143337726593018,11.950711250305176,36.37751388549805,-52.71493911743164, -10.372514724731445
478,1216349590,0.21441345,-0.15066098,0.21502288,-0.940794,0.013049181550741196,-5.838742733001709,6.7036848068237305,33.00006103515625,-61.88373947143555, -8.18803596496582
479,1216366257,0.21576838,-0.15838046,0.20699345,-0.94101715,1.815885066986084,-4.994386672973633,6.29899787902832,42.72824478149414,-63.87110137939453, -10.317320823669434
480,1216382924,0.21587719,-0.16793086,0.20073675,-0.94069177,3.5651583671569824,-2.914475917816162,11.495187759399414,26.410476684570312,-71.90929412841797, -18.231788635253906
481,1216399591,0.21233362,-0.17855775,0.202033,-0.9392626,1.3609784841537476,-2.705296516418457,17.776470184326172,-29.799549102783203,-63.875274658203125, -32.963294982910156
482,1216416258,0.21026652,-0.19451737,0.19487044,-0.93807065,-16.305940628051758,3.558692455291748,-17.478275299072266,19.15183448791504,-112.43576049804688, -41.55997848510742
483,1216432925,0.21251635,-0.2384128,0.15410961,-0.9350115,37.187469482421875,-22.33159065246582,-34.230770111083984,198.7995147705078,-349.8484191894531, -93.4700698852539
484,1216449592,0.21558496,-0.25576413,0.09419251,-0.9376757,9.253495216369629,-13.70641040802002,27.931182861328125,368.4604187011719,-198.19680786132812, -99.69581604003906
485,1216466259,0.20752484,-0.28165382,0.084032595,-0.93302906,84.95484161376953,12.735346794128418,17.266942977905273,10.595291137695312,-185.00550842285156, -78.60426330566406
486,1216482926,0.19509882,-0.31267077,0.092480026,-0.9249978,7.17543363571167,11.556856155395508,27.489086151123047,-126.57901763916016,-194.576416015625, -68.42461395263672
487,1216499593,0.1886423,-0.32631576,0.08844172,-0.92201424,-7.37508487701416,-6.424177169799805,12.610466957092285,-7.902124404907227,-93.80388641357422, -52.95750045776367
488,1216516260,0.19036302,-0.32857096,0.08254912,-0.92140585,-10.240935325622559,-2.121877908706665,8.574203491210938,38.435916900634766,-23.798542022705078, -1.5006459951400757
489,1216532927,0.1924905,-0.32384315,0.09038348,-0.9219023,-12.88953971862793,6.692951202392578,4.934008598327637,-37.86163330078125,40.512413024902344, 34.56414031982422
490,1216549594,0.1944316,-0.3116782,0.09621974,-0.92509186,-9.897981643676758,2.4104857444763184,2.060683488845825,-14.192863464355469,90.96066284179688, 29.998538970947266
491,1216566261,0.19723564,-0.28765345,0.09934033,-0.93192554,-7.125696182250977,-1.3075894117355347,6.328434944152832,23.136690139770508,169.90011596679688, 32.632080078125
492,1216582928,0.20064004,-0.25167763,0.11255721,-0.9400706,0.05690917372703552,-0.6350765228271484,8.126343727111816,-23.29720115661621,262.30499267578125, 62.80436706542969
493,1216599595,0.20706415,-0.19802937,0.13943422,-0.947875,13.679647445678711,-1.3925056457519531,9.92596435546875,-82.31511688232422,392.5970764160156, 120.13006591796875
494,1216616262,0.2128218,-0.12598124,0.17012389,-0.9538835,29.87413215637207,1.4426766633987427,14.929808616638184,-83.64183044433594,516.5301513671875, 141.2404327392578
495,1216632929,0.21359262,-0.04364107,0.20230055,-0.95475054,15.10392951965332,-3.6789238452911377,16.308320999145508,-88.710205078125,587.8261108398438, 130.0675048828125
496,1216649596,0.20416547,0.008663593,0.20258617,-0.95770574,32.79018783569336,1.0224885940551758,-33.41659927368164,76.57384490966797,358.77325439453125, 7.113737106323242
497,1216666263,0.19947866,0.018758371,0.21800314,-0.95516014,-0.03165091574192047,-21.53025245666504,-10.559282302856445,-90.2236557006836,96.01211547851562, -14.127584457397461
498,1216682930,0.1923834,0.00064777303,0.23311575,-0.95322895,-4.220395088195801,4.792773723602295,-5.055440425872803,-125.75357818603516,-86.7418441772461, -71.67040252685547
499,1216699597,0.19532834,-0.025356563,0.22691709,-0.9537885,4.534727573394775,-24.5694637298584,5.349784851074219,7.663158893585205,-181.74891662597656, -24.07394027709961
500,1216716264,0.19857812,-0.050457895,0.2064539,-0.95676404,3.081498146057129,-3.4326119422912598,14.220235824584961,106.15081024169922,-196.12741088867188, -24.04221534729004
501,1216732931,0.20270517,-0.070291206,0.19193123,-0.9576702,3.301229476928711,-5.502076625823975,18.005603790283203,71.61774444580078,-155.2754669189453, -5.889659404754639
502,1216749598,0.20387231,-0.08412631,0.18834251,-0.9570194,2.622157096862793,-1.753044605255127,21.358112335205078,4.508262634277344,-97.3429183959961, -9.994413375854492
503,1216766265,0.20131432,-0.09111259,0.19395724,-0.9557991,0.5336360931396484,-3.469252824783325,20.885488510131836,-49.35761642456055,-34.85715103149414, -19.499237060546875
504,1216782932,0.19840471,-0.09074775,0.20181035,-0.9548158,0.12181781977415085,-5.632382869720459,17.852779388427734,-53.79983139038086,17.168193817138672, -10.923892974853516
505,1216799599,0.19705926,-0.08628069,0.20852745,-0.9540649,-1.207248330116272,-6.884410858154297,15.592635154724121,-39.436561584472656,40.518653869628906, 4.011755466461182
506,1216816266,0.19756718,-0.08056322,0.20980549,-0.9541796,-1.1527131795883179,-8.077713966369629,11.727275848388672,0.29684656858444214,39.193511962890625, 13.555597305297852
507,1216832933,0.19903754,-0.07582566,0.20532879,-0.9552356,-1.0373591184616089,-7.6940765380859375,9.348252296447754,38.641029357910156,24.066761016845703, 13.977659225463867
508,1216849600,0.19999324,-0.07480726,0.20103121,-0.9560299,-1.297054648399353,-4.765254020690918,10.135814666748047,31.7667179107666,0.46063971519470215, 5.786013126373291
509,1216866267,0.20014712,-0.078736365,0.20399897,-0.95505303,-2.224072217941284,-3.607003688812256,12.524587631225586,-25.645841598510742,-21.88976287841797, -0.15888899564743042
510,1216882934,0.19986965,-0.08394752,0.2096532,-0.9534415,-2.474687099456787,-4.940240383148193,13.163594245910645,-46.1776237487793,-26.372493743896484, -2.4688711166381836
511,1216899601,0.19985616,-0.08675581,0.21238525,-0.95258784,-2.802886724472046,-5.450012683868408,13.137715339660645,-22.469694137573242,-14.602642059326172, -0.011269616894423962
512,1216916268,0.20080858,-0.08694948,0.2130335,-0.9522252,-3.148371696472168,-5.975172519683838,12.97264289855957,-3.9283363819122314,-1.483949065208435, 8.203628540039062
513,1216932935,0.20249693,-0.08487053,0.21220714,-0.9522395,-3.150129556655884,-6.552783966064453,12.687382698059082,9.86718463897705,10.479752540588379, 14.934178352355957
514,1216949602,0.20468059,-0.08081355,0.20951967,-0.9527207,-3.3457436561584473,-6.311561584472656,11.266024589538574,25.791379928588867,20.36297035217285, 19.312511444091797
515,1216966269,0.2066202,-0.0764518,0.20786327,-0.95302474,-4.205212593078613,-4.083904266357422,10.808426856994629,19.09048080444336,24.035764694213867, 18.96000862121582
516,1216982936,0.20774972,-0.07335822,0.2100652,-0.95253944,-4.441993236541748,-3.097064256668091,10.344137191772461,-9.547966957092285,21.91600799560547, 14.973410606384277
517,1216999603,0.2082646,-0.07142047,0.21444295,-0.9515983,-4.031705856323242,-3.807375431060791,9.783167839050293,-26.425405502319336,18.076704025268555, 11.011513710021973
518,1217016270,0.20854214,-0.069969594,0.21670876,-0.95113176,-3.728195905685425,-4.585519313812256,9.527053833007812,-12.724559783935547,12.41826343536377, 7.009507179260254
519,1217032937,0.20930736,-0.06801469,0.21414578,-0.951686,-3.9559152126312256,-5.297736167907715,9.746652603149414,21.333263397216797,8.527132034301758, 7.148755073547363
520,1217049604,0.21089108,-0.06498081,0.20683868,-0.9531634,-3.9360461235046387,-4.7164154052734375,8.95483112335205,55.67737579345703,7.95707893371582, 10.53279972076416
521,1217066271,0.2126156,-0.061660863,0.19894373,-0.95468026,-3.60738205909729,-2.839550018310547,7.898371696472168,60.068275451660156,8.767152786254883, 11.528443336486816
522,1217082938,0.21377032,-0.05935186,0.19530039,-0.9553206,-3.0694375038146973,-1.4722886085510254,7.3753767013549805,29.234651565551758,8.724503517150879, 9.479774475097656
523,1217099605,0.21399745,-0.05868737,0.19758418,-0.9548412,-2.4882853031158447,-1.7622265815734863,6.807143688201904,-14.012104988098145,7.397806167602539, 5.233262062072754
524,1217116272,0.21318266,-0.060021173,0.20372052,-0.95365024,-2.7523553371429443,-2.1677956581115723,6.58842658996582,-43.645084381103516,1.055436134338379, -1.7304186820983887
525,1217132939,0.21194369,-0.06284591,0.21058016,-0.95225346,-3.317643880844116,-2.9869353771209717,6.872296333312988,-51.04743194580078,-7.172328948974609, -6.012203216552734
526,1217149606,0.21121636,-0.06520226,0.21499082,-0.95127046,-3.2904725074768066,-4.886202335357666,7.8884382247924805,-33.51655960083008,-8.260808944702148, -3.6601595878601074
527,1217166273,0.21179478,-0.065650165,0.21429409,-0.95126814,-3.6424598693847656,-5.864100933074951,8.146562576293945,4.700962066650391,-4.709011077880859, 3.9734716415405273
528,1217182940,0.2132581,-0.06428426,0.20856884,-0.95230645,-3.0919008255004883,-5.092474460601807,7.301040172576904,42.176048278808594,-1.0287151336669922, 8.63731861114502
529,1217199607,0.21505865,-0.06307462,0.20277923,-0.95323247,-2.3592681884765625,-4.036440372467041,7.0283918380737305,42.36433792114258,-2.7034385204315186, 10.748998641967773
530,1217216274,0.2164474,-0.06364684,0.20014526,-0.9534368,-2.3883867263793945,-3.4636759757995605,7.4661383628845215,17.86395835876465,-9.473320960998535, 7.995522975921631
531,1217232941,0.21710959,-0.06698227,0.20232534,-0.9525971,-2.4144556522369385,-3.1966779232025146,6.640738010406494,-19.56378746032715,-19.89754867553711, 3.0819780826568604
532,1217249608,0.21728908,-0.072775565,0.2083094,-0.95083994,-1.9969539642333984,-3.665571451187134,6.335902214050293,-49.650638580322266,-30.085533142089844, -0.3894329369068146
533,1217266275,0.21728271,-0.08027592,0.21569277,-0.948589,-1.330553412437439,-3.6518824100494385,7.1371235847473145,-62.151363372802734,-39.14922332763672, -2.625467300415039
534,1217282942,0.21726483,-0.088707395,0.22450389,-0.9457934,-0.7390521764755249,-3.7253944873809814,8.343789100646973,-73.67344665527344,-43.380165100097656, -2.4928975105285645
535,1217299609,0.21773164,-0.099746205,0.2337289,-0.94234526,-0.8082841038703918,-4.1283769607543945,4.530913352966309,-80.97959899902344,-60.866058349609375, -2.149674892425537
536,1217316276,0.21829721,-0.110972725,0.23570085,-0.94046605,-0.039514973759651184,-6.247097969055176,5.465555667877197,-31.678071975708008,-72.0281982421875, -9.147123336791992
537,1217332943,0.21936451,-0.12176945,0.22982031,-0.94033736,1.0332398414611816,-6.8550801277160645,8.915691375732422,22.97430992126465,-80.51622772216797, -13.830195426940918
538,1217349610,0.22008401,-0.13360475,0.22021006,-0.9408615,1.4897496700286865,-6.072306156158447,10.05430793762207,46.27338409423828,-91.75955963134766, -21.825199127197266
539,1217366277,0.21964614,-0.14699666,0.21318763,-0.94058424,1.0601518154144287,-4.7018938064575195,8.9993314743042,24.904796600341797,-96.8950424194336, -28.074419021606445
540,1217382944,0.21663593,-0.15916353,0.20712088,-0.9406578,-1.5158796310424805,-3.1968724727630615,14.259760856628418,18.48663902282715,-83.40587615966797, -42.4766731262207
541,1217399611,0.21630602,-0.19447628,0.18527152,-0.9386508,-20.851661682128906,18.233976364135742,-67.73746490478516,86.05502319335938,-262.7998046875, -72.29595947265625
542,1217416278,0.21778141,-0.22720209,0.12937066,-0.9403266,56.73546600341797,-41.332664489746094,25.745014190673828,316.8501281738281,-294.3882141113281, -108.40665435791016
543,1217432945,0.21678302,-0.24856111,0.095453724,-0.9392078,19.16714859008789,-3.6278905868530273,25.486757278442383,185.4693145751953,-189.6256866455078, -75.63751220703125
544,1217449612,0.20427828,-0.27043605,0.09484595,-0.9360232,68.7363052368164,19.78923797607422,15.721952438354492,-51.4526481628418,-139.1666259765625, -90.24333953857422
545,1217466279,0.19378497,-0.29697105,0.101313695,-0.92951125,-0.22153016924858093,4.846848487854004,16.28136444091797,-102.06124877929688,-166.28787231445312, -62.291263580322266
546,1217482946,0.18976292,-0.30399972,0.09555679,-0.9286782,-12.906228065490723,-10.691887855529785,19.299501419067383,19.18931007385254,-50.8653564453125, -39.85294723510742
547,1217499613,0.19316201,-0.3040766,0.094497666,-0.9280605,-11.881705284118652,4.966887474060059,7.916744709014893,13.948128700256348,-4.926321029663086, 21.551355361938477
548,1217516280,0.19742058,-0.29773405,0.10379702,-0.9282272,-9.467052459716797,8.577458381652832,4.475037097930908,-41.377769470214844,50.754520416259766, 51.81928253173828
549,1217532947,0.20240769,-0.28196022,0.109641284,-0.9314015,-5.669140338897705,1.883878231048584,2.450545310974121,-2.9713473320007324,111.80398559570312, 52.06355285644531
550,1217549614,0.20704134,-0.25372112,0.1161997,-0.9376872,-3.0173356533050537,-2.5736780166625977,7.148190021514893,11.422422409057617,198.88719177246094, 56.25168991088867
551,1217566281,0.21163693,-0.21069813,0.13746841,-0.9444145,6.720617294311523,-1.740403652191162,10.434274673461914,-62.121826171875,315.9898681640625, 92.84956359863281
552,1217582948,0.21681641,-0.14961655,0.16951476,-0.94966865,20.252662658691406,-2.706296920776367,11.831981658935547,-106.44401550292969,446.5023498535156, 131.5226593017578
553,1217599615,0.21860561,-0.07184225,0.20084812,-0.95221347,28.755266189575195,0.22510376572608948,15.585610389709473,-83.56611633300781,556.0148315429688, 132.2224578857422
554,1217616282,0.21555243,0.0050175446,0.20431292,-0.9548657,11.514213562011719,-7.283263206481934,-10.871334075927734,95.41889953613281,514.9302368164062, 85.320556640625
555,1217632949,0.21063253,0.030516794,0.22219488,-0.95148945,20.12019157409668,-6.432547092437744,-39.8842658996582,-83.8438949584961,201.51654052734375, 9.275655746459961
556,1217649616,0.20087184,0.027628338,0.2340613,-0.95084304,-3.848162889480591,3.52321195602417,5.374362468719482,-80.39625549316406,13.91533374786377, -68.43923950195312
557,1217666283,0.20053627,0.0046173395,0.24846025,-0.94764537,1.4981951713562012,-20.510284423828125,-6.307095050811768,-129.99855041503906,-127.19334411621094, -39.64009475708008
558,1217682950,0.20258293,-0.01803471,0.2340111,-0.9507228,1.7307757139205933,-10.195117950439453,11.127477645874023,68.94708251953125,-169.2980194091797, -30.388511657714844
559,1217699617,0.20453039,-0.04079592,0.21552828,-0.95396584,3.6475400924682617,-8.311798095703125,14.941916465759277,95.05986022949219,-176.72120666503906, -29.32086944580078
560,1217716284,0.20605835,-0.059888512,0.20697714,-0.95452297,2.82308292388916,-3.2995877265930176,21.589797973632812,30.995939254760742,-138.77426147460938, -20.056419372558594
561,1217732951,0.20520885,-0.06976629,0.20454392,-0.95455945,0.6906472444534302,-6.035159587860107,22.769908905029297,2.170079231262207,-66.42640686035156, -19.272001266479492
562,1217749618,0.20328392,-0.06943809,0.20587444,-0.9547092,0.3903639018535614,-4.476309299468994,21.034944534301758,-8.479832649230957,7.444766044616699, -10.324858665466309
563,1217766285,0.20148757,-0.06408829,0.21588467,-0.953252,-1.0582531690597534,-4.59965705871582,17.53070068359375,-60.652217864990234,51.59468078613281, 4.02296781539917
564,1217782952,0.20100695,-0.057490118,0.22556779,-0.95153064,-2.237741231918335,-8.243132591247559,12.267359733581543,-56.5935173034668,57.24602508544922, 14.72409725189209
565,1217799619,0.20168264,-0.052415535,0.2250056,-0.95181364,-2.772871732711792,-8.190317153930664,8.789494514465332,11.918716430664062,32.10231399536133, 13.097981452941895
566,1217816286,0.20232059,-0.05229884,0.21847774,-0.9532044,-3.1936235427856445,-5.43759822845459,8.70216178894043,45.81160354614258,-8.17559814453125, 1.4796890020370483
567,1217832953,0.20219138,-0.057710245,0.21230693,-0.95431346,-2.740699291229248,-5.002097129821777,9.962837219238281,35.09233474731445,-42.879276275634766, -11.347627639770508
568,1217849620,0.2011577,-0.0648268,0.20734937,-0.95516455,-2.2792770862579346,-3.7716753482818604,11.491362571716309,24.032024383544922,-51.18143081665039, -18.944427490234375
569,1217866287,0.20019916,-0.07065221,0.20642377,-0.95515335,-2.706869602203369,-4.510417461395264,12.332301139831543,-1.8599663972854614,-37.633975982666016, -13.628196716308594
570,1217882954,0.19994058,-0.07420207,0.2086793,-0.95444804,-3.2912139892578125,-5.691816329956055,11.956963539123535,-20.261802673339844,-19.661746978759766, -3.3111677169799805
571,1217899621,0.20052047,-0.07504742,0.21199432,-0.9535292,-3.3272440433502197,-6.63016939163208,12.349406242370605,-23.365718841552734,-1.794006586074829, 6.89335823059082
572,1217916288,0.20230566,-0.073045805,0.21360467,-0.9529481,-4.031803607940674,-7.548458576202393,11.640624046325684,-7.135429382324219,12.914146423339844, 17.58648681640625
573,1217932955,0.20435046,-0.06977688,0.2135036,-0.95277935,-4.122629165649414,-5.908498287200928,10.869131088256836,6.597689628601074,18.635013580322266, 19.698749542236328
574,1217949622,0.20611365,-0.06646434,0.21364829,-0.952604,-4.725921154022217,-4.5542778968811035,9.98112964630127,4.914519786834717,19.64739227294922, 18.029356002807617
575,1217966289,0.2074894,-0.06428569,0.21578407,-0.9519731,-4.039107322692871,-4.149973392486572,9.233375549316406,-10.577041625976562,15.36992359161377, 15.364916801452637
576,1217982956,0.20871973,-0.064039454,0.21986946,-0.9507853,-4.44370698928833,-4.385643482208252,9.65223217010498,-26.98569107055664,5.443991184234619, 13.187325477600098
577,1217999623,0.21027575,-0.065184,0.22346047,-0.9495265,-4.4824700355529785,-5.03436803817749,10.06878662109375,-25.713138580322266,-4.910903453826904, 13.081999778747559
578,1218016290,0.21247819,-0.06520765,0.22238861,-0.94928616,-3.9811863899230957,-5.4430999755859375,9.718597412109375,8.20601749420166,-4.901033878326416, 15.445146560668945
579,1218032957,0.21514747,-0.06364065,0.2173666,-0.94995433,-3.5620009899139404,-4.344794273376465,9.167642593383789,37.915836334228516,-0.6230199337005615, 17.811237335205078
580,1218049624,0.21725363,-0.061545752,0.2132233,-0.9505519,-3.459014415740967,-2.141141414642334,9.6931791305542,32.60517120361328,4.909893989562988, 15.399225234985352
581,1218066291,0.2186433,-0.06018918,0.21414885,-0.950112,-2.526524066925049,-1.9226539134979248,9.066431999206543,-3.4651832580566406,8.242947578430176, 13.31849193572998
582,1218082958,0.21910256,-0.06005352,0.21952702,-0.9487864,-2.3307478427886963,-2.663914442062378,8.224000930786133,-36.09236526489258,7.946412086486816, 8.608440399169922
583,1218099625,0.21847631,-0.060964208,0.22643708,-0.9472475,-2.461778163909912,-3.0201563835144043,9.326370239257812,-48.44271469116211,4.962803363800049, 0.8925780653953552
584,1218116292,0.21820357,-0.060653985,0.23191416,-0.94600433,-3.204824686050415,-4.116358280181885,10.111770629882812,-36.67748260498047,10.319953918457031, 4.040661334991455
585,1218132959,0.21888836,-0.058774136,0.23360644,-0.94554836,-2.888927459716797,-5.429039001464844,9.079618453979492,-8.055267333984375,13.633342742919922, 9.999665260314941
586,1218149626,0.2199177,-0.055890568,0.23111536,-0.94609636,-2.316756248474121,-5.19971227645874,8.054282188415527,22.409141540527344,13.69697093963623, 10.640548706054688
587,1218166293,0.22089915,-0.053767905,0.22817089,-0.94670534,-2.3305931091308594,-4.5625410079956055,8.224772453308105,24.29117774963379,8.146363258361816, 8.846117973327637
588,1218182960,0.22167155,-0.053430192,0.22617453,-0.9470227,-2.2610690593719482,-4.605825424194336,8.515141487121582,14.875337600708008,-1.8268276453018188, 5.471165657043457
589,1218199627,0.22200835,-0.055213936,0.2246172,-0.9472123,-1.9234402179718018,-4.827761173248291,8.043766975402832,8.425887107849121,-14.354804039001465, -0.31471630930900574
590,1218216294,0.22236027,-0.05871434,0.22405767,-0.9470517,-2.12929630279541,-4.144423961639404,7.85718297958374,-1.2246736288070679,-24.179372787475586, -1.9614499807357788
591,1218232961,0.22259775,-0.063213214,0.22441123,-0.94662255,-2.0573532581329346,-2.8684582710266113,8.243188858032227,-9.15803050994873,-29.230859756469727, -3.473900556564331
592,1218249628,0.22278917,-0.06821632,0.22603263,-0.945844,-1.5368105173110962,-3.093041181564331,8.084867477416992,-18.75185775756836,-30.666597366333008, -3.4750828742980957
593,1218266295,0.22314239,-0.07422989,0.22819889,-0.94478714,-0.6632727980613708,-3.9190964698791504,6.960475921630859,-24.2100830078125,-36.79576110839844, -3.3182759284973145
594,1218282962,0.22401352,-0.08353808,0.23143382,-0.9430154,-0.6845130324363708,-4.239724636077881,3.810702085494995,-37.068572998046875,-57.739837646484375, -3.4876372814178467
595,1218299629,0.22450592,-0.09505203,0.23062308,-0.9420061,0.21887889504432678,-5.083949565887451,5.339122295379639,-13.238115310668945,-77.239013671875, -12.960005760192871
596,1218316296,0.22460186,-0.10746392,0.22544555,-0.9419024,1.1082383394241333,-4.566586494445801,7.989291191101074,14.840356826782227,-88.57718658447266, -21.206655502319336
597,1218332963,0.22340329,-0.12201641,0.21994449,-0.94171524,1.0011779069900513,-3.685325860977173,7.497453689575195,12.541783332824707,-100.99366760253906, -33.015724182128906
598,1218349630,0.22080499,-0.13640992,0.215059,-0.94148135,-0.7025054097175598,-3.4369335174560547,9.794537544250488,7.548006057739258,-96.94142150878906, -41.24855041503906
599,1218366297,0.21592903,-0.14815657,0.21028395,-0.9419156,-3.573451519012451,-2.7761993408203125,15.637186050415039,9.692401885986328,-75.65850067138672, -52.995025634765625
600,1218382964,0.2132682,-0.18621773,0.18299587,-0.94146293,-25.36300277709961,18.953399658203125,-77.05709838867188,117.41032409667969,-283.7458190917969, -98.35160064697266
601,1218399631,0.21730474,-0.21716161,0.11781706,-0.9443192,76.54158020019531,-52.29557418823242,44.273258209228516,386.0416259765625,-297.7366638183594, -99.45984649658203
602,1218416298,0.21196352,-0.24074142,0.0860292,-0.9432466,43.25481414794922,3.5586752891540527,28.940261840820312,163.10848999023438,-197.613037109375, -98.52946472167969
603,1218432965,0.20147157,-0.26853865,0.100217484,-0.93661785,34.381229400634766,21.57942008972168,14.107137680053711,-153.09176635742188,-163.8380889892578, -50.12574768066406
604,1218449632,0.19223586,-0.2897039,0.10205866,-0.9320414,-13.216691017150879,-2.9396657943725586,11.246617317199707,-60.75755310058594,-135.10052490234375, -62.94261932373047
605,1218466299,0.19126114,-0.29480493,0.09394214,-0.93149567,-13.654511451721191,-8.32726764678955,20.387619018554688,43.555946350097656,-43.211753845214844, -23.93531608581543
606,1218482966,0.19495589,-0.2921275,0.099179454,-0.9310303,-9.472575187683105,10.902399063110352,6.700496196746826,-22.20836639404297,21.153030395507812, 37.875244140625
607,1218499633,0.20076954,-0.28433803,0.10593116,-0.9314623,-7.696699142456055,4.300473690032959,4.506949424743652,-20.279813766479492,56.163211822509766, 56.79550552368164
608,1218516300,0.20548795,-0.26584437,0.11060982,-0.93534327,-4.571420669555664,0.3635081648826599,3.4276633262634277,8.085406303405762,129.32113647460938, 48.77072525024414
609,1218532967,0.20958318,-0.2348707,0.121362396,-0.9413724,-0.41197365522384644,-1.2725708484649658,7.069036483764648,-12.884634017944336,222.54107666015625, 62.320106506347656
610,1218549634,0.21339326,-0.18572506,0.14681984,-0.9478468,10.196382522583008,-0.9251189827919006,11.273530960083008,-82.02198028564453,362.421875, 98.76428985595703
611,1218566301,0.21944627,-0.11796633,0.17758168,-0.9520464,22.4134578704834,-3.245990514755249,13.686070442199707,-88.76728057861328,486.6481018066406, 142.36636352539062
612,1218582968,0.22121412,-0.033942025,0.20754132,-0.9522809,20.890350341796875,-4.280544281005859,13.146591186523438,-67.29959869384766,594.4026489257812, 139.60543823242188
613,1218599635,0.21499231,0.024527276,0.2043222,-0.95468795,29.64327049255371,3.1356353759765625,-39.47117614746094,112.44304656982422,388.1145324707031, 39.67076873779297
614,1218616302,0.21355495,0.041617014,0.21765438,-0.95146674,-0.14718732237815857,-17.29551887512207,-14.542193412780762,-66.21906280517578,135.10606384277344, 18.49163055419922
615,1218632969,0.20618428,0.023923384,0.2397211,-0.94839317,-3.793119192123413,8.326160430908203,-10.965341567993164,-171.79791259765625,-69.68206024169922, -77.75527954101562
616,1218649636,0.20786446,-0.0030043186,0.24142802,-0.9478902,3.7778196334838867,-19.975929260253906,2.471824884414673,-49.199954986572266,-173.22190856933594, -36.07099151611328
617,1218666303,0.20845774,-0.031114599,0.22437254,-0.95143795,4.799482345581055,-8.137409210205078,10.739408493041992,77.35383605957031,-207.9574737548828, -46.84490966796875
618,1218682970,0.21005042,-0.058798227,0.20963538,-0.95313954,6.423816680908203,-6.361372470855713,18.925884246826172,60.190818786621094,-203.7359619140625, -36.484458923339844
619,1218699637,0.21082588,-0.08161639,0.20916106,-0.95139,2.9753594398498535,-4.393814563751221,23.81698226928711,-31.551513671875,-151.3964385986328, -24.044445037841797
620,1218716304,0.20950879,-0.09281106,0.2093933,-0.9506034,0.6569311618804932,-7.2978668212890625,23.986879348754883,-19.112882614135742,-70.7563247680664, -21.99594497680664
621,1218732971,0.20759955,-0.09303926,0.21204627,-0.95041186,-0.4471438229084015,-3.5132696628570557,21.856101989746094,-18.64224624633789,5.6429290771484375, -9.387556076049805
622,1218749638,0.2054413,-0.088109195,0.22170164,-0.9491467,-0.7787746787071228,-5.3699870109558105,17.569087982177734,-58.77650451660156,49.011619567871094, 2.520347833633423
623,1218766305,0.20357156,-0.0816657,0.2276465,-0.9487184,-0.6557013988494873,-9.363421440124512,13.423482894897461,-30.974382400512695,53.7020149230957, 3.279001474380493
624,1218782972,0.20198111,-0.07751161,0.22232383,-0.95066696,-1.0972723960876465,-9.003347396850586,10.869526863098145,43.224830627441406,23.889488220214844, -8.146728515625
625,1218799639,0.20073777,-0.0795976,0.21530509,-0.95237195,-1.7365341186523438,-5.85048246383667,11.086790084838867,45.48870849609375,-19.920442581176758, -15.997640609741211
626,1218816306,0.19972269,-0.087239884,0.21245523,-0.95255613,-1.7427343130111694,-6.408103942871094,12.562525749206543,8.405506134033203,-51.73444366455078, -18.360675811767578
627,1218832973,0.19894108,-0.09516617,0.20993647,-0.95251906,-1.7556332349777222,-7.220507621765137,12.76297664642334,5.677700996398926,-53.628787994384766, -16.75738525390625
628,1218849640,0.19866182,-0.09938794,0.20595175,-0.953016,-1.9509437084197998,-6.714894771575928,13.28063678741455,21.46455192565918,-31.765003204345703, -9.825072288513184
629,1218866307,0.19944392,-0.10023549,0.20357393,-0.95327467,-2.8438947200775146,-7.267054080963135,14.539304733276367,15.946990966796875,-9.145895957946777, 3.315305233001709
630,1218882974,0.20073092,-0.0980985,0.20279688,-0.9533925,-3.239427328109741,-6.110918045043945,13.506051063537598,9.7173490524292,11.7808256149292, 12.078689575195312
631,1218899641,0.20221211,-0.0941529,0.20413382,-0.95319206,-3.477736234664917,-5.557896614074707,11.672119140625,-1.9455091953277588,26.038328170776367, 17.71989631652832
632,1218916308,0.2035992,-0.08947453,0.2051246,-0.9531347,-3.3584144115448,-5.134071350097656,10.613335609436035,1.4898525476455688,30.5518798828125, 17.691518783569336
633,1218932975,0.20461233,-0.08443298,0.20541322,-0.9533155,-3.1829612255096436,-4.4344658851623535,10.432021141052246,6.710513591766357,32.59226608276367, 14.971019744873047
634,1218949642,0.20599128,-0.07991005,0.20611364,-0.9532573,-3.0807130336761475,-4.749758243560791,9.509997367858887,3.156682014465332,29.08776092529297, 17.197290420532227
635,1218966309,0.20791519,-0.07653939,0.20710155,-0.9529018,-3.3307225704193115,-4.6081976890563965,9.089540481567383,-0.47757574915885925,20.97947883605957, 19.700069427490234
636,1218982976,0.21005723,-0.07468055,0.20956111,-0.95204145,-4.219271659851074,-4.000658988952637,9.909461975097656,-12.881657600402832,12.57285213470459, 20.45749855041504
637,1218999643,0.21198738,-0.07346195,0.21377937,-0.9507698,-5.124014854431152,-4.130122184753418,10.750655174255371,-26.022274017333984,10.981392860412598, 19.62749481201172
638,1219016310,0.21318477,-0.0727921,0.21936397,-0.9492803,-4.5164408683776855,-3.31803035736084,9.65538215637207,-36.44712448120117,10.312994956970215, 15.016962051391602
639,1219032977,0.21345372,-0.072199196,0.22495775,-0.94795525,-3.0255181789398193,-3.7912757396698,8.359004974365234,-36.845542907714844,11.271217346191406, 8.585904121398926
640,1219049644,0.2137713,-0.07125379,0.22840887,-0.94712955,-2.899756908416748,-4.840187072753906,7.9030070304870605,-21.571945190429688,10.572349548339844, 7.636782646179199
641,1219066311,0.21454954,-0.070237026,0.22950053,-0.94676554,-3.0141820907592773,-4.8185858726501465,7.923872470855713,-5.148693561553955,7.048855781555176, 8.899808883666992
642,1219082978,0.21547435,-0.06907614,0.22946846,-0.9466486,-3.252638816833496,-4.51201057434082,9.05217456817627,2.842095136642456,6.193351745605469, 9.159738540649414
643,1219099645,0.21675918,-0.066443436,0.22791901,-0.946918,-3.5127086639404297,-4.200806617736816,8.972396850585938,15.677651405334473,13.114877700805664, 12.517292976379395
644,1219116312,0.21818519,-0.06169943,0.22476153,-0.9476661,-3.2354421615600586,-3.9553475379943848,8.059478759765625,30.10449981689453,24.433542251586914, 15.283467292785645
645,1219132979,0.21961908,-0.055957425,0.22122943,-0.9485219,-3.0266895294189453,-3.49839186668396,7.28014612197876,34.208885192871094,30.381174087524414, 16.544553756713867
646,1219149646,0.22057325,-0.05075402,0.21896216,-0.9491191,-2.549785614013672,-3.2476391792297363,6.585005760192871,24.563865661621094,29.382844924926758, 13.464180946350098
647,1219166313,0.22093938,-0.04813037,0.22023638,-0.94887584,-2.626267433166504,-2.8454947471618652,6.049618721008301,-3.9350128173828125,18.489803314208984, 8.244145393371582
648,1219182980,0.22120382,-0.049527712,0.22583638,-0.9474248,-2.3096165657043457,-3.385578155517578,6.102122783660889,-40.135040283203125,-1.43736732006073, 4.744888782501221
649,1219199647,0.22118057,-0.054278288,0.23269652,-0.9455079,-2.1936113834381104,-3.4413602352142334,6.748894691467285,-54.27036666870117,-21.091501235961914, -1.2124043703079224
650,1219216314,0.22081482,-0.061287716,0.23843509,-0.9437338,-1.723846435546875,-3.6260759830474854,7.5424699783325195,-50.32062911987305,-36.893985748291016, -7.703908920288086
651,1219232981,0.22028615,-0.06867247,0.24190524,-0.9424649,-0.7773802280426025,-4.853886604309082,7.398892402648926,-35.420196533203125,-42.303184509277344, -11.111616134643555
652,1219249648,0.22025776,-0.07652676,0.24162956,-0.941937,-0.4196575880050659,-6.483345985412598,6.103888034820557,-10.388999938964844,-51.5054931640625, -11.549076080322266
653,1219266315,0.22156702,-0.086041905,0.23770715,-0.94180685,0.05173981189727783,-6.125581741333008,5.206120014190674,12.092323303222656,-69.80106353759766, -8.173209190368652
654,1219282982,0.22361533,-0.09830556,0.23133352,-0.94170964,0.8450044393539429,-5.391280174255371,3.946436882019043,24.281187057495117,-92.52445983886719, -9.385515213012695
655,1219299649,0.22511834,-0.112007335,0.22020526,-0.9424892,1.6896699666976929,-5.6049299240112305,5.6163811683654785,53.89008331298828,-107.688720703125, -19.764949798583984
656,1219316316,0.22575252,-0.12677252,0.20679201,-0.943505,2.192451000213623,-4.820302963256836,10.224811553955078,66.74891662597656,-116.61553955078125, -29.128520965576172
657,1219332983,0.22396424,-0.14183672,0.19591892,-0.94410706,0.3944230079650879,-3.835094690322876,15.25464916229248,47.101226806640625,-111.52227020263672, -42.40492630004883
658,1219349650,0.21879952,-0.15230343,0.18483542,-0.9459209,-5.051453590393066,-4.620450496673584,19.70234489440918,53.870235443115234,-76.28477478027344, -60.20010757446289
659,1219366317,0.21471977,-0.2064752,0.16544276,-0.9401555,-17.430343627929688,16.959577560424805,-95.18936920166016,33.661502838134766,-382.6122741699219, -106.07073211669922
660,1219382984,0.21642517,-0.22217686,0.07792653,-0.9474836,48.20671463012695,-33.36764907836914,49.476322174072266,554.5279541015625,-222.66551208496094, -141.0328826904297
661,1219399651,0.21163087,-0.24716839,0.060064323,-0.94366974,76.31282043457031,0.2950468063354492,29.65625,70.57318878173828,-192.52122497558594, -65.18656158447266
662,1219416318,0.20001762,-0.27576554,0.06955272,-0.93760806,25.717193603515625,24.307313919067383,20.88779067993164,-124.61113739013672,-176.5537872314453, -61.0308837890625
663,1219432985,0.19075768,-0.2951473,0.07174118,-0.9334628,-12.916491508483887,-1.452083706855774,10.046916961669922,-59.63972854614258,-124.52336883544922, -57.75658416748047
664,1219449652,0.18881004,-0.29922512,0.06152066,-0.93329,-16.512121200561523,-10.526138305664062,17.93924903869629,56.84392547607422,-38.26927185058594, -33.70469284057617
665,1219466319,0.19219023,-0.2952714,0.07059675,-0.9332169,-12.33156967163086,9.191740989685059,8.433197021484375,-45.5217170715332,36.06480407714844, 43.34695816040039
666,1219482986,0.19965263,-0.28520674,0.08000558,-0.93402094,-5.943447113037109,9.168935775756836,4.1282124519348145,-30.97011947631836,75.3685531616211, 72.05253601074219
667,1219499653,0.20718846,-0.26309618,0.086542174,-0.9382772,-1.5145868062973022,2.407747983932495,4.953911781311035,5.957666873931885,155.4440460205078, 68.8232192993164
668,1219516320,0.21273467,-0.22803824,0.102355465,-0.9445983,3.491823434829712,-2.0789127349853516,7.768737316131592,-37.87089538574219,257.111572265625, 77.54997253417969
669,1219532987,0.21597894,-0.1748429,0.13348572,-0.9512965,14.039463996887207,-4.244420051574707,12.40307331085205,-114.23556518554688,399.7082214355469, 98.8558349609375
670,1219549654,0.22081102,-0.1046929,0.16773254,-0.9550644,25.717073440551758,-5.165987491607666,15.74355697631836,-110.24801635742188,510.6018371582031, 132.98023986816406
671,1219566321,0.22494866,-0.020617284,0.193377,-0.9547662,15.01088809967041,-11.191896438598633,7.994540691375732,-37.72886276245117,587.2890014648438, 144.577392578125
672,1219582988,0.22068752,0.022196041,0.20297915,-0.95373166,27.602006912231445,3.598278522491455,-51.623626708984375,1.693474292755127,302.13714599609375, 33.31869125366211
673,1219599655,0.21882007,0.039155256,0.21776418,-0.95034915,-5.936874866485596,-4.186269283294678,3.8117847442626953,-75.24545288085938,137.4842987060547, 15.733771324157715
674,1219616322,0.21501298,0.022968242,0.24762277,-0.9444179,-0.9569879770278931,0.7542162537574768,-19.358989715576172,-226.9285888671875,-52.906829833984375, -46.8133430480957
675,1219632989,0.21454568,0.000025803869,0.2408634,-0.946549,3.494778633117676,-15.100220680236816,3.5001118183135986,15.089703559875488,-155.622314453125, -47.63728332519531
676,1219649656,0.2114049,-0.029897342,0.21869835,-0.9521477,6.8789381980896,-6.493107318878174,7.222749710083008,109.91011047363281,-221.6786346435547, -76.8694839477539
677,1219666323,0.21216905,-0.06276925,0.20574252,-0.9532652,7.322414875030518,-6.069094657897949,16.35271453857422,39.405757904052734,-234.32997131347656, -47.30080795288086
678,1219682990,0.21320261,-0.09199537,0.2052401,-0.9507672,3.556797504425049,-7.326961040496826,23.144582748413086,-41.8904914855957,-194.12533569335938, -29.687021255493164
679,1219699657,0.21373479,-0.10704497,0.20294593,-0.94956404,-0.16924527287483215,-7.417629241943359,23.50086784362793,-7.858185768127441,-102.4990005493164, -15.969829559326172
680,1219716324,0.21451955,-0.107699394,0.20045203,-0.9498427,-2.395811080932617,-5.751887321472168,22.13235855102539,16.872098922729492,-8.073772430419922, 3.4343533515930176
681,1219732991,0.21406074,-0.10056953,0.20644474,-0.94944423,-1.0887434482574463,-3.4164583683013916,18.221586227416992,-28.922157287597656,56.465763092041016, 13.309098243713379
682,1219749658,0.2118939,-0.09220197,0.21747763,-0.94831604,-0.5920909643173218,-5.5533246994018555,14.403887748718262,-62.23802947998047,73.86344146728516, 8.47514533996582
683,1219766325,0.20903942,-0.087814465,0.2235528,-0.9479533,-1.9123082160949707,-7.050645351409912,12.092191696166992,-35.00057601928711,42.18793487548828, -6.220213413238525
684,1219782992,0.20729582,-0.08958496,0.22295079,-0.9483124,-1.480726718902588,-7.7074666023254395,10.238430976867676,1.4642088413238525,-8.836259841918945, -13.527409553527832
685,1219799659,0.20713758,-0.09644856,0.21768486,-0.9488968,-1.630305528640747,-7.997873783111572,10.827423095703125,25.962181091308594,-50.99760055541992, -14.209678649902344
