PacketCounter,SampleTimeFine,Quat_W,Quat_X,Quat_Y,Quat_Z,Acc_X,Acc_Y,Acc_Z,Gyr_X,Gyr_Y,Gyr_Z 
1,663330101,0.20600078,-0.5741734,-0.047452588,-0.7909724,0.08982768654823303,-1.490102767944336,0.12243852019309998,-4.594760894775391,-0.4213205873966217, -2.7884480953216553
2,663346768,0.23747493,-0.6042188,-0.012013215,-0.7605137,9.017313003540039,-4.534692287445068,0.3288697898387909,81.22238159179688,88.03890228271484, 25.369882583618164
3,663363435,0.2648553,-0.61821425,0.013141807,-0.73992574,8.768292427062988,-5.6325459480285645,-1.590416431427002,98.40327453613281,105.05857849121094, 51.08031463623047
4,663380102,0.28849748,-0.6271232,0.03627394,-0.7226133,10.122198104858398,-3.1608283519744873,-1.7827285528182983,94.81346130371094,125.09711456298828, 74.17437744140625
5,663396769,0.30111128,-0.63130283,0.051840067,-0.71281236,10.905316352844238,-2.6391286849975586,-1.5476982593536377,66.99079895019531,143.82569885253906, 95.35299682617188
6,663413436,0.3079662,-0.631074,0.064491935,-0.7090439,11.534018516540527,-2.1321098804473877,-1.8065894842147827,43.571231842041016,157.5442657470703, 113.48995208740234
7,663430103,0.31273916,-0.62766224,0.07553268,-0.70889306,11.779714584350586,-2.1264967918395996,-2.1408157348632812,35.269775390625,166.55242919921875, 130.05271911621094
8,663446770,0.31880426,-0.621044,0.0850906,-0.71093446,11.988847732543945,-1.6766315698623657,-2.080690860748291,47.03767395019531,174.72604370117188, 144.3553466796875
9,663463437,0.32656267,-0.6113331,0.09394832,-0.7147046,12.186613082885742,-0.9868033528327942,-1.5369653701782227,57.59821319580078,183.6848602294922, 157.4980926513672
10,663480104,0.3350938,-0.59871614,0.103266954,-0.72013,13.106034278869629,-0.12636306881904602,-1.7158679962158203,57.29917526245117,194.5076904296875, 168.3755645751953
11,663496771,0.3436677,-0.5835312,0.11273443,-0.7271003,14.211979866027832,0.7168363928794861,-1.6003414392471313,56.47837448120117,208.36019897460938, 175.31163024902344
12,663513438,0.35143557,-0.56667715,0.12203624,-0.7351716,15.135297775268555,1.335297703742981,-2.0530428886413574,51.63895797729492,218.43548583984375, 177.1486053466797
13,663530105,0.35991114,-0.54840064,0.12908868,-0.7436781,15.507772445678711,1.4497771263122559,-2.3036580085754395,64.0036849975586,221.87078857421875, 178.05447387695312
14,663546772,0.36861515,-0.5293378,0.13340083,-0.7524154,15.632955551147461,2.2045247554779053,-2.063119888305664,76.82340240478516,221.65428161621094, 171.0265655517578
15,663563439,0.3771956,-0.5095674,0.13402832,-0.76164377,15.475077629089355,1.9583070278167725,-2.6983156204223633,92.89591217041016,219.56439208984375, 156.575927734375
16,663580106,0.38556203,-0.48932853,0.13089272,-0.77121127,15.285970687866211,2.188023090362549,-2.661100387573242,110.50019073486328,216.52053833007812, 138.50119018554688
17,663596773,0.39214775,-0.47003388,0.12570035,-0.7806972,15.158628463745117,1.885471224784851,-3.022601842880249,109.96549224853516,209.66368103027344, 116.71945190429688
18,663613440,0.39880395,-0.45155147,0.117606975,-0.78944635,15.27843952178955,1.0899035930633545,-4.291306018829346,121.20429229736328,197.23330688476562, 102.7681884765625
19,663630107,0.40461534,-0.43497413,0.10879966,-0.79702365,14.499544143676758,3.31681227684021,-5.050119400024414,116.80925750732422,184.96937561035156, 90.3462905883789
20,663646774,0.40624458,-0.42501354,0.10379945,-0.8022188,12.059266090393066,3.427305221557617,-6.994836330413818,62.42107391357422,156.66334533691406, 75.57923889160156
21,663663441,0.40539312,-0.42189282,0.099194765,-0.8048748,9.928916931152344,3.969951868057251,-9.108062744140625,33.00859832763672,113.60182189941406, 59.9829216003418
22,663680108,0.4023286,-0.42553473,0.0918992,-0.8053612,8.504393577575684,4.158775806427002,-10.108658790588379,23.11765480041504,62.22540283203125, 36.16140365600586
23,663696775,0.39739028,-0.43577015,0.08105913,-0.8035016,8.224725723266602,3.8736889362335205,-10.62269115447998,19.84223175048828,7.921967506408691, 12.62804126739502
24,663713442,0.39155123,-0.45111957,0.065865114,-0.7992752,8.673052787780762,2.8509302139282227,-9.74911880493164,28.465688705444336,-40.9088020324707, -6.713263034820557
25,663730109,0.3856081,-0.47001922,0.046162397,-0.79262704,9.493786811828613,2.0854625701904297,-8.52367115020752,44.70360565185547,-82.10304260253906, -21.57660675048828
26,663746776,0.379376,-0.49160177,0.02363602,-0.7834815,10.349674224853516,1.6162461042404175,-7.187358856201172,53.220924377441406,-114.31198120117188, -31.70766830444336
27,663763443,0.37265027,-0.51514477,-0.0000927659,-0.77185357,11.132353782653809,0.7784830331802368,-6.329556941986084,53.89447021484375,-138.74884033203125, -37.15506362915039
28,663780110,0.36554188,-0.53949064,-0.02420876,-0.758118,11.225948333740234,1.166944146156311,-5.057230472564697,53.665340423583984,-154.0946502685547, -39.92558670043945
29,663796777,0.3571809,-0.5639012,-0.04701115,-0.7431201,12.150811195373535,-0.714090883731842,-2.618102550506592,42.62861251831055,-159.42369079589844, -42.39485168457031
30,663813444,0.35108286,-0.58249384,-0.06215307,-0.7304649,13.927316665649414,-6.831316947937012,10.470771789550781,20.66999053955078,-135.14822387695312, -27.897859573364258
31,663830111,0.34451425,-0.59849465,-0.07347922,-0.7195242,17.107118606567383,2.479355573654175,4.140989780426025,-0.8344343304634094,-140.49378967285156, -37.74658203125
32,663846778,0.33728787,-0.6152185,-0.08869346,-0.7070195,19.847312927246094,2.6515309810638428,-2.2315597534179688,12.860709190368652,-169.69998168945312, -57.212623596191406
33,663863445,0.32996947,-0.63197416,-0.10437295,-0.69342285,12.944450378417969,-0.6409053802490234,-0.3223535120487213,15.00280475616455,-177.78472900390625, -58.39942932128906
34,663880112,0.32462183,-0.64661,-0.11950496,-0.67987853,10.211034774780273,-2.169368267059326,-2.4772725105285645,25.630434036254883,-165.63291931152344, -48.94066619873047
35,663896779,0.32149985,-0.6590968,-0.134588,-0.66641986,9.03019905090332,-1.78145170211792,-4.878921031951904,40.00830078125,-153.51071166992188, -40.56651306152344
36,663913446,0.319684,-0.66957545,-0.14778295,-0.6539354,8.181256294250488,-3.468395233154297,-6.840818405151367,40.81046676635742,-134.55982971191406, -30.143400192260742
37,663930113,0.32050425,-0.676569,-0.16097863,-0.64313096,10.442353248596191,-0.3888421952724457,-4.704931259155273,58.909568786621094,-108.46685791015625, -25.61563491821289
38,663946780,0.31800738,-0.68340987,-0.17034924,-0.6346682,11.48177433013916,0.6781274080276489,-1.5483994483947754,24.29775047302246,-92.17838287353516, -27.785917282104492
39,663963447,0.31223813,-0.6910701,-0.17628938,-0.62757605,11.215237617492676,-0.1729688048362732,-0.563629150390625,-9.464715003967285,-85.72806549072266, -27.938596725463867
40,663980114,0.30450833,-0.6998123,-0.1786541,-0.6209834,11.085516929626465,-1.8687560558319092,-1.6872084140777588,-37.14908218383789,-82.79344940185547, -19.163658142089844
41,663996781,0.29752848,-0.7083362,-0.1805769,-0.6141083,11.378035545349121,-0.6992021203041077,-0.3985682725906372,-34.628639221191406,-81.3945541381836, -13.541572570800781
42,664013448,0.29155588,-0.7152395,-0.18293321,-0.60824585,12.91468620300293,0.7055792808532715,-1.0253580808639526,-25.843809127807617,-69.29669189453125, -15.477051734924316
43,664030115,0.2849943,-0.7213449,-0.1851356,-0.6034605,13.059383392333984,1.5683337450027466,0.17262503504753113,-29.13875961303711,-61.11505126953125, -20.31005096435547
44,664046782,0.27586794,-0.7279424,-0.18528925,-0.5997205,13.122299194335938,-0.7073967456817627,0.3007982671260834,-52.651920318603516,-57.264225006103516, -22.175386428833008
45,664063449,0.26401338,-0.7355766,-0.18353656,-0.59627044,12.823297500610352,-1.7095365524291992,-0.2072206437587738,-76.51084899902344,-59.98072052001953, -23.134328842163086
46,664080116,0.25037995,-0.7439785,-0.18120103,-0.5924291,12.484750747680664,-1.546204924583435,0.568011999130249,-88.8071517944336,-66.30937957763672, -25.834529876708984
47,664096783,0.23556021,-0.7529862,-0.17959292,-0.5875965,12.328028678894043,-1.1425621509552002,0.41441118717193604,-91.72118377685547,-76.60844421386719, -31.951047897338867
48,664113450,0.22194257,-0.7612919,-0.18106462,-0.58171463,12.207866668701172,-1.51711106300354,0.1656622588634491,-70.62550354003906,-82.72901153564453, -42.216068267822266
49,664130117,0.20825122,-0.7697725,-0.18308058,-0.57494664,11.602516174316406,-1.9170873165130615,0.4692125618457794,-67.9995346069336,-89.00598907470703, -43.8067626953125
50,664146784,0.19359134,-0.7792299,-0.18468043,-0.5667595,10.876152038574219,-2.592841625213623,1.1435847282409668,-74.39109802246094,-101.023681640625, -42.19537353515625
51,664163451,0.17976111,-0.7892982,-0.18681617,-0.5565917,10.756296157836914,-3.154802083969116,1.3412601947784424,-66.1657485961914,-113.70653533935547, -38.45540237426758
52,664180118,0.16762829,-0.7994589,-0.19016595,-0.544613,10.949028015136719,-3.1116721630096436,1.2253429889678955,-50.109352111816406,-123.2402572631836, -36.227867126464844
53,664196785,0.15517874,-0.80940986,-0.19298787,-0.5324763,12.75395393371582,-1.9021339416503906,-1.0606735944747925,-53.388458251953125,-123.15723419189453, -34.6312370300293
54,664213452,0.14202268,-0.8188133,-0.19501764,-0.52090555,12.696964263916016,-1.1875584125518799,-0.02835392951965332,-60.387962341308594,-118.09732055664062, -34.1385383605957
55,664230119,0.12804656,-0.8274388,-0.19611502,-0.51038045,11.224486351013184,-0.7122573256492615,0.34580186009407043,-68.9828109741211,-109.64215850830078, -33.88177490234375
56,664246786,0.11340219,-0.83512616,-0.19688019,-0.50094175,10.134115219116211,-0.5485362410545349,0.46262210607528687,-74.5806884765625,-100.80297088623047, -36.55120849609375
57,664263453,0.09873919,-0.8417662,-0.19736135,-0.4926752,9.597679138183594,-0.2905535101890564,0.018883228302001953,-76.43108367919922,-90.28673553466797, -37.312992095947266
58,664280120,0.084300816,-0.84715325,-0.19773747,-0.4859266,9.236656188964844,-1.7060961723327637,1.149208426475525,-76.69025421142578,-76.88941955566406, -38.6729736328125
59,664296787,0.071531296,-0.8513597,-0.1967358,-0.48100433,8.039258003234863,-3.4917099475860596,-0.5168794393539429,-73.37995910644531,-59.266780853271484, -27.762922286987305
60,664313454,0.059661567,-0.85570747,-0.19661327,-0.47491956,7.788383483886719,-3.2851483821868896,-4.867251396179199,-63.727298736572266,-65.73883819580078, -29.224451065063477
61,664330121,0.046592083,-0.8597623,-0.19715019,-0.4687965,7.950602054595947,0.47650542855262756,-5.588490962982178,-68.4945068359375,-66.81835174560547, -37.434261322021484
62,664346788,0.02829684,-0.8639179,-0.1948212,-0.46356237,8.075722694396973,0.0396139919757843,-6.147268295288086,-109.84569549560547,-67.9872817993164, -37.45476531982422
63,664363455,-0.008156003,-0.86716795,-0.18423168,-0.4626145,11.922707557678223,3.3463432788848877,-3.7339744567871094,-249.640869140625,-62.310157775878906, -48.30588912963867
64,664380122,-0.047815118,-0.8672777,-0.16752523,-0.46634614,5.760578632354736,-6.7222723960876465,2.0324528217315674,-294.3084411621094,-28.865205764770508, -25.709318161010742
65,664396789,-0.065278254,-0.86534977,-0.16095582,-0.47010833,6.058823108673096,-4.88997745513916,2.70106840133667,-130.13812255859375,6.702098369598389, -17.446983337402344
66,664413456,-0.07601015,-0.86120677,-0.1581871,-0.4769929,9.511754035949707,0.370483934879303,4.236948013305664,-82.26551818847656,41.53361511230469, -19.427289962768555
67,664430123,-0.090662494,-0.855053,-0.15278718,-0.48715603,11.153895378112793,-3.4904251098632812,0.9824203848838806,-118.67251586914062,61.79400634765625, -17.177207946777344
68,664446790,-0.08709845,-0.84970236,-0.15362343,-0.49680957,11.363968849182129,-7.525580883026123,-1.7818549871444702,10.334067344665527,79.07291412353516, 7.627435207366943
69,664463457,-0.06776015,-0.8444533,-0.16214979,-0.5059792,10.420159339904785,-4.045647621154785,-0.058416515588760376,129.2708740234375,97.15599822998047, 16.280609130859375
70,664480124,-0.04357397,-0.8387455,-0.1710867,-0.51510864,10.148792266845703,-4.678289413452148,-1.0647410154342651,158.68133544921875,104.07770538330078, 30.211835861206055
71,664496791,-0.013141339,-0.8319573,-0.181082,-0.52429366,10.427417755126953,-4.314555644989014,-2.3372631072998047,198.0662384033203,115.8786392211914, 44.95726776123047
72,664513458,0.017866774,-0.8237974,-0.18787609,-0.5345476,11.292418479919434,-3.9582674503326416,-2.1791486740112305,188.3459930419922,127.37044525146484, 63.72779846191406
73,664530125,0.04756019,-0.8140595,-0.19038774,-0.54662406,12.219483375549316,-3.3771519660949707,-1.7505182027816772,162.98910522460938,142.31959533691406, 80.88597869873047
74,664546792,0.07417929,-0.80307907,-0.18825625,-0.5604653,12.730488777160645,-3.8088831901550293,-1.1271226406097412,126.41807556152344,154.35067749023438, 93.12339782714844
75,664563459,0.09945756,-0.7911996,-0.18234466,-0.5752058,12.925336837768555,-3.6724910736083984,-1.151060938835144,103.74586486816406,162.9613800048828, 107.20257568359375
76,664580126,0.12346005,-0.77832323,-0.17325824,-0.5907217,13.24306583404541,-2.5036139488220215,-1.1854193210601807,83.96218872070312,171.69741821289062, 117.65044403076172
77,664596793,0.14626805,-0.764286,-0.16090226,-0.6071105,13.065569877624512,-2.355445384979248,-0.9000390768051147,64.24868774414062,182.4535675048828, 128.2041778564453
78,664613460,0.16841374,-0.7491285,-0.14484,-0.624071,13.02029800415039,-2.299304723739624,-0.33869391679763794,45.80462646484375,193.157958984375, 143.1390380859375
79,664630127,0.18958503,-0.7329755,-0.12500593,-0.6412316,13.82733154296875,-1.350144386291504,-0.6976537704467773,25.565187454223633,201.8862762451172, 157.20323181152344
80,664646794,0.2116834,-0.7150302,-0.10401976,-0.6581048,14.763777732849121,-0.29930397868156433,-1.2537959814071655,27.760496139526367,210.68701171875, 165.99913024902344
81,664663461,0.23516192,-0.6944771,-0.08382601,-0.674814,15.416831016540527,1.3351770639419556,-0.6781837344169617,42.06945037841797,221.5874786376953, 166.82077026367188
82,664680128,0.2589081,-0.6717718,-0.065155804,-0.6909733,15.280858993530273,1.5953779220581055,-0.6615225076675415,54.22666931152344,226.7036590576172, 160.57406616210938
83,664696795,0.2838235,-0.6465207,-0.050561227,-0.7063278,15.468194961547852,2.4249508380889893,-1.0213528871536255,83.89384460449219,228.43190002441406, 147.7346649169922
84,664713462,0.30629236,-0.6196523,-0.039070692,-0.7215882,15.401707649230957,3.445918560028076,-0.9356287717819214,91.27692413330078,229.06333923339844, 121.8231201171875
85,664730129,0.32759896,-0.59202254,-0.03032212,-0.7357098,15.072975158691406,1.124161958694458,-2.6727046966552734,101.81442260742188,222.023681640625, 106.72684478759766
86,664746796,0.34827355,-0.56453174,-0.02458503,-0.74793404,15.01559066772461,0.9246760606765747,-4.20786190032959,114.56419372558594,206.8495635986328, 95.66691589355469
87,664763463,0.3664601,-0.5383022,-0.019670757,-0.75865066,14.35151481628418,2.7169997692108154,-5.522363662719727,106.37896728515625,192.3301239013672, 83.5761947631836
88,664780130,0.37852803,-0.5177257,-0.011391126,-0.7671683,12.652310371398926,3.867342233657837,-7.149491310119629,52.21091079711914,162.5841827392578, 70.51253509521484
89,664796797,0.38421872,-0.50463206,-0.0010312008,-0.7731244,10.363760948181152,4.380762100219727,-8.762537956237793,-0.6937994956970215,119.11848449707031, 51.666141510009766
90,664813464,0.38534862,-0.49897,0.008052377,-0.77618974,8.88899040222168,2.9913125038146973,-9.981419563293457,-29.320037841796875,66.39207458496094, 30.795137405395508
91,664830131,0.38432997,-0.49927938,0.012606656,-0.7764353,8.583288192749023,2.2397103309631348,-9.928160667419434,-28.416616439819336,13.159195899963379, 11.015762329101562
92,664846798,0.382833,-0.503318,0.010733738,-0.77459323,9.098135948181152,3.066080331802368,-8.95857048034668,-5.699230194091797,-30.68069076538086, -8.350269317626953
93,664863465,0.38097143,-0.51027536,0.004223164,-0.7710138,9.79410457611084,3.188062906265259,-7.846712589263916,9.978008270263672,-64.2537612915039, -21.921234130859375
94,664880132,0.37870675,-0.51975,-0.005107684,-0.76577747,10.494486808776855,2.4304020404815674,-7.283274173736572,16.904218673706055,-90.63951110839844, -29.627216339111328
95,664896799,0.3764991,-0.5308678,-0.016981311,-0.7590386,10.970650672912598,1.895285725593567,-7.121632099151611,26.312856674194336,-111.13936614990234, -34.40150451660156
96,664913466,0.37432587,-0.54312074,-0.031157646,-0.75095224,11.133935928344727,2.262136697769165,-7.0861711502075195,35.723487854003906,-127.80196380615234, -38.977630615234375
97,664930133,0.37162656,-0.55625707,-0.046695158,-0.74181646,11.18984603881836,2.7858946323394775,-6.891262531280518,38.776832580566406,-139.76060485839844, -43.857513427734375
98,664946800,0.36815143,-0.569831,-0.062854216,-0.7319883,11.65942668914795,2.81074857711792,-6.219567775726318,38.1241340637207,-146.35360717773438, -48.239376068115234
99,664963467,0.36413246,-0.5817454,-0.07529038,-0.7234025,13.681988716125488,-5.770809173583984,7.294384479522705,20.945819854736328,-123.83724975585938, -40.19992446899414
100,664980134,0.36152518,-0.59054136,-0.08058621,-0.7169843,10.86341381072998,-9.212068557739258,15.616068840026855,-2.275460720062256,-81.30413818359375, -11.805123329162598
101,664996801,0.35577446,-0.601875,-0.08578561,-0.7097972,18.686176300048828,-0.9423840641975403,-1.8745033740997314,-21.485328674316406,-98.95348358154297, -23.838457107543945
102,665013468,0.35128954,-0.61391747,-0.09944853,-0.699865,18.538837432861328,0.9701375365257263,-2.34554386138916,24.96688461303711,-133.6419219970703, -45.47832107543945
103,665030135,0.34471488,-0.6273615,-0.112502284,-0.68915343,12.12662410736084,-0.590925931930542,1.5807650089263916,10.381888389587402,-143.5402374267578, -50.01375961303711
104,665046802,0.3385013,-0.63997144,-0.12590045,-0.67823493,10.48531723022461,-0.4296324849128723,0.9852810502052307,15.69585132598877,-141.10833740234375, -49.947383880615234
105,665063469,0.3331042,-0.651019,-0.13950755,-0.6676478,8.647549629211426,-2.6778104305267334,-0.5071901679039001,23.603683471679688,-132.22557067871094, -49.19933319091797
106,665080136,0.33064213,-0.6597108,-0.152462,-0.657429,8.234430313110352,-4.601812839508057,-3.42106556892395,38.795040130615234,-115.49517822265625, -36.008304595947266
107,665096803,0.33008373,-0.66701996,-0.16439843,-0.6473811,9.776466369628906,-3.308791399002075,-4.288904666900635,45.81962585449219,-104.11256408691406, -24.78186798095703
108,665113470,0.32892787,-0.6734532,-0.17503525,-0.638459,10.97822380065918,-0.12867233157157898,-3.2851943969726562,38.02901840209961,-92.70133209228516, -25.124298095703125
109,665130137,0.32358748,-0.68076205,-0.18193805,-0.6314689,10.26131534576416,0.734351634979248,-0.6839418411254883,-2.0357160568237305,-84.15740203857422, -29.49319839477539
110,665146804,0.31890997,-0.68806326,-0.18834706,-0.62401205,10.399747848510742,-1.2102067470550537,-1.3559939861297607,-0.4874740242958069,-84.44783020019531, -23.221776962280273
111,665163471,0.31458884,-0.69509065,-0.19550751,-0.6161654,11.73134994506836,-1.3454155921936035,0.3202892243862152,5.524964809417725,-86.34869384765625, -24.7612361907959
112,665180138,0.31231007,-0.7017104,-0.2041949,-0.6069345,12.533522605895996,-1.4880309104919434,-0.5018778443336487,24.47925567626953,-91.90007781982422, -20.97505760192871
113,665196805,0.3079841,-0.7091443,-0.21229939,-0.5976532,12.549692153930664,-0.0733456164598465,0.1565888524055481,10.486517906188965,-97.24354553222656, -25.469877243041992
114,665213472,0.30109453,-0.71775544,-0.21902275,-0.5883864,12.891798973083496,-0.9861984848976135,0.2836074233055115,-10.213438034057617,-102.9399185180664, -27.54443359375
115,665230139,0.29222453,-0.7271468,-0.22424445,-0.5792901,13.169011116027832,-1.6742444038391113,-0.32290297746658325,-27.947118759155273,-105.25633239746094, -27.311717987060547
116,665246806,0.28229395,-0.7365893,-0.22865503,-0.57049394,13.458359718322754,-0.5742514133453369,-0.1538466513156891,-37.05494689941406,-104.08251190185547, -28.015300750732422
117,665263473,0.2704397,-0.74608004,-0.23182042,-0.56257117,12.646222114562988,-0.2022051364183426,0.4144306778907776,-53.15216827392578,-100.5923843383789, -30.84502601623535
118,665280140,0.2585136,-0.7553685,-0.23430379,-0.55469894,11.786567687988281,-1.201892614364624,0.2721196413040161,-55.86872100830078,-98.56098175048828, -28.009214401245117
119,665296807,0.24711637,-0.76411843,-0.23675348,-0.5468129,12.414239883422852,-1.3080288171768188,-0.3718413710594177,-52.28257751464844,-95.82711029052734, -26.675067901611328
120,665313474,0.23531444,-0.7725098,-0.23887022,-0.53925586,12.202374458312988,-1.5421863794326782,0.12163838744163513,-55.606201171875,-93.00286102294922, -27.635231018066406
121,665330141,0.22310637,-0.78058857,-0.24099214,-0.5318156,11.224736213684082,-2.26393985748291,1.3749454021453857,-57.469417572021484,-92.08738708496094, -29.96278953552246
122,665346808,0.2101131,-0.7884092,-0.24212456,-0.5250136,11.317692756652832,-1.6294536590576172,0.24785152077674866,-66.01817321777344,-87.70011901855469, -29.0632381439209
123,665363475,0.19561505,-0.7962285,-0.24192145,-0.5188728,11.334248542785645,-0.31751447916030884,0.14915329217910767,-80.13646697998047,-84.815673828125, -28.31707000732422
124,665380142,0.17853284,-0.8039735,-0.23985943,-0.51402366,10.766542434692383,1.2495635747909546,0.09041640162467957,-102.98541259765625,-79.37432861328125, -29.28073501586914
125,665396809,0.1590141,-0.81172407,-0.23632357,-0.5098726,10.56224250793457,0.6402285695075989,0.7981746792793274,-122.82366180419922,-77.81036376953125, -30.6141414642334
126,665413476,0.13908823,-0.8188256,-0.23240554,-0.50612915,10.508851051330566,-0.01772928610444069,0.36132460832595825,-126.39411163330078,-73.56804656982422, -31.453472137451172
127,665430143,0.11916404,-0.82526445,-0.2285799,-0.50248367,9.861007690429688,-1.296874761581421,0.18456335365772247,-125.60108947753906,-70.83316040039062, -33.173683166503906
128,665446810,0.100782685,-0.83084726,-0.22535637,-0.4987487,9.198819160461426,-2.304738998413086,0.6823462247848511,-113.9450454711914,-66.46978759765625, -32.60503005981445
129,665463477,0.08113104,-0.83602554,-0.22035186,-0.49590755,8.696258544921875,-2.77988600730896,-0.6082310676574707,-128.44760131835938,-60.72952651977539, -28.111783981323242
130,665480144,0.059699886,-0.84157294,-0.21690157,-0.491065,8.96570873260498,-1.5254225730895996,-5.270012855529785,-130.5803680419922,-77.04203796386719, -41.51263427734375
131,665496811,0.036725193,-0.84734195,-0.21345131,-0.48487288,10.297965049743652,-1.6226646900177002,-6.899159908294678,-137.61764526367188,-87.81392669677734, -45.87384796142578
132,665513478,0.007797936,-0.8527142,-0.2080034,-0.47911614,12.037702560424805,1.473198413848877,-5.471211910247803,-179.53106689453125,-92.11006927490234, -54.81303787231445
133,665530145,-0.015299573,-0.85612524,-0.20261799,-0.4751439,7.540033340454102,-9.636398315429688,2.654003143310547,-147.57225036621094,-66.82551574707031, -38.86763000488281
134,665546812,-0.02320804,-0.85785437,-0.20222554,-0.47186047,7.182031154632568,-4.938917636871338,4.3527140617370605,-43.06082534790039,-35.662086486816406, -21.062278747558594
135,665563479,-0.03231532,-0.8573525,-0.20117287,-0.47268593,8.190659523010254,-1.3863037824630737,5.407684803009033,-58.35342025756836,-6.048088550567627, -23.565628051757812
136,665580146,-0.04606586,-0.85466975,-0.19666214,-0.4782694,9.17701244354248,-3.7965855598449707,1.4305064678192139,-103.9980697631836,21.804471969604492, -20.246984481811523
137,665596813,-0.05200274,-0.8510696,-0.19339058,-0.4853619,10.51103687286377,-8.598991394042969,-0.6561412811279297,-56.34794235229492,44.61323547363281, -2.6519999504089355
138,665613480,-0.04231867,-0.84694576,-0.19644375,-0.49224147,10.280179023742676,-4.6190104484558105,-0.04757772386074066,56.204742431640625,68.12281799316406, 11.575246810913086
139,665630147,-0.028912334,-0.8417322,-0.19986312,-0.50070554,10.13715934753418,-2.507481336593628,0.8663532733917236,76.657958984375,86.13655853271484, 20.994115829467773
140,665646814,-0.011612648,-0.835454,-0.20247914,-0.51076794,9.47876262664795,-3.704051971435547,-0.21742835640907288,94.0264663696289,104.19862365722656, 37.91453170776367
141,665663481,0.0109430095,-0.82817024,-0.20484741,-0.52158606,9.541276931762695,-3.613555669784546,-1.0903942584991455,122.22493743896484,119.35296630859375, 56.451969146728516
142,665680148,0.036058642,-0.81968015,-0.20490183,-0.5337036,9.711187362670898,-3.285672903060913,-1.4771244525909424,126.75788879394531,134.8568878173828, 77.01734924316406
143,665696815,0.061686773,-0.8099676,-0.20116428,-0.5474307,10.587193489074707,-3.0338170528411865,-1.8378617763519287,113.77505493164062,150.085205078125, 98.15325164794922
144,665713482,0.08641025,-0.79908794,-0.19296691,-0.56281054,11.689340591430664,-2.600271701812744,-1.7323131561279297,90.14874267578125,164.3375244140625, 117.28282165527344
145,665730149,0.11047557,-0.787042,-0.18130712,-0.57921314,12.666326522827148,-2.453899621963501,-1.5979750156402588,72.48052978515625,175.67233276367188, 131.61489868164062
146,665746816,0.13401152,-0.7736873,-0.16731536,-0.5962002,13.596634864807129,-1.3901829719543457,-1.9161649942398071,60.59846878051758,185.17608642578125, 140.06776428222656
147,665763483,0.15746436,-0.7588193,-0.15178043,-0.61348265,13.897546768188477,-1.163319706916809,-1.564653992652893,54.89896011352539,194.3094940185547, 145.96188354492188
148,665780150,0.18024887,-0.7426804,-0.13416836,-0.6308211,14.182587623596191,-0.9513210654258728,-1.2195874452590942,43.98183059692383,201.54983520507812, 152.64031982421875
149,665796817,0.20292152,-0.72502226,-0.115214095,-0.6479902,15.131532669067383,-0.33451059460639954,-1.5058603286743164,39.64305114746094,208.87570190429688, 157.87391662597656
150,665813484,0.22486588,-0.70554733,-0.095318094,-0.6652464,16.04690933227539,1.2812821865081787,-1.772059679031372,34.30012130737305,218.205078125, 157.84066772460938
151,665830151,0.2453722,-0.6847443,-0.07479163,-0.6821466,16.173227310180664,1.9740321636199951,-1.8340857028961182,26.745515823364258,222.66934204101562, 154.11886596679688
152,665846818,0.26614717,-0.6630481,-0.056191273,-0.6974065,15.587480545043945,1.1575751304626465,-2.380889654159546,39.407691955566406,216.11988830566406, 148.74624633789062
153,665863485,0.28892142,-0.6399211,-0.042802528,-0.71076965,15.591893196105957,1.086843729019165,-3.1601197719573975,76.88847351074219,205.67721557617188, 137.59898376464844
154,665880152,0.31272486,-0.6155009,-0.03488696,-0.7225958,15.313477516174316,1.0652177333831787,-3.1994998455047607,111.19963836669922,194.79676818847656, 121.31736755371094
155,665896819,0.3360662,-0.59046084,-0.031343754,-0.7330984,14.828328132629395,1.9237923622131348,-3.611799716949463,132.63436889648438,182.89329528808594, 103.30110931396484
156,665913486,0.3584854,-0.56524074,-0.030954463,-0.742316,14.518484115600586,2.252936840057373,-4.6655426025390625,145.48692321777344,171.23468017578125, 88.86209106445312
157,665930153,0.37586868,-0.5431004,-0.029553546,-0.7502609,12.990702629089355,3.9939374923706055,-5.484200477600098,113.42636108398438,152.1351318359375, 70.95071411132812
158,665946820,0.38651067,-0.52754784,-0.02434827,-0.75611514,11.506882667541504,3.6767995357513428,-7.954298973083496,52.03466033935547,118.93523406982422, 57.20921325683594
159,665963487,0.39154062,-0.5187705,-0.01782437,-0.7597734,9.679526329040527,3.5017409324645996,-9.084113121032715,7.196450233459473,78.46495819091797, 39.850555419921875
160,665980154,0.39256462,-0.5162712,-0.012865256,-0.7610465,8.810256958007812,3.0162525177001953,-9.627685546875,-15.467750549316406,32.58013916015625, 20.604286193847656
161,665996821,0.3912365,-0.5188275,-0.011927139,-0.7600064,8.796063423156738,2.643475294113159,-9.661552429199219,-16.179616928100586,-13.028456687927246, 0.7578616738319397
162,666013488,0.38881415,-0.5249894,-0.015575125,-0.75694585,9.18928050994873,2.465296506881714,-8.666755676269531,-5.609399318695068,-51.3959846496582, -15.555014610290527
163,666030155,0.38627058,-0.5337162,-0.023251848,-0.75193185,9.86536693572998,1.8096294403076172,-7.699772834777832,8.300283432006836,-82.48795318603516, -25.208850860595703
164,666046822,0.3839775,-0.5441949,-0.034253087,-0.7451445,10.45598316192627,1.0953315496444702,-7.020117282867432,22.0776424407959,-106.7718276977539, -31.10841178894043
165,666063489,0.38238811,-0.55555993,-0.048301984,-0.7367493,10.651018142700195,0.9810977578163147,-6.586384296417236,38.382511138916016,-125.1402816772461, -34.462364196777344
166,666080156,0.38109985,-0.5675372,-0.06447809,-0.7269849,10.522435188293457,1.3214679956436157,-6.55995512008667,49.18049621582031,-138.90928649902344, -37.27057647705078
167,666096823,0.3794901,-0.57996583,-0.081553355,-0.7162234,10.521273612976074,1.9703727960586548,-6.397815227508545,51.70317840576172,-147.50421142578125, -39.58218765258789
168,666113490,0.37729052,-0.5916087,-0.09772495,-0.7057626,12.21418285369873,-0.25837206840515137,1.1517225503921509,46.79634475708008,-140.36195373535156, -40.107723236083984
169,666130157,0.37506497,-0.60120726,-0.10655319,-0.6975118,11.071101188659668,-8.154779434204102,14.803016662597656,14.848098754882812,-102.50274658203125, -17.490184783935547
170,666146824,0.3694049,-0.61279124,-0.11263022,-0.6894502,15.54837417602539,0.7513967156410217,3.1492655277252197,-17.864625930786133,-107.01809692382812, -21.773523330688477
171,666163491,0.36156207,-0.6268171,-0.123726375,-0.67901766,20.328567504882812,2.659494638442993,-3.7086479663848877,-7.673227787017822,-143.1039581298828, -45.31184387207031
172,666180158,0.3527349,-0.6419655,-0.13696182,-0.6668583,13.367842674255371,-0.19379785656929016,2.1052770614624023,-3.219846725463867,-161.8791046142578, -53.773399353027344
173,666196825,0.34549868,-0.65517837,-0.15087754,-0.6546816,9.515875816345215,-1.3214958906173706,1.9230685234069824,11.61587905883789,-153.3135528564453, -51.26573944091797
174,666213492,0.3398607,-0.6666155,-0.16421413,-0.64276916,8.95256233215332,-3.3489341735839844,-2.826016664505005,20.14961814880371,-141.18853759765625, -43.97673797607422
175,666230159,0.33801648,-0.6753756,-0.178221,-0.6307536,8.056017875671387,-4.7804365158081055,-5.425729751586914,46.88327407836914,-127.10550689697266, -33.145233154296875
176,666246826,0.33904877,-0.681554,-0.1926128,-0.6192176,9.826367378234863,-1.7101061344146729,-5.564682483673096,67.342041015625,-110.99606323242188, -26.8450984954834
177,666263493,0.3361067,-0.6882593,-0.20297305,-0.61002743,10.532880783081055,0.5197746157646179,-2.1140220165252686,27.230995178222656,-98.05866241455078, -29.678224563598633
178,666280160,0.330048,-0.69635856,-0.209668,-0.60182434,10.725996971130371,0.012248445302248001,-1.7509454488754272,-7.495968818664551,-95.14588928222656, -25.720558166503906
179,666296827,0.32250804,-0.7051196,-0.21513687,-0.5937265,11.744566917419434,-0.4189187288284302,-1.7838201522827148,-21.32369041442871,-96.77790832519531, -25.249967575073242
180,666313494,0.3160502,-0.7136844,-0.22199838,-0.5843662,11.856107711791992,-0.4827980697154999,-1.2145075798034668,-8.093952178955078,-103.63764953613281, -25.07027244567871
181,666330161,0.30990106,-0.72156745,-0.22976914,-0.5748983,12.342574119567871,0.0715191513299942,-1.4839775562286377,-1.2871156930923462,-103.00521087646484, -29.102834701538086
182,666346828,0.30310932,-0.729105,-0.23730142,-0.56587887,12.946249008178711,-0.21676228940486908,-0.6396536827087402,-5.400519371032715,-99.99394226074219, -31.956157684326172
183,666363495,0.2946054,-0.73697287,-0.24275671,-0.5578063,12.667458534240723,-1.1241014003753662,-1.1041158437728882,-24.30870819091797,-95.09329986572266, -29.642560958862305
184,666380162,0.28611854,-0.74467796,-0.24768086,-0.5497682,12.507474899291992,-1.8892747163772583,-1.2186349630355835,-25.99793243408203,-93.27415466308594, -27.249414443969727
185,666396829,0.27871746,-0.75114405,-0.2527205,-0.5424311,12.155168533325195,-2.1368463039398193,-1.2262170314788818,-18.78064727783203,-83.45748901367188, -27.260112762451172
186,666413496,0.27127594,-0.7570059,-0.25732356,-0.53585106,11.597296714782715,-1.875036358833313,-1.0604844093322754,-20.791791915893555,-76.60127258300781, -27.697521209716797
187,666430163,0.26293156,-0.7629702,-0.2603112,-0.53007704,11.463001251220703,-1.854980707168579,-1.6745034456253052,-33.07992172241211,-71.4384536743164, -23.96977996826172
188,666446830,0.25196713,-0.7700062,-0.26117674,-0.52477604,11.929412841796875,-1.3572944402694702,-1.3232194185256958,-57.35568618774414,-73.77293395996094, -21.354524612426758
189,666463497,0.2386394,-0.77790487,-0.26047093,-0.51968306,11.557271003723145,-1.5695360898971558,-0.708306074142456,-77.4180679321289,-77.37296295166016, -20.393888473510742
190,666480164,0.2246256,-0.78590447,-0.25960568,-0.51429826,11.501992225646973,-2.3795557022094727,0.20568764209747314,-81.31558990478516,-80.33502197265625, -21.35881996154785
191,666496831,0.21150196,-0.7933737,-0.25915775,-0.50858885,11.547905921936035,-1.8389602899551392,-0.4828919768333435,-73.65314483642578,-79.35780334472656, -20.953596115112305
192,666513498,0.19638644,-0.8009616,-0.2580149,-0.50331026,11.921051025390625,-0.08864093571901321,-0.7122512459754944,-87.9086685180664,-80.03313446044922, -24.574546813964844
193,666530165,0.17889406,-0.8088885,-0.25520974,-0.49856225,11.306319236755371,-0.15742124617099762,0.9688653945922852,-108.15127563476562,-80.32512664794922, -23.766401290893555
194,666546832,0.15953831,-0.816583,-0.25123438,-0.49459177,11.679848670959473,-0.27524474263191223,2.114255666732788,-123.60537719726562,-77.12926483154297, -25.027135848999023
195,666563499,0.13966246,-0.8237607,-0.24676111,-0.49093974,11.850211143493652,-1.0485104322433472,1.6502195596694946,-128.20606994628906,-74.05107116699219, -25.269437789916992
196,666580166,0.12091178,-0.82990146,-0.24298063,-0.4874471,11.143016815185547,-1.5339821577072144,1.2145001888275146,-118.78092193603516,-68.50495147705078, -27.3541316986084
197,666596833,0.1036125,-0.83493906,-0.23988342,-0.4843525,9.642782211303711,-1.7211570739746094,1.347527265548706,-107.96794891357422,-60.75992965698242, -28.61795425415039
198,666613500,0.086030126,-0.8389976,-0.23490886,-0.48321784,8.352774620056152,-2.4399304389953613,1.849899411201477,-118.39552307128906,-45.44181442260742, -21.853296279907227
199,666630167,0.0673617,-0.8431441,-0.23177682,-0.48046842,7.714569568634033,-0.9707670211791992,-5.553292751312256,-116.0029067993164,-57.94858169555664, -35.066104888916016
200,666646834,0.04540388,-0.8480559,-0.22971554,-0.47536337,10.100751876831055,-0.8376070261001587,-7.41333532333374,-128.15072631835938,-79.78376770019531, -49.86259078979492
201,666663501,0.0184112,-0.85270137,-0.22633731,-0.4704605,12.031932830810547,2.828394889831543,-4.7104878425598145,-162.0838623046875,-85.19608306884766, -59.15962219238281
202,666680168,-0.010080138,-0.85554844,-0.22085303,-0.46814486,7.6956353187561035,-5.380922794342041,1.6342252492904663,-181.4540252685547,-66.26873779296875, -54.78783416748047
203,666696835,-0.02516928,-0.8561608,-0.22019218,-0.46676615,6.666563510894775,-3.793999433517456,3.45670485496521,-88.7003402709961,-32.93899154663086, -43.47328186035156
204,666713502,-0.03472035,-0.8552666,-0.2207963,-0.46750697,7.325133323669434,-2.4894065856933594,1.2484188079833984,-55.52541732788086,-7.108952045440674, -35.144657135009766
205,666730169,-0.04001319,-0.85335916,-0.22155343,-0.47020358,8.743988990783691,-3.6936073303222656,1.4078282117843628,-33.21281814575195,14.09618854522705, -23.483718872070312
206,666746836,-0.043622743,-0.8502735,-0.22094029,-0.47572848,9.403657913208008,-5.484157562255859,1.7765284776687622,-32.42155456542969,36.61297607421875, -11.102997779846191
207,666763503,-0.038287695,-0.8462888,-0.2227955,-0.48238108,9.955778121948242,-6.043758869171143,-0.6537815928459167,25.928022384643555,60.38349151611328, 2.582036256790161
208,666780170,-0.022575265,-0.8415323,-0.2292873,-0.48861125,10.073437690734863,-3.573983907699585,-0.8218543529510498,102.08887481689453,77.53939056396484, 8.62796688079834
209,666796837,-0.0030611393,-0.8357648,-0.23561531,-0.49595696,9.968191146850586,-2.2460741996765137,-0.15261295437812805,121.60818481445312,93.29244995117188, 20.891918182373047
210,666813504,0.016487336,-0.82905734,-0.23902524,-0.5052318,10.319878578186035,-2.1007070541381836,-1.329604148864746,108.71379852294922,107.5120849609375, 36.296592712402344
211,666830171,0.036310427,-0.82133114,-0.23867573,-0.516847,10.593255043029785,-2.851044178009033,-1.51854407787323,93.4947738647461,125.24700927734375, 56.74870681762695
212,666846838,0.055226363,-0.812902,-0.23374319,-0.53057003,10.632527351379395,-3.085096597671509,-1.787680983543396,68.79574584960938,139.30081176757812, 77.72269439697266
213,666863505,0.07373935,-0.8041462,-0.22458072,-0.5454129,11.66191291809082,-3.4665534496307373,-2.3798892498016357,49.43277359008789,147.73338317871094, 98.9354019165039
214,666880172,0.09356145,-0.7946563,-0.21271239,-0.56082195,12.916769027709961,-2.665867805480957,-2.260718822479248,46.00697708129883,157.04898071289062, 117.37469482421875
215,666896839,0.11466784,-0.7842589,-0.19928671,-0.57625884,13.28444766998291,-2.1622655391693115,-1.9445035457611084,47.56494903564453,163.61903381347656, 129.49790954589844
216,666913506,0.13789988,-0.7726611,-0.18536462,-0.5912854,13.481188774108887,-1.6831371784210205,-2.153582811355591,58.58131790161133,169.50599670410156, 139.30418395996094
217,666930173,0.16338749,-0.7594986,-0.17124054,-0.60592335,13.407082557678223,-1.6098648309707642,-1.9036309719085693,71.73368072509766,176.9247589111328, 147.9736328125
218,666946840,0.19006413,-0.74458116,-0.15593289,-0.62061226,13.514951705932617,-1.011627197265625,-1.0161805152893066,74.93962860107422,187.29229736328125, 157.04672241210938
219,666963507,0.2160693,-0.7278527,-0.13842744,-0.6359107,14.639307022094727,0.17800380289554596,-1.2590241432189941,63.852169036865234,200.3468780517578, 162.77284240722656
220,666980174,0.2403457,-0.7091986,-0.11954735,-0.6519047,15.161855697631836,1.2527530193328857,-2.054060459136963,51.41195297241211,212.7156982421875, 159.3328857421875
221,666996841,0.2646247,-0.6885484,-0.1004787,-0.6676669,15.407463073730469,0.21953660249710083,-1.9267935752868652,54.0923957824707,220.95167541503906, 159.14207458496094
222,667013508,0.2892147,-0.6657971,-0.08246485,-0.6828386,15.749319076538086,1.1127108335494995,-1.7151293754577637,64.66239929199219,226.20994567871094, 155.3143310546875
223,667030175,0.31163335,-0.6418067,-0.06546813,-0.69762677,15.869712829589844,3.191016912460327,-1.9755903482437134,62.19440460205078,227.13438415527344, 140.65821838378906
224,667046842,0.32965192,-0.6181634,-0.049400147,-0.71187305,15.114127159118652,2.9202229976654053,-3.132051944732666,46.728031158447266,219.24400329589844, 116.94088745117188
225,667063509,0.34800726,-0.593896,-0.03871461,-0.724348,14.540895462036133,0.2788427770137787,-4.5948357582092285,76.53461456298828,202.8531036376953, 99.67496490478516
226,667080176,0.36735436,-0.56914663,-0.033294503,-0.7348569,14.741159439086914,0.36435502767562866,-4.83540153503418,108.50774383544922,185.09974670410156, 87.78358459472656
227,667096843,0.38337988,-0.5471787,-0.027657779,-0.74353933,13.345808029174805,2.372710943222046,-6.059323787689209,87.82996368408203,163.89456176757812, 77.19024658203125
228,667113510,0.394704,-0.53038657,-0.020676978,-0.74998105,11.68720531463623,3.271517276763916,-7.344198703765869,50.08823013305664,131.86846923828125, 65.22453308105469
229,667130177,0.40143496,-0.5193367,-0.014164853,-0.75428045,10.025782585144043,3.4018917083740234,-8.340587615966797,20.522504806518555,92.73287963867188, 46.588951110839844
230,667146844,0.40458778,-0.5142205,-0.008693056,-0.7561816,9.137600898742676,2.496600389480591,-8.93027114868164,-2.984025716781616,50.39876937866211, 31.611371994018555
231,667163511,0.4058618,-0.51395416,-0.0060980865,-0.7557051,8.550398826599121,1.6427339315414429,-8.694933891296387,-7.927682876586914,8.841346740722656, 18.682519912719727
232,667180178,0.40709576,-0.5164354,-0.009233057,-0.75331426,8.602177619934082,2.3304708003997803,-8.000809669494629,14.176812171936035,-28.013526916503906, 3.739332675933838
233,667196845,0.40850326,-0.5210424,-0.01737446,-0.749225,8.842297554016113,2.2607617378234863,-6.939644813537598,34.917808532714844,-58.88813018798828, -8.204666137695312
234,667213512,0.41025758,-0.5272794,-0.029366214,-0.74350715,9.38603687286377,1.6189697980880737,-6.231785774230957,51.67561340332031,-83.7628173828125, -15.391529083251953
235,667230179,0.41231626,-0.5345543,-0.044630006,-0.73638004,9.855330467224121,1.4218077659606934,-5.674447536468506,66.89820098876953,-103.2129898071289, -21.50090217590332
236,667246846,0.4143427,-0.5426595,-0.06215063,-0.72799605,10.482589721679688,1.4432878494262695,-5.262999057769775,76.2737045288086,-118.32135009765625, -26.139083862304688
237,667263513,0.4154387,-0.55195147,-0.080640696,-0.7185105,10.625760078430176,1.721738576889038,-5.216050624847412,74.77933502197266,-131.41709899902344, -30.765625
238,667280180,0.41451582,-0.56280166,-0.09854473,-0.7083219,11.044098854064941,1.9349714517593384,-5.038546562194824,60.189083099365234,-141.12258911132812, -35.6351432800293
239,667296847,0.41100338,-0.574003,-0.1119418,-0.6993325,13.515230178833008,-3.8301496505737305,6.908487796783447,26.417030334472656,-127.00106048583984, -33.96189880371094
240,667313514,0.40617636,-0.58471876,-0.118116505,-0.6922235,12.528658866882324,-5.571988582611084,13.04161262512207,-13.603581428527832,-98.04109954833984, -17.527009963989258
241,667330181,0.39855507,-0.5978858,-0.12632264,-0.6839074,19.07858657836914,1.5154855251312256,-2.8782906532287598,-21.11988639831543,-122.8660888671875, -33.739540100097656
242,667346848,0.39032418,-0.6127148,-0.14067899,-0.6726345,17.69963836669922,1.5382295846939087,-0.6986185908317566,3.3290748596191406,-160.15167236328125, -52.24037170410156
243,667363515,0.38254985,-0.6269676,-0.15623653,-0.6604222,11.68048095703125,-0.4828721880912781,1.756657600402832,13.264201164245605,-164.23538208007812, -53.1610221862793
244,667380182,0.3753869,-0.6396314,-0.17169353,-0.6484425,9.53513240814209,-0.17564521729946136,0.3001493215560913,19.35710906982422,-155.21365356445312, -52.30745315551758
245,667396849,0.3688762,-0.6505403,-0.18524398,-0.63750476,7.7799482345581055,-2.9446003437042236,-1.4617915153503418,17.013629913330078,-137.2083282470703, -45.818729400634766
246,667413516,0.36602038,-0.65913135,-0.19669412,-0.6268065,8.22277545928955,-5.659396171569824,-5.322154998779297,29.738056182861328,-116.0561294555664, -24.074068069458008
247,667430183,0.3658151,-0.6657188,-0.20767081,-0.6163365,10.462889671325684,-2.897324800491333,-5.450788974761963,44.460296630859375,-101.57438659667969, -13.951943397521973
248,667446850,0.36433274,-0.67102623,-0.2173014,-0.60808367,11.51078987121582,1.1981720924377441,-3.403834342956543,32.97917175292969,-84.40670013427734, -20.684152603149414
249,667463517,0.35925198,-0.67684954,-0.2231906,-0.6024938,10.975458145141602,0.5530838966369629,-1.150128960609436,-4.543999671936035,-70.30803680419922, -24.33451271057129
250,667480184,0.3550821,-0.68242925,-0.22822618,-0.5967578,10.697076797485352,-1.5879645347595215,-1.5193029642105103,-3.032817840576172,-66.56301879882812, -16.583826065063477
251,667496851,0.35112116,-0.6879993,-0.23312294,-0.59078306,11.610947608947754,-0.20681002736091614,-0.7492545247077942,-2.2371978759765625,-67.05490112304688, -14.540104866027832
252,667513518,0.34641296,-0.6937447,-0.23851672,-0.58465904,12.835824012756348,-0.04774215444922447,-0.08756038546562195,-3.955021858215332,-70.9668960571289, -19.281391143798828
253,667530185,0.34007272,-0.70017844,-0.24381594,-0.5784934,12.648213386535645,-1.8966376781463623,1.1712419986724854,-13.707992553710938,-76.49378967285156, -24.150856018066406
254,667546852,0.3317417,-0.70814556,-0.24865973,-0.5715295,12.834848403930664,-3.488452196121216,0.09029337763786316,-27.377479553222656,-88.85059356689453, -25.468914031982422
255,667563519,0.32207352,-0.7171412,-0.25353697,-0.56364554,12.916800498962402,-2.83339786529541,0.08309559524059296,-34.55608367919922,-99.84575653076172, -27.09016227722168
256,667580186,0.31151873,-0.726039,-0.25750363,-0.5563413,13.003111839294434,-1.1919993162155151,0.47396838665008545,-43.27349090576172,-96.24946594238281, -27.532054901123047
257,667596853,0.299594,-0.73496574,-0.25986522,-0.5500354,12.894862174987793,-0.7060182690620422,0.27226710319519043,-58.10039138793945,-90.48594665527344, -26.85161590576172
258,667613520,0.28839034,-0.7424862,-0.26221165,-0.5447849,12.512463569641113,-1.239027500152588,0.4431306719779968,-53.514766693115234,-78.63177490234375, -28.731904983520508
259,667630187,0.27821264,-0.74898785,-0.26565385,-0.5394841,11.578012466430664,-1.7636709213256836,0.2965741753578186,-42.07736587524414,-75.51324462890625, -32.235633850097656
260,667646854,0.26856163,-0.7556852,-0.27010828,-0.5327814,11.182661056518555,-2.735844850540161,0.37804704904556274,-33.44379425048828,-84.53911590576172, -32.48866271972656
261,667663521,0.2579377,-0.7636092,-0.2739373,-0.52471673,11.044422149658203,-2.4717938899993896,0.4827885627746582,-40.551116943359375,-96.86787414550781, -28.067155838012695
262,667680188,0.24445917,-0.77345145,-0.27533603,-0.51594853,11.398770332336426,-1.379649043083191,-0.21528063714504242,-66.40772247314453,-108.6585922241211, -20.795862197875977
263,667696855,0.22793645,-0.78434676,-0.27492496,-0.5072097,11.53823471069336,-0.6131455302238464,-0.07937191426753998,-90.85767364501953,-115.05740356445312, -20.054180145263672
264,667713522,0.20956552,-0.79523385,-0.2733413,-0.49896905,11.346116065979004,-0.4807354807853699,1.3675646781921387,-105.85018920898438,-114.10462188720703, -20.990495681762695
265,667730189,0.18984136,-0.805418,-0.27079055,-0.49186867,11.716044425964355,-0.693547248840332,2.181715965270996,-117.71168518066406,-106.75117492675781, -23.3311824798584
266,667746856,0.16917293,-0.8145981,-0.26768693,-0.48595738,11.53728199005127,-0.14462214708328247,1.9413275718688965,-125.7192611694336,-97.97361755371094, -26.928443908691406
267,667763523,0.14685957,-0.822893,-0.2636694,-0.48141235,11.148541450500488,-0.7979099750518799,1.7696688175201416,-139.4778289794922,-89.48528289794922, -30.563989639282227
268,667780190,0.12514372,-0.8297106,-0.25972605,-0.4779768,10.132684707641602,-1.817774772644043,2.6872916221618652,-136.38368225097656,-77.45314025878906, -32.86738967895508
269,667796857,0.10554575,-0.8348583,-0.2549725,-0.47629917,8.46908187866211,-2.940164804458618,2.6519885063171387,-128.68519592285156,-57.60474395751953, -25.875438690185547
270,667813524,0.08691428,-0.8393517,-0.25133708,-0.47409344,7.992014408111572,-2.3774611949920654,-2.3940558433532715,-118.11033630371094,-57.73039245605469, -30.008941650390625
271,667830191,0.06614705,-0.8440748,-0.24826106,-0.47066846,9.624565124511719,-0.8454670310020447,-6.857024192810059,-126.67442321777344,-69.53136444091797, -39.17136764526367
272,667846858,0.042271983,-0.8488655,-0.24464437,-0.46667928,11.924918174743652,3.1450510025024414,-8.181059837341309,-145.55502319335938,-77.9999771118164, -45.783084869384766
273,667863525,0.009193517,-0.8521726,-0.23648298,-0.46668318,9.333197593688965,-5.280073642730713,0.3087514638900757,-220.13819885253906,-64.01884460449219, -52.45127868652344
274,667880192,-0.0054641888,-0.853294,-0.23303826,-0.46642575,5.503402233123779,-7.978939533233643,3.5604493618011475,-96.54927825927734,-28.963563919067383, -24.699813842773438
275,667896859,-0.00805612,-0.8521697,-0.23460634,-0.4676557,7.114067554473877,-1.148604393005371,4.333375930786133,-12.242958068847656,6.368936538696289, -19.15625
276,667913526,-0.015973372,-0.8488568,-0.23376232,-0.47385886,7.7766828536987305,-0.0002591535449028015,3.049736738204956,-59.31724166870117,33.67463684082031, -25.4564266204834
277,667930193,-0.025002971,-0.84453243,-0.22925977,-0.48330104,8.864267349243164,-5.487799167633057,-0.0416530966758728,-83.00691223144531,53.57500076293945, -9.047743797302246
278,667946860,-0.02022502,-0.8393417,-0.22909786,-0.4925556,9.890873908996582,-6.181946754455566,-0.1806926131248474,11.680564880371094,77.80450439453125, 10.06645679473877
279,667963527,-0.006949805,-0.83270943,-0.23268579,-0.50239855,10.432668685913086,-3.166990041732788,0.14330250024795532,72.23712921142578,99.88960266113281, 14.855935096740723
280,667980194,0.011087397,-0.8251113,-0.23617561,-0.5131173,10.420287132263184,-4.723689556121826,-1.9966003894805908,97.70407104492188,115.73560333251953, 30.30359649658203
281,667996861,0.03770867,-0.81604093,-0.24161926,-0.52371323,10.694267272949219,-4.16372537612915,-2.407132625579834,153.5906982421875,133.9567413330078, 47.046905517578125
282,668013528,0.06683254,-0.80573595,-0.24513464,-0.5350068,10.533077239990234,-4.128523349761963,-2.191950798034668,159.8204345703125,146.90689086914062, 64.6134262084961
283,668030195,0.09752566,-0.7945325,-0.24568395,-0.5466684,10.264226913452148,-4.993695259094238,-2.4659602642059326,157.37001037597656,156.1989288330078, 85.11168670654297
284,668046862,0.13018996,-0.78226,-0.24331582,-0.5584956,10.840567588806152,-4.496384620666504,-2.201115131378174,157.58021545410156,166.37542724609375, 106.50540161132812
285,668063529,0.16312848,-0.7683048,-0.23764445,-0.5715087,12.062124252319336,-2.5194830894470215,-1.2367439270019531,145.875732421875,182.60536193847656, 121.4247817993164
286,668080196,0.19334917,-0.7529583,-0.22726658,-0.5865322,13.274638175964355,-1.2000569105148315,-1.1107975244522095,111.28056335449219,199.4940643310547, 131.1090545654297
287,668096863,0.22027765,-0.7366502,-0.2119869,-0.6032294,14.133611679077148,-0.7398199439048767,-0.7436069250106812,73.1362075805664,213.3991241455078, 139.53529357910156
288,668113530,0.24437681,-0.7194713,-0.19341917,-0.62066925,14.744081497192383,-1.116955041885376,-1.460652470588684,45.414920806884766,221.6405792236328, 142.1207275390625
289,668130197,0.26734766,-0.70094055,-0.17353863,-0.63803756,15.016590118408203,-1.5202054977416992,-0.9281926155090332,36.60886764526367,227.8289031982422, 142.18026733398438
290,668146864,0.28882793,-0.6813202,-0.15242857,-0.65509313,15.43779468536377,-1.11579167842865,-0.654458224773407,26.42913818359375,231.66087341308594, 140.89833068847656
291,668163531,0.30867523,-0.6608906,-0.12970202,-0.67165524,16.21926498413086,0.026912586763501167,-1.0408869981765747,13.63892650604248,234.59634399414062, 141.33082580566406
292,668180198,0.32721716,-0.6397377,-0.105872564,-0.68735415,16.69436264038086,0.8979225754737854,-1.0964877605438232,4.946225643157959,235.34048461914062, 141.63768005371094
293,668196865,0.34586644,-0.6175915,-0.08413706,-0.70134026,16.821500778198242,1.5371143817901611,-2.4048025608062744,18.806684494018555,228.0521697998047, 136.2447967529297
294,668213532,0.36582106,-0.59364927,-0.067514196,-0.7135808,16.861753463745117,1.3154280185699463,-3.111097574234009,54.325531005859375,218.14346313476562, 124.17070770263672
295,668230199,0.3860893,-0.56843466,-0.055774592,-0.7243662,16.516666412353516,1.2336366176605225,-3.194000720977783,83.46281433105469,206.61167907714844, 109.08232879638672
296,668246866,0.40524283,-0.54352576,-0.047432676,-0.73355865,15.427066802978516,1.5988582372665405,-4.912735462188721,95.85194396972656,189.73782348632812, 94.83238220214844
297,668263533,0.42079896,-0.5225722,-0.03980312,-0.7404474,13.486323356628418,1.7008256912231445,-7.123265743255615,75.77955627441406,158.39414978027344, 81.97135162353516
298,668280200,0.4316391,-0.5079378,-0.032783248,-0.7447229,11.024787902832031,3.4264228343963623,-8.963078498840332,44.4263801574707,114.2093734741211, 65.26422882080078
299,668296867,0.43707916,-0.5010081,-0.026936188,-0.7464767,9.114683151245117,4.05474853515625,-10.11147689819336,9.36141300201416,61.690582275390625, 42.973018646240234
300,668313534,0.43866837,-0.5009008,-0.024149183,-0.7457113,8.547213554382324,3.768442392349243,-10.26743221282959,-8.122611999511719,8.504093170166016, 21.74544334411621
301,668330201,0.4386337,-0.50487083,-0.026671693,-0.7429633,8.666851043701172,3.4663946628570557,-9.339241981506348,1.6451810598373413,-35.1031379699707, 2.0051820278167725
302,668346868,0.4384931,-0.5107324,-0.034781888,-0.7386925,9.145036697387695,3.112870454788208,-7.953174591064453,24.500837326049805,-66.54188537597656, -12.8025484085083
303,668363535,0.4381119,-0.5178206,-0.046639737,-0.73331094,9.594964027404785,2.9902095794677734,-6.583864212036133,39.332279205322266,-87.67024230957031, -23.38942527770996
304,668380202,0.43722528,-0.5259725,-0.060569603,-0.7269928,9.979496955871582,2.4216501712799072,-5.555304527282715,45.13193130493164,-102.44273376464844, -30.02081871032715
305,668396869,0.43544933,-0.5351255,-0.075632595,-0.71993357,10.39173698425293,1.9007151126861572,-4.852481842041016,44.95469665527344,-113.61851501464844, -35.7962760925293
306,668413536,0.43245092,-0.5452899,-0.09090948,-0.71230674,10.936994552612305,1.7654223442077637,-4.414317607879639,38.835384368896484,-121.71807098388672, -40.316261291503906
307,668430203,0.42777076,-0.55665326,-0.10557041,-0.70427585,11.01763916015625,1.6888840198516846,-4.360782623291016,26.26405906677246,-128.0776824951172, -44.191253662109375
308,668446870,0.4208422,-0.5691074,-0.11800782,-0.6964789,12.192995071411133,-0.02972503937780857,-0.6896072030067444,3.5629444122314453,-127.32547760009766, -46.36000442504883
309,668463537,0.41267887,-0.5807555,-0.123213775,-0.6908239,12.039580345153809,-7.7972917556762695,13.320685386657715,-35.27611541748047,-95.07596588134766, -30.735544204711914
310,668480204,0.4039301,-0.59246397,-0.12530428,-0.6856572,13.213345527648926,-3.7936367988586426,5.39396858215332,-53.07269287109375,-85.53694152832031, -22.572601318359375
311,668496871,0.39644068,-0.6046978,-0.13515665,-0.6774276,18.525123596191406,-0.47402092814445496,-3.6700429916381836,-10.173731803894043,-121.1241683959961, -39.31111145019531
312,668513538,0.3887541,-0.61834043,-0.14976718,-0.66640484,14.904242515563965,-0.0626654326915741,1.7889320850372314,9.997745513916016,-152.19772338867188, -50.961761474609375
313,668530205,0.38097972,-0.6315691,-0.16484798,-0.6548283,11.536341667175293,0.3463617265224457,2.7043237686157227,13.474472999572754,-154.01434326171875, -52.23896789550781
314,668546872,0.37228942,-0.64406663,-0.17833062,-0.644032,9.799488067626953,-0.6981983780860901,0.12554463744163513,3.330702304840088,-144.2842559814453, -52.25233840942383
315,668563539,0.3645705,-0.65508455,-0.18961924,-0.6340325,8.790502548217773,-3.1671202182769775,-2.5884087085723877,0.7554752230644226,-127.41986083984375, -42.09408950805664
316,668580206,0.36012736,-0.6640649,-0.20018858,-0.6238997,9.177248001098633,-4.489363670349121,-5.024261951446533,17.708465576171875,-112.9909439086914, -27.007707595825195
317,668596873,0.35677424,-0.6717981,-0.21013987,-0.61419916,10.121983528137207,-2.4815897941589355,-4.148377895355225,22.59717559814453,-102.469970703125, -22.46059799194336
318,668613540,0.35237858,-0.67812747,-0.21890688,-0.6066733,10.519328117370605,-0.007804334629327059,-2.581705331802368,13.123963356018066,-84.97699737548828, -28.83386993408203
319,668630207,0.3465821,-0.68390286,-0.22598056,-0.60090834,10.357440948486328,-0.40853452682495117,-2.0117552280426025,-1.7631657123565674,-72.42498016357422, -31.849376678466797
320,668646874,0.34169906,-0.6888303,-0.23345596,-0.59519154,11.151885032653809,-0.15674173831939697,-1.791422963142395,6.137418746948242,-68.2310791015625, -31.37961769104004
321,668663541,0.3358995,-0.6941405,-0.24008864,-0.5896593,11.18665885925293,-1.0775139331817627,-0.14634495973587036,-2.8453712463378906,-68.43196105957031, -30.9279842376709
322,668680208,0.33073702,-0.6996397,-0.24745502,-0.58299506,11.802489280700684,-0.2964577078819275,-0.37704384326934814,4.584017276763916,-75.34475708007812, -28.93227195739746
323,668696875,0.32472125,-0.7056471,-0.25505042,-0.57581925,11.83307933807373,-0.7490978240966797,0.4296821355819702,1.1042253971099854,-81.9158935546875, -31.40788459777832
324,668713542,0.31773794,-0.7123634,-0.26299012,-0.56781805,11.985016822814941,-1.900500774383545,-0.10427502542734146,-2.3718152046203613,-91.34088134765625, -33.827144622802734
325,668730209,0.3095278,-0.7202216,-0.27121118,-0.55849624,11.949625968933105,-2.5801689624786377,0.13192546367645264,-7.403903961181641,-105.23754119873047, -35.0965461730957
326,668746876,0.30157048,-0.7282984,-0.27975243,-0.5480651,12.047021865844727,-2.1689863204956055,0.3678714632987976,-3.3440780639648438,-111.94319915771484, -33.02565383911133
327,668763543,0.2923721,-0.73692024,-0.28703007,-0.5376625,12.06450080871582,-1.49492609500885,-0.32187551259994507,-15.520903587341309,-113.8130111694336, -30.454345703125
328,668780210,0.28209543,-0.74598235,-0.29272857,-0.5274871,12.54168701171875,-2.2954013347625732,-0.21739211678504944,-28.162778854370117,-113.42215728759766, -26.061227798461914
329,668796877,0.27228245,-0.7546686,-0.2977651,-0.5173719,12.462160110473633,-2.937187433242798,-0.4121885299682617,-27.599258422851562,-109.74280548095703, -21.921913146972656
330,668813544,0.2620965,-0.7628203,-0.3017389,-0.50829566,13.011996269226074,-1.8637186288833618,-0.5347278118133545,-34.469635009765625,-101.44368743896484, -20.8687744140625
331,668830211,0.2487994,-0.7714192,-0.3036333,-0.50081766,12.683112144470215,-1.0983246564865112,-0.32731324434280396,-62.20082092285156,-97.57466888427734, -22.828447341918945
332,668846878,0.23292644,-0.7807367,-0.30379918,-0.49386415,12.268387794494629,-1.6200850009918213,0.1390947699546814,-84.15403747558594,-99.9595718383789, -21.937442779541016
333,668863545,0.21562491,-0.79014343,-0.30262783,-0.48743802,12.801216125488281,-1.1296277046203613,0.6432363986968994,-97.63349914550781,-98.57975006103516, -20.309587478637695
334,668880212,0.19640897,-0.79944706,-0.30021608,-0.48184907,13.043282508850098,-0.518315851688385,0.9589952826499939,-113.80052185058594,-96.18856048583984, -21.478130340576172
335,668896879,0.1756494,-0.80840755,-0.2968392,-0.47698125,13.08549690246582,-0.4772021174430847,1.7391581535339355,-126.51992797851562,-93.36543273925781, -23.00089454650879
336,668913546,0.15446812,-0.81628835,-0.2928875,-0.47331816,11.93179702758789,-0.8171334266662598,2.6568872928619385,-131.91554260253906,-83.73733520507812, -24.907806396484375
337,668930213,0.13288277,-0.8230114,-0.28845364,-0.47094488,10.870365142822266,-1.0301895141601562,2.8261852264404297,-137.13461303710938,-73.49483489990234, -27.32464599609375
338,668946880,0.110848725,-0.828129,-0.2830049,-0.4709814,9.88916301727295,-1.4549168348312378,4.521241664886475,-146.29888916015625,-55.066558837890625, -28.561279296875
339,668963547,0.08911028,-0.83180803,-0.27500758,-0.47384158,7.51495885848999,-2.425649404525757,1.5333021879196167,-157.29966735839844,-32.30369567871094, -18.237255096435547
340,668980214,0.06388684,-0.83627665,-0.26838842,-0.47384337,8.732866287231445,-2.276790142059326,-7.565601348876953,-167.88636779785156,-58.94369125366211, -34.46992492675781
341,668996881,0.039200567,-0.8408317,-0.26434103,-0.4707327,10.19522476196289,-1.467812180519104,-9.330947875976562,-150.8020477294922,-77.16414642333984, -46.21025848388672
342,669013548,0.008975826,-0.84455645,-0.25852898,-0.46883562,13.37541675567627,-0.2639947831630707,-2.559028387069702,-190.63221740722656,-76.92662811279297, -55.984588623046875
343,669030215,-0.008282642,-0.8466458,-0.25443232,-0.46731856,5.747807025909424,-9.655924797058105,5.133759021759033,-110.39531707763672,-46.75917434692383, -27.315542221069336
344,669046882,-0.014872077,-0.846376,-0.2547891,-0.46745002,6.4247283935546875,-3.1827821731567383,3.76456618309021,-37.22056579589844,-11.046337127685547, -23.51728630065918
345,669063549,-0.019173134,-0.84456205,-0.2551932,-0.47034428,8.189132690429688,-3.1512980461120605,1.7408252954483032,-28.793935775756836,13.674615859985352, -19.10523223876953
346,669080216,-0.02163068,-0.8413698,-0.25377375,-0.47668457,9.091009140014648,-4.609105110168457,1.8662116527557373,-30.269441604614258,40.839073181152344, -4.792243957519531
347,669096883,-0.01887368,-0.8370454,-0.2518456,-0.4853587,9.237502098083496,-6.475101470947266,1.3583508729934692,-6.112225532531738,66.73860931396484, 13.27157211303711
348,669113550,-0.0064736675,-0.83163565,-0.25236037,-0.49462578,8.688492774963379,-4.4121527671813965,0.7981806993484497,56.223758697509766,90.4515151977539, 29.20020294189453
349,669130217,0.011405694,-0.8250405,-0.25375158,-0.50476545,8.917338371276855,-2.817936897277832,-0.5638974905014038,88.88719940185547,108.7075424194336, 40.566680908203125
350,669146884,0.03362815,-0.8172044,-0.25403428,-0.5162486,9.254369735717773,-3.5608670711517334,-1.0345120429992676,107.3812484741211,128.04244995117188, 59.52790069580078
351,669163551,0.058281217,-0.8080422,-0.25212923,-0.52924657,9.525553703308105,-3.2433738708496094,-1.3381025791168213,110.85389709472656,145.772705078125, 77.64031982421875
352,669180218,0.08349338,-0.79775053,-0.24644433,-0.5439563,9.63743782043457,-3.6216228008270264,-1.8359473943710327,97.61526489257812,161.66761779785156, 97.90921020507812
353,669196885,0.109696515,-0.7867499,-0.23704341,-0.55928695,10.528526306152344,-3.1585755348205566,-2.7566394805908203,88.41061401367188,171.38571166992188, 120.302734375
354,669213552,0.13609199,-0.7742499,-0.22478233,-0.57575095,12.097865104675293,-0.5678175687789917,-1.8527005910873413,77.65219116210938,185.67471313476562, 133.09548950195312
355,669230219,0.15950356,-0.7612281,-0.20837863,-0.59301686,13.208398818969727,-0.5550971627235413,-2.4526984691619873,44.57770538330078,191.1752166748047, 141.77403259277344
356,669246886,0.18322217,-0.74741226,-0.19053611,-0.6095086,13.720158576965332,-0.16484077274799347,-2.590935707092285,42.262168884277344,192.3570556640625, 150.2687225341797
357,669263553,0.20737185,-0.732276,-0.17292905,-0.62519157,14.199124336242676,0.018799150362610817,-2.2494969367980957,48.158973693847656,194.0313262939453, 150.20960998535156
358,669280220,0.23083489,-0.7159153,-0.15486981,-0.6404655,15.013717651367188,0.30541327595710754,-2.10235595703125,44.978023529052734,197.11769104003906, 148.7632598876953
359,669296887,0.25334918,-0.69861716,-0.13628143,-0.65511495,15.123997688293457,0.13354085385799408,-2.3423991203308105,40.114402770996094,198.10092163085938, 147.33560180664062
360,669313554,0.27637446,-0.67989355,-0.118120335,-0.6688868,15.391250610351562,0.9000846147537231,-2.213940143585205,47.80139923095703,200.2284698486328, 147.97369384765625
361,669330221,0.29969978,-0.6596224,-0.10100233,-0.6818189,15.730944633483887,2.0093629360198975,-2.315359354019165,57.6380615234375,201.95191955566406, 145.12069702148438
362,669346888,0.32275277,-0.6384291,-0.08508332,-0.6935414,15.50928020477295,2.198819637298584,-3.271158218383789,64.78343963623047,198.4853057861328, 140.6769561767578
363,669363555,0.34678015,-0.61593467,-0.07524016,-0.70335406,15.697599411010742,3.3415818214416504,-5.386455535888672,102.07259368896484,183.86380004882812, 122.59785461425781
364,669380222,0.37071067,-0.5926341,-0.071596466,-0.7115002,14.979570388793945,1.3630523681640625,-5.165821552276611,134.5018768310547,166.50839233398438, 99.99578094482422
365,669396889,0.39590132,-0.56827754,-0.07344109,-0.7175858,14.528695106506348,0.5864162445068359,-4.5235443115234375,170.27015686035156,150.5611114501953, 88.96684265136719
366,669413556,0.41778776,-0.5454336,-0.076416105,-0.7225762,13.519837379455566,2.5008139610290527,-4.130817413330078,159.47642517089844,134.68020629882812, 72.35536193847656
367,669430223,0.4345485,-0.5275044,-0.077630006,-0.7258653,12.181697845458984,1.9263968467712402,-5.713159561157227,118.29472351074219,106.83903503417969, 61.322410583496094
368,669446890,0.44561294,-0.51589555,-0.07731951,-0.7275319,10.704898834228516,2.7203776836395264,-6.766936302185059,72.1257095336914,71.52206420898438, 46.9333381652832
369,669463557,0.4519018,-0.5101478,-0.07727174,-0.72771084,9.688581466674805,2.1747522354125977,-7.515061378479004,39.4095458984375,34.173622131347656, 30.028844833374023
370,669480224,0.45457584,-0.5092284,-0.07891249,-0.72651225,9.312422752380371,2.1449456214904785,-7.181392192840576,21.062206268310547,-1.4619120359420776, 13.077109336853027
371,669496891,0.45474225,-0.5119483,-0.0834353,-0.7239868,9.116243362426758,2.118557929992676,-7.217427730560303,16.139787673950195,-34.196224212646484, -3.250715970993042
372,669513558,0.45310977,-0.5175141,-0.09110843,-0.72011805,9.248529434204102,1.9739007949829102,-6.838841438293457,17.465208053588867,-63.5616455078125, -17.325559616088867
373,669530225,0.45051715,-0.52524984,-0.10171454,-0.71470356,9.71929931640625,1.7202818393707275,-6.1605610847473145,22.8879451751709,-89.19517517089844, -26.226011276245117
374,669546892,0.4467525,-0.5348701,-0.11484136,-0.707911,9.920563697814941,1.3635746240615845,-6.038366317749023,26.25144386291504,-111.76033020019531, -35.4246826171875
375,669563559,0.44259983,-0.5454057,-0.13072212,-0.6996785,10.4796142578125,0.9535262584686279,-6.2662529945373535,36.65081787109375,-130.01795959472656, -42.246604919433594
376,669580226,0.4375837,-0.5569162,-0.14814578,-0.6902303,10.824981689453125,0.7389569282531738,-6.29276704788208,39.04439163208008,-144.4858856201172, -47.602779388427734
377,669596893,0.4311121,-0.5689901,-0.16325636,-0.6809847,12.523390769958496,-2.5898332595825195,0.4199044108390808,20.681913375854492,-140.6912384033203, -45.68544006347656
378,669613560,0.4236905,-0.58074343,-0.1717191,-0.67359954,10.429309844970703,-4.483652114868164,8.65816879272461,-15.276142120361328,-113.34757995605469, -30.092601776123047
379,669630227,0.41305506,-0.594742,-0.17724201,-0.666523,13.245345115661621,-1.1165705919265747,0.9226481318473816,-48.69451904296875,-118.21141052246094, -31.653030395507812
380,669646894,0.40279484,-0.60835147,-0.18774626,-0.6575836,16.358882904052734,-0.5914167761802673,-1.4251371622085571,-20.95928192138672,-137.8449249267578, -45.48479080200195
381,669663561,0.3936921,-0.62118566,-0.20219867,-0.6467231,13.203216552734375,-0.5971023440361023,1.1050797700881958,6.389803409576416,-151.8076171875, -52.421043395996094
382,669680228,0.38653046,-0.6322303,-0.2180575,-0.63508296,9.860815048217773,-1.3302288055419922,0.7921823263168335,26.851356506347656,-148.41419982910156, -50.21179962158203
383,669696895,0.38276443,-0.6409794,-0.2347595,-0.62251496,9.222597122192383,-3.9215266704559326,-3.519930601119995,52.79314041137695,-139.7114715576172, -40.13422393798828
384,669713562,0.38278866,-0.64684767,-0.25294432,-0.6091635,9.18152141571045,-2.9662163257598877,-5.013233184814453,84.71672821044922,-128.58506774902344, -33.25327682495117
385,669730229,0.38298604,-0.65121186,-0.2697938,-0.5970396,9.439347267150879,-0.734186053276062,-3.465524435043335,81.74288177490234,-112.9343490600586, -32.61855697631836
386,669746896,0.3795345,-0.6572143,-0.2822109,-0.586839,9.587719917297363,-1.438381314277649,-1.510268211364746,39.32074737548828,-106.14772033691406, -29.855972290039062
387,669763563,0.37433228,-0.6640793,-0.292153,-0.5775126,10.180283546447754,-1.3279749155044556,-1.2595592737197876,17.458703994750977,-102.71338653564453, -26.419885635375977
388,669780230,0.36982572,-0.671136,-0.3018013,-0.5672049,10.908933639526367,-1.4153209924697876,-2.385986328125,20.926225662231445,-105.9139633178711, -19.463891983032227
389,669796897,0.3680661,-0.67566115,-0.31442192,-0.556011,12.223459243774414,1.9447788000106812,-1.5099786520004272,53.45939636230469,-102.06156921386719, -25.532604217529297
390,669813564,0.36678326,-0.6786444,-0.3272637,-0.54572016,12.867939949035645,0.9983293414115906,-2.061859130859375,58.46474838256836,-91.61349487304688, -30.3176212310791
391,669830231,0.3651571,-0.6813475,-0.338367,-0.5365946,13.333968162536621,0.5689840316772461,-1.2992982864379883,48.40986251831055,-81.61737060546875, -27.05240821838379
392,669846898,0.361153,-0.6854331,-0.34576324,-0.52933717,13.402077674865723,0.4116111397743225,-0.9528269171714783,15.761762619018555,-74.33692932128906, -19.92520523071289
393,669863565,0.3546414,-0.69100213,-0.3500662,-0.52364045,13.339746475219727,-0.07129090279340744,-1.029180884361267,-14.723166465759277,-70.8276138305664, -14.805538177490234
394,669880232,0.34694603,-0.69689184,-0.3529482,-0.51903564,13.060401916503906,0.3134264051914215,-0.5455605983734131,-28.89071273803711,-66.34745788574219, -14.198760032653809
395,669896899,0.33779758,-0.70306516,-0.3542567,-0.51584345,12.253373146057129,0.255266010761261,-0.8065294623374939,-45.58817672729492,-60.5482292175293, -14.507528305053711
396,669913566,0.32684636,-0.7103015,-0.3541097,-0.5130787,11.941240310668945,-0.9346290230751038,-0.5720174908638,-62.98866271972656,-63.43090057373047, -12.255081176757812
397,669930233,0.31400368,-0.7188408,-0.35216498,-0.5105385,12.076936721801758,-1.800343632698059,-0.5027334690093994,-82.06280517578125,-67.66938781738281, -7.503615856170654
398,669946900,0.29883558,-0.72836417,-0.3489523,-0.5083456,12.163811683654785,-1.953407645225525,-0.0676182433962822,-101.00093841552734,-72.47486114501953, -7.813454627990723
399,669963567,0.28192607,-0.73820484,-0.3454671,-0.50618565,11.863268852233887,-2.436807870864868,0.4030873775482178,-111.43833923339844,-77.22151947021484, -11.895774841308594
400,669980234,0.26473826,-0.7479101,-0.3426084,-0.5031538,11.7949800491333,-3.033203601837158,0.5844604969024658,-108.37224578857422,-83.23934936523438, -14.748595237731934
401,669996901,0.24750896,-0.75731647,-0.3403936,-0.4993429,12.048328399658203,-2.1926701068878174,0.7610949873924255,-104.0230712890625,-87.66685485839844, -17.582067489624023
402,670013568,0.22940435,-0.7667998,-0.33763,-0.49537647,12.171136856079102,-1.7998018264770508,1.5474679470062256,-110.26280212402344,-90.04206848144531, -17.362159729003906
403,670030235,0.20948756,-0.7765065,-0.3337435,-0.49169928,12.40796184539795,-1.3994625806808472,2.5393223762512207,-124.69960021972656,-91.91863250732422, -17.623750686645508
404,670046902,0.18761355,-0.78628397,-0.32831043,-0.488642,12.249673843383789,-2.538147211074829,2.916524887084961,-141.92860412597656,-91.34101867675781, -16.788803100585938
405,670063569,0.16518956,-0.7955849,-0.3223986,-0.48560914,11.63006591796875,-3.721489191055298,3.019923686981201,-145.99322509765625,-90.45677947998047, -17.268115997314453
406,670080236,0.14288911,-0.8038147,-0.31673,-0.48285276,9.934155464172363,-3.2029905319213867,2.86936354637146,-143.9473114013672,-85.57553100585938, -21.02884292602539
407,670096903,0.11975534,-0.8106699,-0.31090656,-0.48146677,8.056692123413086,-1.2264559268951416,1.6537535190582275,-150.7499542236328,-75.26546478271484, -27.41377067565918
408,670113570,0.09394119,-0.81663,-0.30469558,-0.48109365,7.995173931121826,0.653573751449585,-0.010027915239334106,-168.4118194580078,-72.16304779052734, -36.97151565551758
409,670130237,0.06348565,-0.82213557,-0.2948983,-0.48280194,8.398870468139648,0.12533466517925262,-1.5367037057876587,-210.40658569335938,-66.42667388916016, -34.54384994506836
410,670146904,0.0283042,-0.82684934,-0.2828722,-0.48528612,10.982426643371582,1.7353787422180176,-3.7368972301483154,-245.76548767089844,-68.02983856201172, -39.673561096191406
411,670163571,-0.0021914574,-0.8293722,-0.27338183,-0.48723647,8.982749938964844,-4.249731540679932,-1.5882525444030762,-209.17762756347656,-55.117679595947266, -42.679161071777344
412,670180238,-0.01978102,-0.82978815,-0.2698415,-0.48810467,6.7818474769592285,-3.050442695617676,0.5690677165985107,-113.68801879882812,-29.89209747314453, -37.52620315551758
413,670196905,-0.02874425,-0.8291664,-0.26818717,-0.48962486,6.162603855133057,-2.676880359649658,0.8728726506233215,-59.51845932006836,-6.469462871551514, -21.289899826049805
414,670213572,-0.030485258,-0.8281399,-0.26790887,-0.4914061,7.543604850769043,-3.190673351287842,0.5616469979286194,-14.301279067993164,9.920650482177734, -5.597137451171875
415,670230239,-0.024620168,-0.82624537,-0.26891014,-0.4943683,9.825544357299805,-5.009310245513916,1.795309066772461,30.944103240966797,33.78541946411133, 11.370572090148926
416,670246906,-0.013659477,-0.8226771,-0.27148488,-0.49931157,9.82716178894043,-3.877284526824951,0.5627928376197815,61.2527961730957,60.27352523803711, 16.857751846313477
417,670263573,0.0005177165,-0.8180227,-0.27403846,-0.505709,9.665682792663574,-3.801280975341797,-1.7617475986480713,76.52999877929688,78.11431121826172, 26.038806915283203
418,670280240,0.0212609,-0.8120434,-0.27933845,-0.5119607,10.268610000610352,-2.145955801010132,-2.8550894260406494,123.25596618652344,94.20064544677734, 30.862031936645508
419,670296907,0.044190273,-0.8044767,-0.28438088,-0.5196077,10.52762508392334,-1.124211072921753,-1.6900184154510498,132.10531616210938,111.76961517333984, 36.72622299194336
420,670313574,0.06592837,-0.7959129,-0.28584352,-0.5295938,10.556341171264648,-2.0796306133270264,-1.3028405904769897,108.46273803710938,126.96070861816406, 49.62445831298828
421,670330241,0.085642114,-0.78719544,-0.28262058,-0.54140073,10.331022262573242,-3.487032890319824,-2.3095755577087402,76.79939270019531,135.57449340820312, 66.75796508789062
422,670346908,0.10689084,-0.7783842,-0.27599093,-0.55364364,10.789846420288086,-4.695396423339844,-2.8197851181030273,71.61869049072266,143.2720184326172, 90.4254150390625
423,670363575,0.13099983,-0.7686417,-0.26756397,-0.56607276,11.715473175048828,-3.141176462173462,-2.1428444385528564,80.38093566894531,154.5836639404297, 108.96702575683594
424,670380242,0.15584649,-0.7580794,-0.25637284,-0.5790513,12.091044425964355,-2.307837963104248,-1.9134377241134644,73.23959350585938,164.53565979003906, 124.42400360107422
425,670396909,0.18176024,-0.7464401,-0.24297182,-0.5922459,12.529754638671875,-1.2628487348556519,-1.7168456315994263,70.77595520019531,174.2210693359375, 138.07220458984375
426,670413576,0.20831889,-0.7335325,-0.22763032,-0.60557234,12.979521751403809,-0.7123578190803528,-1.805424690246582,67.5542984008789,183.6006317138672, 148.42221069335938
427,670430243,0.2357321,-0.7188215,-0.21122502,-0.61895883,13.402396202087402,-0.4775601029396057,-1.084140658378601,69.9394760131836,194.3291778564453, 154.51011657714844
428,670446910,0.26324564,-0.70220035,-0.19383451,-0.6324909,14.358847618103027,-0.2273719608783722,-0.7418391704559326,69.14813995361328,204.9736328125, 156.88424682617188
429,670463577,0.28939795,-0.68386555,-0.17461213,-0.64659667,15.592111587524414,1.0455504655838013,-0.9636024236679077,56.95809555053711,216.76239013671875, 156.59104919433594
430,670480244,0.31362846,-0.66417897,-0.15405117,-0.6608872,15.943065643310547,1.3248908519744873,-1.5403101444244385,44.45632553100586,224.0913848876953, 152.49581909179688
431,670496911,0.3381549,-0.6427201,-0.13477764,-0.67408985,15.808860778808594,0.6853769421577454,-1.7842681407928467,56.65477752685547,224.8481903076172, 148.59283447265625
432,670513578,0.3627551,-0.6190579,-0.11927563,-0.6862576,15.808571815490723,2.8111181259155273,-1.8377506732940674,80.556884765625,221.9423828125, 132.7869873046875
433,670530245,0.38446116,-0.59487617,-0.10611055,-0.6978916,15.73004150390625,1.626304268836975,-2.7709391117095947,81.0017318725586,214.0950164794922, 110.29774475097656
434,670546912,0.40740445,-0.5693337,-0.09816504,-0.70727974,15.593899726867676,-0.22730232775211334,-4.258757591247559,116.3648681640625,198.76332092285156, 100.01497650146484
435,670563579,0.4281342,-0.5446244,-0.092024274,-0.7152743,14.760344505310059,2.1073074340820312,-4.806889533996582,115.1077880859375,182.97564697265625, 86.78369140625
436,670580246,0.44270325,-0.52572733,-0.08336962,-0.7215777,12.69253921508789,2.4526052474975586,-7.016549587249756,63.65313720703125,151.83279418945312, 74.72473907470703
437,670596913,0.45091203,-0.5139847,-0.07373056,-0.7259906,10.58604907989502,4.22081995010376,-8.167778968811035,15.119208335876465,109.16357421875, 56.736228942871094
438,670613580,0.45360225,-0.50941885,-0.06538474,-0.72832847,9.193826675415039,3.722356081008911,-8.990604400634766,-19.114097595214844,59.5113639831543, 34.85297393798828
439,670630247,0.4530726,-0.51041985,-0.06118867,-0.72832197,8.582928657531738,2.811709403991699,-9.59329605102539,-25.794452667236328,9.287949562072754, 14.207986831665039
440,670646914,0.4518933,-0.51435226,-0.06341173,-0.7260946,8.5758056640625,2.9041664600372314,-8.834271430969238,-4.0574517250061035,-33.17485046386719, -3.2954580783843994
441,670663581,0.45050624,-0.5200035,-0.071046166,-0.7222139,9.249218940734863,3.647728204727173,-7.518681049346924,17.66600799560547,-64.251708984375, -17.4703426361084
442,670680248,0.44839948,-0.52722275,-0.08209056,-0.7171021,9.952094078063965,3.3634815216064453,-6.856074333190918,27.806116104125977,-87.12213897705078, -28.541536331176758
443,670696915,0.44594422,-0.53569543,-0.09560649,-0.7106501,10.412004470825195,2.332049608230591,-6.414735317230225,35.66159439086914,-105.76199340820312, -34.27564239501953
444,670713582,0.4431573,-0.54506207,-0.11114759,-0.70296896,10.987554550170898,1.7731029987335205,-6.162471294403076,42.43235397338867,-120.8744888305664, -38.93597412109375
445,670730249,0.43967488,-0.5551177,-0.12803698,-0.6943606,11.161715507507324,2.3598101139068604,-5.9382171630859375,45.03057098388672,-132.13565063476562, -43.933467864990234
446,670746916,0.43467093,-0.5662295,-0.14477395,-0.68519044,11.117659568786621,3.0943751335144043,-6.214456558227539,35.82291793823242,-140.0149383544922, -47.9354133605957
447,670763583,0.42706215,-0.5780916,-0.15803847,-0.6770908,13.255091667175293,-0.638530969619751,1.288355827331543,6.054154872894287,-131.4276885986328, -49.05668640136719
448,670780250,0.4193235,-0.58914495,-0.1622813,-0.67137253,10.618008613586426,-10.837789535522461,13.194768905639648,-36.66728591918945,-91.87457275390625, -21.64188575744629
449,670796917,0.4107239,-0.59992105,-0.16589558,-0.6662428,14.411849975585938,-3.093689203262329,3.549464464187622,-42.968387603759766,-87.7265625, -25.308269500732422
450,670813584,0.40434203,-0.6101851,-0.17831187,-0.65756106,19.182546615600586,-1.6342437267303467,-3.8252930641174316,12.014730453491211,-122.4545669555664, -42.02547836303711
451,670830251,0.3987728,-0.6204687,-0.1955437,-0.6463448,13.899824142456055,-1.1834025382995605,1.374324083328247,40.28831481933594,-145.4341278076172, -51.46726608276367
452,670846918,0.39615735,-0.62827086,-0.21547046,-0.6339619,10.825284957885742,-1.0300339460372925,1.5596275329589844,73.24047088623047,-142.84393310546875, -50.01428985595703
453,670863585,0.39492542,-0.634082,-0.23608345,-0.62148094,9.922721862792969,-1.6496469974517822,-1.2235298156738281,87.77490234375,-134.47727966308594, -49.7003173828125
454,670880252,0.39582047,-0.63748735,-0.25630915,-0.60929626,8.701236724853516,-2.648550271987915,-2.7611777782440186,101.44413757324219,-118.4013442993164, -43.731143951416016
455,670896919,0.39670852,-0.64031243,-0.2731877,-0.59832346,9.356549263000488,-2.364927291870117,-4.316678524017334,86.83722686767578,-101.53614807128906, -33.536399841308594
456,670913586,0.3942127,-0.6444806,-0.28595713,-0.58946574,10.278875350952148,-0.4128406047821045,-2.694267511367798,47.40087890625,-92.84624481201172, -32.71009063720703
457,670930253,0.38872766,-0.65050817,-0.29489762,-0.58203566,10.449575424194336,-0.47784334421157837,-1.4445370435714722,10.781140327453613,-89.5667495727539, -28.092111587524414
458,670946920,0.3835385,-0.65669054,-0.30338937,-0.57411736,11.617990493774414,0.5325965285301208,-1.5479358434677124,10.8728666305542,-90.62776947021484, -23.295339584350586
459,670963587,0.37958658,-0.6624739,-0.31244457,-0.5651732,12.12222957611084,-1.16709303855896,-0.1269410252571106,21.873260498046875,-92.65095520019531, -19.069826126098633
460,670980254,0.37644324,-0.6672588,-0.3222709,-0.55605567,13.210979461669922,1.4053616523742676,-0.9340390563011169,31.517990112304688,-89.94058227539062, -21.168121337890625
461,670996921,0.3701163,-0.67331064,-0.32932174,-0.54882973,13.896744728088379,0.5091209411621094,0.20270252227783203,-1.1752713918685913,-86.06534576416016, -22.655590057373047
462,671013588,0.36088914,-0.6805286,-0.33346438,-0.54354537,13.273702621459961,-0.8555126190185547,0.33539730310440063,-32.94776153564453,-80.77619171142578, -22.406206130981445
463,671030255,0.3498173,-0.6883168,-0.33641466,-0.53914106,13.000246047973633,-1.7128195762634277,0.7081866264343262,-49.48515701293945,-80.20185089111328, -24.595338821411133
464,671046922,0.33802992,-0.69605625,-0.33914995,-0.53499436,12.368915557861328,-1.6801108121871948,0.7823684811592102,-54.17060470581055,-80.09391021728516, -26.98228645324707
465,671063589,0.32563177,-0.703926,-0.34136257,-0.5309651,11.951703071594238,-1.5552542209625244,1.153867244720459,-59.61208724975586,-80.37442779541016, -26.72003936767578
466,671080256,0.31297716,-0.7119733,-0.34293383,-0.5268168,11.795247077941895,-1.3708549737930298,0.40231847763061523,-63.33930206298828,-80.92613220214844, -23.893924713134766
467,671096923,0.2996022,-0.7201735,-0.34406024,-0.5226963,12.001181602478027,-1.4643522500991821,0.21645358204841614,-68.88284301757812,-82.22669982910156, -24.04935073852539
468,671113590,0.28501013,-0.7286375,-0.34491757,-0.51854455,11.309687614440918,-1.7050074338912964,0.301059752702713,-76.3619384765625,-85.79546356201172, -26.431804656982422
469,671130257,0.26921374,-0.73757803,-0.34547332,-0.5139562,11.196085929870605,-2.325531244277954,0.31815505027770996,-83.39188385009766,-92.08540344238281, -27.26835060119629
470,671146924,0.2520385,-0.74704546,-0.34528932,-0.5090924,11.10440731048584,-2.2034835815429688,0.7357333898544312,-93.34232330322266,-97.38986206054688, -26.687685012817383
471,671163591,0.23331054,-0.7570996,-0.3437789,-0.5041651,10.977372169494629,-1.5997627973556519,0.9024738073348999,-106.85160827636719,-101.3102035522461, -23.867219924926758
472,671180258,0.21224466,-0.76777166,-0.3404538,-0.49956998,11.100910186767578,-1.0568039417266846,0.6588295102119446,-127.10652923583984,-104.49466705322266, -21.650787353515625
473,671196925,0.18898587,-0.7785245,-0.33556184,-0.49556246,10.819186210632324,-0.9222845435142517,1.1449834108352661,-145.57525634765625,-104.6722412109375, -21.62858009338379
474,671213592,0.16523002,-0.7885556,-0.32980296,-0.4920459,10.091403007507324,-1.554526925086975,2.116227388381958,-151.39854431152344,-99.7662353515625, -21.04007911682129
475,671230259,0.14206435,-0.7971213,-0.32387388,-0.48940906,8.953581809997559,-1.2123470306396484,2.5296661853790283,-149.12307739257812,-88.68016052246094, -22.5234432220459
476,671246926,0.12015853,-0.8041728,-0.3179095,-0.4876493,8.228971481323242,-1.3589693307876587,1.5775328874588013,-142.81719970703125,-76.09898376464844, -22.40375328063965
477,671263593,0.098843455,-0.8098825,-0.31269023,-0.486359,8.416460037231445,-0.7841803431510925,0.12278389930725098,-136.9879150390625,-68.45452880859375, -27.94993019104004
478,671280260,0.07501414,-0.8150694,-0.30744034,-0.4852992,8.724472999572754,-0.22011402249336243,-3.510227918624878,-151.24130249023438,-70.89665985107422, -37.552005767822266
479,671296927,0.05031783,-0.8197065,-0.3031907,-0.48334765,9.283557891845703,0.11773209273815155,-5.765862464904785,-150.6134796142578,-76.41527557373047, -46.82351303100586
480,671313594,0.018754555,-0.8232697,-0.2974732,-0.4830993,12.370922088623047,1.242080569267273,-4.009349346160889,-197.4125518798828,-77.02165985107422, -64.27796173095703
481,671330261,-0.0021644973,-0.8246599,-0.29442644,-0.48295382,7.18182373046875,-9.284993171691895,2.21032977104187,-128.19992065429688,-47.835655212402344, -48.571693420410156
482,671346928,-0.005120975,-0.824882,-0.29634768,-0.4813747,7.831745624542236,-7.993555068969727,3.0138587951660156,-7.082824230194092,-15.773232460021973, -19.733631134033203
483,671363595,0.0014310435,-0.823096,-0.3020109,-0.48093715,9.432394027709961,-3.0013813972473145,3.3335020542144775,56.749549865722656,16.687782287597656, -13.745593070983887
484,671380262,0.0037256624,-0.8191012,-0.304924,-0.48588163,12.5267915725708,-3.218960762023926,3.6677284240722656,12.404577255249023,45.444610595703125, -17.003589630126953
485,671396929,0.0051152627,-0.8139424,-0.30468956,-0.49460688,11.346250534057617,-5.832846641540527,0.6621822714805603,-11.099479675292969,68.57927703857422, -4.983944892883301
486,671413596,0.017150631,-0.80803573,-0.30803207,-0.50189704,10.654106140136719,-5.0328688621521,-1.1889657974243164,63.625213623046875,85.1205825805664, 9.509588241577148
487,671430263,0.034568578,-0.8010859,-0.31182206,-0.5097388,10.29466438293457,-2.565462589263916,-0.6273479461669922,93.99713897705078,103.03121185302734, 23.196104049682617
488,671446930,0.053825196,-0.79345304,-0.31275296,-0.51934636,9.975341796875,-3.4337563514709473,-0.6190280318260193,90.4781494140625,119.66502380371094, 43.453041076660156
489,671463597,0.07548087,-0.78523123,-0.31108046,-0.53004104,9.771708488464355,-3.725085496902466,-1.6062132120132446,92.11833953857422,133.7228546142578, 64.5007095336914
490,671480264,0.098760255,-0.77674145,-0.3054775,-0.54185116,10.224203109741211,-3.9669175148010254,-2.288123846054077,84.29851531982422,146.18069458007812, 90.41992950439453
491,671496931,0.12430034,-0.7675654,-0.296975,-0.55425507,11.185752868652344,-3.137259006500244,-2.0005006790161133,84.75503540039062,158.59786987304688, 112.41923522949219
492,671513598,0.15075333,-0.75763863,-0.28548935,-0.5672329,12.256426811218262,-2.4375669956207275,-1.928532600402832,77.64445495605469,168.8689422607422, 129.57754516601562
493,671530265,0.17842805,-0.74662536,-0.2721415,-0.58021826,13.156725883483887,-1.2920126914978027,-2.044588088989258,77.83922576904297,177.4508056640625, 141.88157653808594
494,671546932,0.20615327,-0.73437816,-0.2568536,-0.5934778,13.504056930541992,-0.303659588098526,-1.596776008605957,71.35668182373047,186.24862670898438, 149.41262817382812
495,671563599,0.23381901,-0.7205453,-0.23994295,-0.6071002,13.863381385803223,-0.08680487424135208,-1.2451648712158203,66.05300903320312,196.75003051757812, 154.10118103027344
496,671580266,0.26087502,-0.7048629,-0.22160885,-0.6212908,14.71786117553711,0.35364651679992676,-0.7638654708862305,59.132022857666016,208.58615112304688, 154.7120819091797
497,671596933,0.2863498,-0.68784416,-0.20109546,-0.63595206,15.409405708312988,0.7972856760025024,-1.3617863655090332,43.844329833984375,218.10455322265625, 155.72869873046875
498,671613600,0.31183982,-0.6688751,-0.18088064,-0.6501112,15.680049896240234,1.294458270072937,-1.7340391874313354,49.77427673339844,223.7665557861328, 152.79258728027344
499,671630267,0.33909282,-0.6470931,-0.16385293,-0.6629018,16.190942764282227,0.7883046865463257,-1.9065132141113281,79.87480163574219,225.5154571533203, 145.60836791992188
500,671646934,0.36813116,-0.62212235,-0.15111743,-0.67424536,16.64605140686035,1.3073240518569946,-1.8258931636810303,116.47589874267578,225.75022888183594, 134.60617065429688
501,671663601,0.3961576,-0.595282,-0.14176323,-0.68454486,16.566896438598633,2.3332364559173584,-2.037282705307007,133.63385009765625,220.50486755371094, 116.35517120361328
502,671680268,0.4222389,-0.5679306,-0.13497183,-0.6935069,16.436086654663086,0.3608279824256897,-3.469416618347168,140.45651245117188,208.74819946289062, 100.10302734375
503,671696935,0.4471157,-0.5402717,-0.13083236,-0.70076895,15.4090576171875,2.4737260341644287,-4.575562477111816,150.86192321777344,195.04066467285156, 88.82906341552734
504,671713602,0.46437255,-0.51864666,-0.12327901,-0.70722437,13.295096397399902,3.07915997505188,-6.406472206115723,88.22947692871094,166.93663024902344, 72.89128875732422
505,671730269,0.4740849,-0.504919,-0.113594666,-0.71231776,10.48862075805664,3.8459975719451904,-8.778398513793945,26.958965301513672,124.42704772949219, 55.06156921386719
506,671746936,0.4775615,-0.49850512,-0.10468509,-0.7158693,9.050674438476562,3.367379665374756,-9.643083572387695,-13.422669410705566,76.22077941894531, 32.79996109008789
507,671763603,0.4769069,-0.49820048,-0.099190585,-0.71729887,8.482651710510254,2.620056390762329,-9.975101470947266,-29.2872257232666,25.08978843688965, 12.276166915893555
508,671780270,0.4740618,-0.50181305,-0.098733254,-0.71672934,8.334318161010742,3.004818916320801,-9.179192543029785,-23.31635284423828,-18.72893714904785, -6.377390384674072
509,671796937,0.47044486,-0.50746524,-0.103653304,-0.7144347,8.851679801940918,3.269911766052246,-7.982119083404541,-4.893425941467285,-52.43837356567383, -21.568700790405273
510,671813604,0.46633732,-0.51477987,-0.112716034,-0.7105113,9.551530838012695,2.70725154876709,-7.158902645111084,9.58401107788086,-79.7202377319336, -31.81711196899414
511,671830271,0.46173283,-0.5235403,-0.12481185,-0.7050747,10.260900497436523,1.5285576581954956,-6.667562961578369,19.199447631835938,-101.9329605102539, -38.884883880615234
512,671846938,0.45739645,-0.5330158,-0.13979432,-0.69795436,10.880544662475586,0.8612637519836426,-6.259393692016602,33.42512130737305,-120.10602569580078, -41.90235900878906
513,671863605,0.4528047,-0.54326594,-0.1570154,-0.68933034,11.0562105178833,1.0610212087631226,-6.448693752288818,42.30431365966797,-136.32635498046875, -45.79098892211914
514,671880272,0.44747913,-0.5543232,-0.17525388,-0.67954,11.027997970581055,1.4959577322006226,-6.303855895996094,43.184810638427734,-148.17152404785156, -48.509918212890625
515,671896939,0.44058603,-0.5661939,-0.19280705,-0.6694281,10.966510772705078,1.9122897386550903,-5.723981857299805,31.963481903076172,-152.7054443359375, -51.180973052978516
516,671913606,0.43248367,-0.57757986,-0.20655182,-0.66082966,12.783181190490723,-3.07277512550354,4.6318840980529785,9.2205228805542,-134.40257263183594, -47.0663948059082
517,671930273,0.42619175,-0.5870556,-0.21308266,-0.65446335,10.30196762084961,-8.677630424499512,14.673466682434082,-13.844382286071777,-92.93148803710938, -19.574359893798828
518,671946940,0.41774848,-0.5982933,-0.22027138,-0.6473113,17.431297302246094,0.11866437643766403,-0.590378999710083,-23.62118911743164,-109.57257843017578, -27.24573516845703
519,671963607,0.4093523,-0.6095359,-0.23520894,-0.63684666,18.99256134033203,1.8658356666564941,-3.289267063140869,16.08076286315918,-145.32315063476562, -49.29994201660156
520,671980274,0.39986634,-0.6208754,-0.2512429,-0.62569785,11.377950668334961,-0.8979950547218323,2.2079427242279053,17.188711166381836,-153.2921142578125, -56.45181655883789
521,671996941,0.39331824,-0.63007367,-0.266852,-0.61408323,9.470222473144531,-2.578643798828125,-0.9399591684341431,34.59619903564453,-139.8879852294922, -44.44040298461914
522,672013608,0.3897332,-0.63702875,-0.28342852,-0.60164005,9.898537635803223,-2.0594615936279297,-4.765694618225098,59.132102966308594,-131.159912109375, -38.1014289855957
523,672030275,0.38739583,-0.6419856,-0.29923937,-0.59011436,8.89659309387207,-0.7530900835990906,-5.249621391296387,65.0272216796875,-114.23712921142578, -36.04084014892578
524,672046942,0.38415384,-0.64690304,-0.31152296,-0.5804274,9.246991157531738,-0.4861544966697693,-4.296821594238281,43.07147216796875,-98.2718734741211, -29.179773330688477
525,672063609,0.37752402,-0.653536,-0.3196925,-0.57285523,10.297931671142578,0.18607303500175476,-1.4809178113937378,2.5355913639068604,-92.0029296875, -26.33553123474121
526,672080276,0.36957,-0.6610601,-0.3244593,-0.56669563,10.562005043029785,-2.157457113265991,-0.9423962831497192,-22.227575302124023,-83.26721954345703, -17.939111709594727
527,672096943,0.36396185,-0.66720283,-0.33010903,-0.55982167,12.030426025390625,-1.8325361013412476,-1.6001131534576416,-3.0277321338653564,-78.19510650634766, -14.122185707092285
528,672113610,0.3602908,-0.6709949,-0.33838037,-0.55268013,13.355545997619629,0.9373802542686462,-1.123721718788147,22.441810607910156,-72.5763168334961, -23.406723022460938
529,672130277,0.35573328,-0.6748391,-0.34643385,-0.54592097,14.13216495513916,0.8564183712005615,-0.446787565946579,16.50685691833496,-72.59717559814453, -26.558263778686523
530,672146944,0.34866714,-0.6796151,-0.35261402,-0.5405721,14.012816429138184,0.7866348624229431,0.7188640236854553,-7.805224418640137,-71.04993438720703, -28.46378517150879
531,672163611,0.33929825,-0.6856121,-0.35675254,-0.53622794,13.765939712524414,-0.8272593021392822,0.2506171762943268,-31.524452209472656,-71.7451171875, -26.871917724609375
532,672180278,0.32677576,-0.69334126,-0.3598051,-0.53201133,13.275714874267578,-1.5536572933197021,0.455097496509552,-54.75859069824219,-82.8945541381836, -29.413007736206055
533,672196945,0.31199926,-0.70230836,-0.36200082,-0.5276125,12.64798355102539,-1.724974274635315,1.2689439058303833,-70.98826599121094,-92.12321472167969, -30.105195999145508
534,672213612,0.2961151,-0.7118565,-0.36292407,-0.52331877,12.378678321838379,-1.5522164106369019,1.6048012971878052,-82.4784927368164,-93.97124481201172, -26.77203941345215
535,672230279,0.28021234,-0.72136885,-0.3635141,-0.51861876,12.231663703918457,-1.4873708486557007,1.1684794425964355,-82.69617462158203,-95.43875122070312, -24.487205505371094
536,672246946,0.26408347,-0.7305263,-0.36399075,-0.51390857,11.691869735717773,-1.4900472164154053,0.8358674049377441,-83.52454376220703,-94.80188751220703, -25.624839782714844
537,672263613,0.24732228,-0.7395306,-0.3643551,-0.5090891,10.865021705627441,-1.7351222038269043,0.23408277332782745,-86.55860137939453,-96.4110107421875, -27.516448974609375
538,672280280,0.23004623,-0.74841475,-0.364582,-0.50401783,10.519165992736816,-1.3836253881454468,-0.147664874792099,-88.83740234375,-98.52449798583984, -28.546987533569336
539,672296947,0.21204735,-0.7571426,-0.36418134,-0.49914235,9.932811737060547,-0.856011152267456,-0.375021755695343,-94.98313903808594,-97.98281860351562, -28.57718849182129
540,672313614,0.1935595,-0.76561445,-0.3633585,-0.49430776,9.77122974395752,-0.36266428232192993,-0.44989287853240967,-98.71400451660156,-97.67924499511719, -28.800668716430664
541,672330281,0.1750303,-0.7734064,-0.36201155,-0.49005574,9.922351837158203,-0.056207843124866486,-0.31138524413108826,-101.26287078857422,-91.88737487792969, -28.693330764770508
542,672346948,0.15686566,-0.7803668,-0.36065266,-0.48615894,9.958313941955566,-0.11113916337490082,-0.0887044221162796,-99.24750518798828,-86.46893310546875, -29.936676025390625
543,672363615,0.14046226,-0.7859448,-0.35991937,-0.4827206,9.645413398742676,-0.4827372133731842,0.9539191722869873,-87.34233093261719,-75.89947509765625, -31.387575149536133
544,672380282,0.12449543,-0.7905045,-0.35863435,-0.48060888,9.117695808410645,-0.7174559831619263,1.5656801462173462,-89.1139907836914,-63.97334289550781, -30.840599060058594
545,672396949,0.10690263,-0.79469794,-0.3541162,-0.48127827,8.99224853515625,-1.3433629274368286,0.6772872805595398,-115.18596649169922,-49.139122009277344, -22.0246524810791
546,672413616,0.08698275,-0.7988957,-0.35062617,-0.48089623,8.638603210449219,-1.1689692735671997,-5.849284648895264,-121.9695053100586,-61.53905487060547, -34.6882438659668
547,672430283,0.06508445,-0.8031989,-0.34924063,-0.47819117,10.62170124053955,-0.9795545339584351,-8.071043968200684,-120.39645385742188,-80.66436767578125, -51.27196502685547
548,672446950,0.04181755,-0.80709237,-0.34851027,-0.47475678,12.58249568939209,2.1639466285705566,-6.335974216461182,-123.95193481445312,-86.88658142089844, -60.18212890625
549,672463617,0.014783844,-0.80996746,-0.34335884,-0.47522536,9.357453346252441,-9.145282745361328,1.5140436887741089,-168.36549377441406,-69.72602844238281, -51.5875129699707
550,672480284,0.0078057414,-0.8109095,-0.3458815,-0.47194397,8.011114120483398,-7.328375339508057,4.493865966796875,-22.71927261352539,-37.9724006652832, -33.379661560058594
551,672496951,0.0053772256,-0.8097014,-0.34963498,-0.47128588,9.961297988891602,-2.3980681896209717,4.536558151245117,0.4126797020435333,-5.9347004890441895, -31.064254760742188
552,672513618,0.0021177235,-0.8061914,-0.35147685,-0.47593597,10.937663078308105,-3.052786350250244,2.5599124431610107,-23.071151733398438,28.787752151489258, -29.049625396728516
553,672530285,0.0026530256,-0.8020592,-0.35218084,-0.4823512,10.438309669494629,-6.725943088531494,0.5327370762825012,-10.036699295043945,49.481361389160156, -12.097311019897461
554,672546952,0.014376174,-0.7975787,-0.3550248,-0.48746213,9.659482955932617,-5.374509334564209,1.1864933967590332,61.81526184082031,70.24880981445312, 12.051851272583008
555,672563619,0.029427981,-0.79216945,-0.35684273,-0.49423188,9.029450416564941,-2.3984107971191406,1.4699175357818604,72.5889663696289,90.4148941040039, 26.163249969482422
556,672580286,0.046377905,-0.78605694,-0.35604277,-0.5031872,9.14670467376709,-3.63991379737854,0.16778066754341125,68.8112564086914,109.64202880859375, 44.567928314208984
557,672596953,0.067738585,-0.7793422,-0.35317087,-0.51313525,9.71434211730957,-3.942936658859253,-0.2238364815711975,83.20664978027344,128.34405517578125, 69.06939697265625
558,672613620,0.09129522,-0.77200687,-0.34737828,-0.52440363,10.582215309143066,-3.1942601203918457,-0.41775667667388916,81.68073272705078,144.0959930419922, 90.18949127197266
559,672630287,0.115962215,-0.7641841,-0.338174,-0.53685564,11.520541191101074,-3.101137399673462,-0.8629980683326721,72.7132339477539,156.74053955078125, 110.25041961669922
560,672646954,0.14162722,-0.7553875,-0.32652104,-0.550196,12.70333194732666,-1.465532660484314,-1.4567291736602783,67.5700912475586,169.10572814941406, 123.69159698486328
561,672663621,0.16664113,-0.7461403,-0.31147438,-0.5643485,13.144540786743164,-1.5177545547485352,-1.2900177240371704,49.94135665893555,176.7401123046875, 136.9691925048828
562,672680288,0.19175766,-0.7363109,-0.29408818,-0.5784354,13.59675121307373,-1.0594902038574219,-1.735056757926941,42.15855407714844,181.4557647705078, 148.12274169921875
563,672696955,0.21740629,-0.7253802,-0.27507368,-0.592362,14.08966064453125,-0.8979622721672058,-1.802276611328125,40.12749099731445,188.19017028808594, 156.42308044433594
564,672713622,0.2441703,-0.7126765,-0.2552138,-0.6060851,14.384831428527832,-0.39482906460762024,-1.2719138860702515,45.256195068359375,197.74575805664062, 162.12155151367188
565,672730289,0.2712226,-0.6982915,-0.23420647,-0.619657,15.05858325958252,-0.22852350771427155,-1.3040556907653809,44.96940231323242,206.42935180664062, 166.28550720214844
566,672746956,0.29901376,-0.68189263,-0.21272214,-0.63274217,15.79019546508789,0.45862048864364624,-1.5197118520736694,51.01824188232422,214.77633666992188, 169.4655303955078
567,672763623,0.3270308,-0.6632438,-0.19118516,-0.645451,16.5816707611084,1.6761046648025513,-1.3842344284057617,57.02274703979492,223.3099822998047, 168.3202667236328
568,672780290,0.35479882,-0.642018,-0.17072798,-0.6578624,17.11893653869629,2.486684799194336,-1.7096965312957764,66.87129211425781,230.74195861816406, 159.80540466308594
569,672796957,0.38228875,-0.6181829,-0.15361993,-0.6694073,16.474836349487305,2.479229211807251,-2.0711565017700195,88.17013549804688,230.39102172851562, 143.12222290039062
570,672813624,0.40780178,-0.592888,-0.14021312,-0.6800898,16.063032150268555,1.8539594411849976,-2.883554458618164,101.54072570800781,221.854736328125, 119.35054779052734
571,672830291,0.43315354,-0.56663567,-0.13130076,-0.68852186,15.451546669006348,-1.0006704330444336,-4.426467418670654,126.7856216430664,204.70643615722656, 106.0072250366211
572,672846958,0.45755586,-0.54021394,-0.12626791,-0.69488716,14.57326602935791,2.0948784351348877,-5.515438556671143,143.86016845703125,185.46778869628906, 92.63035583496094
573,672863625,0.47485235,-0.52000207,-0.11886754,-0.6999885,12.709940910339355,3.2441837787628174,-7.2913641929626465,87.77236938476562,152.84593200683594, 77.180908203125
574,672880292,0.48524052,-0.5070495,-0.11091272,-0.7036623,10.581720352172852,5.34188175201416,-8.718411445617676,37.84115219116211,109.5436019897461, 56.78386306762695
575,672896959,0.4891152,-0.50160027,-0.10396925,-0.705942,9.228487014770508,4.518370628356934,-9.653914451599121,-3.8220672607421875,60.567161560058594, 32.51206588745117
576,672913626,0.48857287,-0.50244266,-0.0999216,-0.7063028,8.720414161682129,2.864069938659668,-10.062814712524414,-24.713773727416992,11.067334175109863, 12.330608367919922
577,672930293,0.48644158,-0.50660837,-0.10126142,-0.7046054,8.717435836791992,2.3487298488616943,-9.361145973205566,-13.654825210571289,-30.850236892700195, -4.559770107269287
578,672946960,0.48349646,-0.51252836,-0.10802992,-0.70133847,9.341285705566406,2.9623048305511475,-8.319554328918457,5.140606880187988,-63.05153274536133, -20.748123168945312
579,672963627,0.47961652,-0.5204404,-0.118263364,-0.6965082,9.905645370483398,2.2836568355560303,-8.025314331054688,13.193028450012207,-89.94487762451172, -30.576162338256836
580,672980294,0.47496253,-0.5301969,-0.13085753,-0.6900566,10.507769584655762,1.6575376987457275,-7.682839870452881,17.040884017944336,-112.5691909790039, -35.72288513183594
581,672996961,0.47004256,-0.54085183,-0.14586844,-0.682101,11.108244895935059,1.57004976272583,-7.476782321929932,26.048343658447266,-130.05191040039062, -39.94487380981445
582,673013628,0.46481445,-0.55188936,-0.16270103,-0.6729741,11.393749237060547,2.329036235809326,-7.113879203796387,33.49113464355469,-142.03256225585938, -43.877655029296875
583,673030295,0.45923406,-0.56286335,-0.18083768,-0.6630136,11.351960182189941,2.5719847679138184,-6.898199558258057,39.38816833496094,-149.12478637695312, -47.751285552978516
584,673046962,0.4534949,-0.57257575,-0.19684811,-0.6540263,13.244383811950684,-2.2501299381256104,3.83309268951416,31.945898056030273,-132.7990264892578, -44.7722053527832
585,673063629,0.45074695,-0.5797673,-0.20593344,-0.64675236,9.650653839111328,-11.329272270202637,15.08910083770752,18.103511810302734,-89.18370819091797, -12.8663969039917
586,673080296,0.44524112,-0.5879619,-0.21364649,-0.64063764,15.83539867401123,-0.6346530914306641,2.435835599899292,-3.788769483566284,-89.266357421875, -22.22663688659668
587,673096963,0.43870857,-0.59659,-0.227969,-0.632175,20.40604591369629,1.4254177808761597,-4.005296230316162,23.27548599243164,-122.46366882324219, -45.5927734375
588,673113630,0.43028593,-0.60689807,-0.24370892,-0.6222017,13.641500473022461,-1.1414963006973267,1.0829136371612549,19.031551361083984,-142.9993438720703, -52.28376388549805
589,673130297,0.42423522,-0.6151796,-0.26084006,-0.61118,10.675113677978516,-1.212656021118164,1.4464837312698364,42.64120101928711,-138.90199279785156, -48.26504898071289
590,673146964,0.41889644,-0.62188643,-0.27805397,-0.600391,9.705562591552734,-2.021702289581299,-0.8841913342475891,50.165184020996094,-130.35888671875, -49.20062255859375
591,673163631,0.41689885,-0.6256795,-0.29544422,-0.5894347,8.297544479370117,-3.476500988006592,-3.056642532348633,73.90306854248047,-113.18639373779297, -41.368412017822266
592,673180298,0.4171607,-0.6276976,-0.31105158,-0.5789817,9.712349891662598,-2.147956371307373,-4.766477108001709,80.474365234375,-94.08082580566406, -29.773624420166016
593,673196965,0.4147846,-0.63042116,-0.32303616,-0.5711134,10.735832214355469,1.063107967376709,-2.6780641078948975,47.12736892700195,-80.89250946044922, -30.660572052001953
594,673213632,0.40983948,-0.6343483,-0.33171928,-0.5653285,10.099014282226562,-0.06079612299799919,-2.105299472808838,14.959466934204102,-72.885498046875, -29.683530807495117
595,673230299,0.4056544,-0.63785565,-0.33911186,-0.5599892,10.736724853515625,-0.33641934394836426,-1.3871244192123413,13.417842864990234,-63.981266021728516, -23.32207489013672
596,673246966,0.40363222,-0.63957757,-0.3475895,-0.5542591,12.152034759521484,-0.09399475902318954,-0.2800484597682953,32.957603454589844,-56.873321533203125, -22.848352432250977
597,673263633,0.40234682,-0.640845,-0.356001,-0.5483596,12.470444679260254,-0.8114079833030701,0.985136091709137,37.59561538696289,-54.053916931152344, -20.383350372314453
598,673280300,0.40032673,-0.64251524,-0.36374128,-0.54277533,13.225289344787598,-0.8134928941726685,1.105231523513794,29.91718864440918,-54.28066635131836, -20.12053680419922
599,673296967,0.39499682,-0.64651036,-0.3698687,-0.5377722,13.024492263793945,-1.6406787633895874,0.9435503482818604,1.4019914865493774,-64.39342498779297, -21.156679153442383
600,673313634,0.38640836,-0.6532226,-0.37419054,-0.5328886,12.285236358642578,-2.6843111515045166,1.3558498620986938,-27.462722778320312,-77.4581298828125, -18.631282806396484
601,673330301,0.3758254,-0.6615746,-0.37756187,-0.5277513,12.242324829101562,-2.0625345706939697,0.9105820059776306,-43.63542175292969,-87.39399719238281, -16.839574813842773
602,673346968,0.36325312,-0.670661,-0.38031885,-0.52308583,12.420985221862793,-0.5634631514549255,1.037232518196106,-58.05834197998047,-91.66419219970703, -20.616392135620117
603,673363635,0.3493202,-0.68011624,-0.38238227,-0.51884604,11.62412166595459,-1.280322790145874,1.5594497919082642,-68.87635040283203,-93.03913879394531, -22.40387535095215
604,673380302,0.33454978,-0.690155,-0.38442317,-0.5137913,11.380672454833984,-2.455277681350708,1.208491325378418,-72.1453628540039,-101.27938842773438, -21.818981170654297
605,673396969,0.3195456,-0.7003329,-0.38748464,-0.5072279,11.536030769348145,-2.568554639816284,1.2828503847122192,-66.00279235839844,-112.08063507080078, -23.716184616088867
606,673413636,0.30358818,-0.7106653,-0.3907498,-0.50010365,11.915833473205566,-1.863204836845398,0.7868759632110596,-68.75569915771484,-118.49602508544922, -26.44966697692871
607,673430303,0.28586426,-0.721572,-0.3929383,-0.49316835,11.947994232177734,-1.7320703268051147,0.5713731050491333,-82.82512664794922,-122.22738647460938, -26.166738510131836
608,673446970,0.26575974,-0.73317534,-0.39281186,-0.487365,12.04642391204834,-0.7608215808868408,0.8840251564979553,-106.92266845703125,-121.03409576416016, -23.15498924255371
609,673463637,0.24189149,-0.745552,-0.38973242,-0.48347643,12.418319702148438,0.22640475630760193,1.4367434978485107,-142.40184020996094,-118.93805694580078, -22.320375442504883
610,673480304,0.21472415,-0.7583388,-0.3834864,-0.48140866,12.425187110900879,-1.115478277206421,2.3562533855438232,-175.3997039794922,-114.76067352294922, -19.010780334472656
611,673496971,0.18681009,-0.77042454,-0.37570798,-0.47999159,11.578256607055664,-2.084789991378784,2.7882211208343506,-185.06671142578125,-108.99359893798828, -16.375314712524414
612,673513638,0.15944318,-0.7809257,-0.36779624,-0.4790187,11.136509895324707,-2.853529453277588,3.2888269424438477,-181.740966796875,-100.05287170410156, -18.6478214263916
613,673530305,0.13330162,-0.7893627,-0.35853097,-0.48020083,10.063626289367676,-2.7020092010498047,4.2369537353515625,-182.8388671875,-77.31863403320312, -15.077406883239746
614,673546972,0.10582104,-0.7968712,-0.34934366,-0.4814119,8.397692680358887,-1.3530985116958618,-3.0322911739349365,-189.10267639160156,-77.68402099609375, -22.39337921142578
615,673563639,0.07595373,-0.8039859,-0.34239358,-0.4802128,10.300248146057129,-1.6683177947998047,-7.3977580070495605,-188.7394561767578,-96.94681549072266, -41.855072021484375
616,673580306,0.045494262,-0.80947125,-0.33671463,-0.47886315,11.040799140930176,1.8468544483184814,-4.3894572257995605,-186.6708984375,-94.37476348876953, -54.7187385559082
617,673596973,0.0143984305,-0.8130856,-0.32787699,-0.48081306,7.729089260101318,-7.839883327484131,2.922703981399536,-207.66839599609375,-70.33967590332031, -44.655860900878906
618,673613640,0.0010395641,-0.8140806,-0.32619122,-0.4804904,6.768558979034424,-5.426229000091553,5.263411521911621,-79.55052185058594,-35.22148513793945, -31.927993774414062
619,673630307,-0.0067870663,-0.81289774,-0.32630077,-0.48236838,7.192322731018066,-1.4124634265899658,3.5579464435577393,-47.601444244384766,-3.478908061981201, -28.770414352416992
620,673646974,-0.013385866,-0.81024885,-0.32523283,-0.48738223,8.717687606811523,-2.7758355140686035,1.4975266456604004,-51.72264099121094,21.4824161529541, -21.3388729095459
621,673663641,-0.012343916,-0.80647796,-0.32551587,-0.49343738,9.499024391174316,-5.88279390335083,0.5791808366775513,-7.071021556854248,48.14946746826172, -5.7874436378479
622,673680308,0.0012788833,-0.80173874,-0.33047697,-0.49799442,9.833319664001465,-5.208897590637207,-0.5395202040672302,81.7854995727539,71.57569122314453, 8.498400688171387
623,673696975,0.022650223,-0.79573435,-0.33705893,-0.50267816,9.554443359375,-3.61287260055542,-0.14039453864097595,129.7344512939453,94.09104919433594, 23.111045837402344
624,673713642,0.047519404,-0.7885943,-0.34231353,-0.5086086,9.448980331420898,-3.6480774879455566,-0.6395353078842163,141.559326171875,113.0325927734375, 39.59177017211914
625,673730309,0.075694054,-0.7800296,-0.34610412,-0.51578724,9.875216484069824,-2.963970899581909,-1.6762663125991821,151.87828063964844,132.94203186035156, 55.295989990234375
626,673746976,0.10403479,-0.770753,-0.3458882,-0.52485996,10.05768871307373,-3.3021914958953857,-2.032057523727417,134.4043426513672,148.0304718017578, 74.68438720703125
627,673763643,0.133528,-0.7607634,-0.3423736,-0.5349669,10.192109107971191,-3.718391180038452,-2.191831111907959,126.63999938964844,161.1383819580078, 93.86984252929688
628,673780310,0.16337383,-0.7499803,-0.33501315,-0.5464476,11.326581001281738,-2.3364667892456055,-1.5400030612945557,111.80498504638672,175.5760498046875, 112.12956237792969
629,673796977,0.19080243,-0.73853165,-0.3229349,-0.56024873,12.582587242126465,-1.1310104131698608,-1.7589786052703857,77.00696563720703,189.7434844970703, 123.23026275634766
630,673813644,0.21690005,-0.726714,-0.30699998,-0.5749716,13.290653228759766,-1.2344051599502563,-1.8623833656311035,53.835758209228516,197.94625854492188, 135.6744842529297
631,673830311,0.24283111,-0.7138432,-0.289219,-0.589757,13.731502532958984,-0.7231792211532593,-1.8302198648452759,47.150272369384766,204.84523010253906, 141.9410400390625
632,673846978,0.26809248,-0.69986105,-0.26995096,-0.60452265,14.219873428344727,-0.9249494671821594,-1.4970287084579468,39.7369499206543,210.44805908203125, 144.3863983154297
633,673863645,0.29233342,-0.685286,-0.24875028,-0.61890864,14.810310363769531,-0.7248656153678894,-2.079960823059082,28.602737426757812,212.81011962890625, 149.08773803710938
634,673880312,0.31639355,-0.669532,-0.2269832,-0.63253516,15.071266174316406,0.19188062846660614,-2.428712844848633,29.029680252075195,215.17164611816406, 150.5592803955078
635,673896979,0.34104827,-0.6518668,-0.20617715,-0.64517206,15.23672866821289,0.9074980616569519,-2.191164255142212,41.6712532043457,217.888671875, 147.99530029296875
636,673913646,0.36668473,-0.63209355,-0.18748926,-0.6563902,15.358189582824707,0.8350518941879272,-2.896455764770508,62.44389343261719,217.4386444091797, 143.33473205566406
637,673930313,0.3939252,-0.6099491,-0.17233723,-0.66564643,15.805745124816895,0.07104349136352539,-3.466129779815674,93.90453338623047,212.93162536621094, 137.25430297851562
638,673946980,0.4214423,-0.5855955,-0.16119833,-0.6734089,16.015186309814453,1.2185308933258057,-3.620751142501831,121.21827697753906,206.42910766601562, 123.2713623046875
639,673963647,0.4464689,-0.56070906,-0.15282433,-0.6803791,15.882787704467773,0.2670278251171112,-4.449843406677246,126.40699768066406,195.15330505371094, 102.48578643798828
640,673980314,0.4705948,-0.53528297,-0.14756083,-0.68573946,15.42792797088623,1.5313776731491089,-5.734082221984863,140.91099548339844,181.21275329589844, 90.82670593261719
641,673996981,0.4864876,-0.51644146,-0.13864112,-0.69093895,13.176529884338379,2.450613021850586,-7.127763748168945,72.20906829833984,153.34234619140625, 72.81391906738281
642,674013648,0.49482656,-0.5061193,-0.1269452,-0.6948923,10.750279426574707,3.565106153488159,-9.179154396057129,4.833058834075928,110.86569213867188, 59.186275482177734
643,674030315,0.49639833,-0.5036186,-0.11558454,-0.6975654,9.147658348083496,3.2461042404174805,-9.473642349243164,-42.477542877197266,62.279293060302734, 37.08279800415039
644,674046982,0.49386993,-0.5066053,-0.1088914,-0.6982738,8.493545532226562,2.7577874660491943,-9.468517303466797,-51.35234832763672,10.23708438873291, 12.506187438964844
645,674063649,0.48962384,-0.51299053,-0.10833548,-0.69668704,8.413717269897461,2.2627532482147217,-8.327799797058105,-37.65938186645508,-35.919857025146484, -6.658239841461182
646,674080316,0.48533973,-0.520875,-0.11390898,-0.6929354,9.037459373474121,2.3007073402404785,-6.6978044509887695,-11.786505699157715,-71.17865753173828, -19.9240665435791
647,674096983,0.48168036,-0.52895194,-0.12502633,-0.68743175,9.781723022460938,2.055351734161377,-5.539085388183594,17.63580894470215,-96.18319702148438, -30.699172973632812
648,674113650,0.4789391,-0.53682303,-0.14065383,-0.68018734,10.447256088256836,1.7215198278427124,-4.907433986663818,44.44186019897461,-115.48609924316406, -37.120201110839844
649,674130317,0.47651982,-0.54495496,-0.15899701,-0.67132187,10.981754302978516,1.1785151958465576,-4.6183648109436035,59.09059524536133,-131.1620635986328, -39.97378158569336
650,674146984,0.47357756,-0.5536938,-0.1791343,-0.661104,11.108896255493164,1.7556345462799072,-4.798910140991211,64.92979431152344,-145.32180786132812, -43.977142333984375
651,674163651,0.46903205,-0.5636315,-0.19952467,-0.6500142,11.752490043640137,1.6950606107711792,-4.522857189178467,57.18352508544922,-156.73965454101562, -47.86525344848633
652,674180318,0.46249413,-0.57436013,-0.21414292,-0.64058757,13.377036094665527,-4.854730129241943,7.380393028259277,18.817476272583008,-137.79571533203125, -38.635894775390625
653,674196985,0.45422792,-0.5852299,-0.22379105,-0.6333251,11.810121536254883,-1.6497914791107178,8.730302810668945,-13.526575088500977,-116.7705307006836, -33.356956481933594
654,674213652,0.4412295,-0.5989415,-0.23302042,-0.62632823,16.78131103515625,1.3814184665679932,-0.6147575974464417,-43.71139907836914,-134.27146911621094, -48.72663116455078
655,674230319,0.42769414,-0.6126817,-0.24635425,-0.6172588,15.822141647338867,0.05629759654402733,-0.7053337097167969,-25.000764846801758,-156.21768188476562, -61.50094223022461
656,674246986,0.4166303,-0.6245462,-0.26199833,-0.6063977,11.132862091064453,-1.5443722009658813,1.0822268724441528,3.760443925857544,-158.3922119140625, -58.60575485229492
657,674263653,0.4087854,-0.63418174,-0.2779046,-0.5945396,9.011378288269043,-2.512669086456299,-2.8801498413085938,26.889036178588867,-148.3847198486328, -47.49952697753906
658,674280320,0.40478134,-0.6409495,-0.2945705,-0.5818625,8.85397720336914,-2.4673385620117188,-4.580262184143066,56.382713317871094,-134.98486328125, -38.37020492553711
659,674296987,0.403337,-0.64517564,-0.31079987,-0.56962395,9.103203773498535,-1.2553037405014038,-5.088997840881348,72.13008880615234,-116.40499114990234, -32.664390563964844
660,674313654,0.40064812,-0.64866984,-0.32458457,-0.55977976,10.767122268676758,0.7725101709365845,-3.1585159301757812,53.95417785644531,-98.71424865722656, -34.95895767211914
661,674330321,0.39448065,-0.6539507,-0.33467987,-0.5520173,10.902958869934082,0.02898230403661728,-1.5831880569458008,14.68089771270752,-93.89448547363281, -33.6312141418457
662,674346988,0.3850317,-0.6612205,-0.34120807,-0.5459993,11.004327774047852,-0.882202684879303,-1.3624323606491089,-23.028047561645508,-91.52017211914062, -30.193410873413086
663,674363655,0.3767271,-0.667924,-0.34863582,-0.5388948,12.015179634094238,-0.5663987398147583,-2.70745587348938,-10.408642768859863,-94.09210205078125, -28.448354721069336
664,674380322,0.36915413,-0.6734377,-0.35721558,-0.5316052,13.09130859375,0.5754636526107788,-0.18240179121494293,0.7479864358901978,-91.79873657226562, -33.409088134765625
665,674396989,0.3612024,-0.6786255,-0.36590222,-0.52451473,13.240761756896973,0.4211406409740448,-0.9342746138572693,-0.28554001450538635,-90.99484252929688, -36.57801818847656
666,674413656,0.35256714,-0.683584,-0.3737298,-0.51839715,13.625195503234863,-0.8362122774124146,-0.22773823142051697,-8.457613945007324,-85.31044006347656, -38.016136169433594
667,674430323,0.34288236,-0.6886357,-0.3799236,-0.5136833,13.084763526916504,-0.8300869464874268,-0.28399690985679626,-23.055587768554688,-77.90473937988281, -37.25816345214844
668,674446990,0.3318914,-0.69417447,-0.38470376,-0.5098756,12.567093849182129,-2.013174057006836,-0.062082439661026,-37.76665115356445,-75.53899383544922, -36.0560302734375
669,674463657,0.32058218,-0.70004,-0.38855478,-0.5061584,11.984672546386719,-2.330242156982422,-0.050012119114398956,-43.5517692565918,-75.10585021972656, -32.12265396118164
670,674480324,0.3090134,-0.70617694,-0.39157435,-0.50248843,11.7915678024292,-1.7509607076644897,-0.2695056200027466,-48.44180679321289,-74.81394958496094, -28.455829620361328
671,674496991,0.29655495,-0.7127964,-0.39368463,-0.49898815,11.054810523986816,-1.601963996887207,-0.9070436954498291,-57.40149688720703,-76.24683380126953, -26.21788215637207
672,674513658,0.28308403,-0.71981794,-0.39531553,-0.49543065,10.990872383117676,-1.6335254907608032,-0.26071619987487793,-64.69087219238281,-79.77766418457031, -26.17717742919922
673,674530325,0.2689318,-0.7270211,-0.3966355,-0.49172813,10.676462173461914,-1.9759935140609741,-0.8288395404815674,-69.09333038330078,-82.48529052734375, -26.227205276489258
674,674546992,0.25506786,-0.73407984,-0.39826414,-0.48729149,10.97861385345459,-2.3463871479034424,-0.4576871395111084,-64.36876678466797,-85.55974578857422, -25.882266998291016
675,674563659,0.24115355,-0.7411105,-0.3995598,-0.4826513,11.495275497436523,-1.41143798828125,-1.078054666519165,-65.14950561523438,-86.16783142089844, -24.160581588745117
676,674580326,0.22560325,-0.74848557,-0.39998874,-0.47841585,11.738656997680664,-0.6030638217926025,-0.05772733688354492,-78.06591033935547,-88.41975402832031, -24.944494247436523
677,674596993,0.20870641,-0.7557912,-0.3994116,-0.47507036,11.760359764099121,-0.21207797527313232,1.117539405822754,-90.65331268310547,-85.89591217041016, -25.80396842956543
678,674613660,0.19129363,-0.76274145,-0.39834094,-0.47218302,11.628974914550781,-0.7150228023529053,1.6620690822601318,-95.6965103149414,-83.231689453125, -26.59419822692871
679,674630327,0.1743167,-0.7688052,-0.39768362,-0.46946794,11.094483375549316,-0.8599878549575806,1.2039990425109863,-91.38025665283203,-78.9758071899414, -30.056516647338867
680,674646994,0.15799744,-0.7738504,-0.3975777,-0.4670381,10.339529037475586,-1.5654339790344238,1.4443753957748413,-85.68031311035156,-73.19794464111328, -34.04534912109375
681,674663661,0.14184262,-0.7778798,-0.39691317,-0.46609446,9.359268188476562,-2.2020394802093506,2.133103609085083,-89.58207702636719,-61.12155532836914, -35.01449203491211
682,674680328,0.12513162,-0.7815457,-0.39563105,-0.46583772,8.314120292663574,-2.896009683609009,-1.4452224969863892,-96.07150268554688,-57.34469223022461, -35.25727081298828
683,674696995,0.10511966,-0.78564197,-0.3952017,-0.46425456,9.845873832702637,-2.2491261959075928,-6.285696029663086,-107.88566589355469,-75.61805725097656, -48.20914077758789
684,674713662,0.08570199,-0.7894369,-0.39592373,-0.46118245,9.753933906555176,-1.7592318058013916,-6.026196479797363,-96.79303741455078,-81.88993072509766, -52.37515640258789
685,674730329,0.05579168,-0.79303867,-0.39145806,-0.46339792,12.240240097045898,0.14679382741451263,-2.6329944133758545,-184.54595947265625,-78.0691146850586, -61.23563766479492
686,674746996,0.03546629,-0.7947786,-0.38777375,-0.46551132,6.317147731781006,-8.402982711791992,3.2261838912963867,-128.80836486816406,-47.270137786865234, -40.00803756713867
687,674763663,0.02681847,-0.7942077,-0.38670406,-0.46794784,6.819174766540527,-3.7985503673553467,4.106435775756836,-56.99742889404297,-7.719875335693359, -23.374671936035156
