PacketCounter,SampleTimeFine,Quat_W,Quat_X,Quat_Y,Quat_Z,Acc_X,Acc_Y,Acc_Z,Gyr_X,Gyr_Y,Gyr_Z 
1,636562418,0.39934897,-0.025162624,-0.13363175,0.90665853,0.15943056344985962,0.29397186636924744,0.2694008946418762,1.6046805381774902,0.27576032280921936, 0.9720691442489624
2,636579085,0.39948443,-0.025644783,-0.13201204,0.9068228,0.8474801778793335,-2.612868070602417,9.33816146850586,6.4111714363098145,31.338239669799805, 10.28302001953125
3,636595752,0.39975536,-0.026714945,-0.13053529,0.9068862,0.4182695150375366,-2.1902642250061035,9.214818000793457,9.53599739074707,30.529979705810547, 10.855606079101562
4,636612419,0.39997515,-0.02916712,-0.12650084,0.90728545,0.40486621856689453,-2.367980718612671,9.499588012695312,11.09545612335205,28.777324676513672, 11.398942947387695
5,636629086,0.40008625,-0.031715088,-0.12221064,0.907739,0.5872779488563538,-2.350720167160034,10.365514755249023,13.517268180847168,25.353485107421875, 10.68224048614502
6,636645753,0.40046647,-0.033724036,-0.11851496,0.9079888,0.29310131072998047,-2.1670849323272705,10.735583305358887,9.20641040802002,22.579971313476562, 9.437630653381348
7,636662420,0.40054068,-0.03631944,-0.11568496,0.908221,0.09411977231502533,-1.4484903812408447,9.855584144592285,-0.7179895043373108,21.910741806030273, 9.401410102844238
8,636679087,0.40025786,-0.039071005,-0.112698644,0.9086067,0.05806032940745354,-1.7468383312225342,8.982550621032715,-4.962278842926025,21.379047393798828, 11.246758460998535
9,636695754,0.3999292,-0.041410074,-0.10901975,0.90909654,-0.12097665667533875,-2.133084297180176,9.463284492492676,3.1871418952941895,20.46787452697754, 11.148239135742188
10,636712421,0.3989605,-0.043483686,-0.105397336,0.9098522,-0.10133776068687439,-2.194974184036255,9.917157173156738,7.282554626464844,18.6364803314209, 10.018904685974121
11,636729088,0.39804813,-0.04569884,-0.10250104,0.910474,-0.22443225979804993,-1.9480066299438477,9.984703063964844,4.685664653778076,17.742820739746094, 9.15854549407959
12,636745755,0.3970838,-0.048211787,-0.10034968,0.9110051,-0.23514355719089508,-1.947632908821106,9.674545288085938,-0.1759466677904129,17.504451751708984, 9.159913063049316
13,636762422,0.3959803,-0.051046286,-0.09885262,0.9114944,-0.5613666772842407,-2.091843605041504,9.205020904541016,-4.298367977142334,17.8885440826416, 9.945368766784668
14,636779089,0.39460877,-0.054169405,-0.09747294,0.91205734,-0.5426241755485535,-1.913496971130371,9.201797485351562,-4.380675315856934,18.589248657226562, 11.836896896362305
15,636795756,0.39302054,-0.0577939,-0.09610286,0.9126659,-0.5592759251594543,-2.117619752883911,9.59410285949707,-5.261501312255859,21.45189666748047, 13.611663818359375
16,636812423,0.3911369,-0.061854955,-0.094683826,0.913357,-0.3450787365436554,-2.0507688522338867,9.641894340515137,-5.4892401695251465,24.240859985351562, 16.018901824951172
17,636829090,0.3890569,-0.06619025,-0.09280308,0.91413414,-0.7232966423034668,-2.2961952686309814,9.049449920654297,-2.9873616695404053,27.778217315673828, 18.01144027709961
18,636845757,0.3867509,-0.07061794,-0.08991138,0.9150698,-0.8021350502967834,-2.2940614223480225,8.664892196655273,4.060061454772949,30.85831069946289, 20.40298843383789
19,636862424,0.38425666,-0.07549669,-0.086568326,0.91605306,-0.7786704897880554,-2.1556222438812256,8.778809547424316,6.4760003089904785,34.78664779663086, 22.260385513305664
20,636879091,0.3816277,-0.08091178,-0.08294581,0.9170244,-0.6405128240585327,-2.048207998275757,9.133563041687012,7.164496898651123,39.060081481933594, 23.6215763092041
21,636895758,0.37886575,-0.087014504,-0.079437666,0.917921,-0.7464602589607239,-2.325430393218994,9.240175247192383,4.640890121459961,43.60393524169922, 24.720121383666992
22,636912425,0.37595052,-0.09368756,-0.07581206,0.91876906,-0.6975670456886292,-2.0288002490997314,9.429646492004395,4.179351806640625,47.91698455810547, 26.084653854370117
23,636929092,0.37280002,-0.101416804,-0.07273578,0.9194806,-0.8364887833595276,-1.8447870016098022,9.310964584350586,-2.2599527835845947,53.71616744995117, 27.5393009185791
24,636945759,0.3694076,-0.10993179,-0.06984456,0.9200951,-0.9814479351043701,-1.6318408250808716,9.416789054870605,-5.810572624206543,58.62009811401367, 29.160564422607422
25,636962426,0.36562917,-0.119430095,-0.06762097,0.9205863,-1.2101794481277466,-1.892899990081787,9.32990837097168,-13.19861888885498,63.45918655395508, 31.289011001586914
26,636979093,0.36154053,-0.12978323,-0.06586205,0.9209272,-1.5341343879699707,-2.2331221103668213,9.651214599609375,-18.65595817565918,67.96285247802734, 32.9340934753418
27,636995760,0.35775387,-0.1398977,-0.06412703,0.92104757,-2.0284695625305176,-2.397402763366699,9.507091522216797,-17.908323287963867,66.90682983398438, 30.40036964416504
28,637012427,0.3545491,-0.14880648,-0.06163096,0.921061,-2.3988397121429443,-2.8224618434906006,9.566157341003418,-9.39979362487793,61.443145751953125, 26.681062698364258
29,637029094,0.35228637,-0.15576498,-0.058142096,0.9210055,-2.8149149417877197,-2.6979503631591797,9.752983093261719,2.9753897190093994,51.838287353515625, 20.800975799560547
30,637045761,0.35105515,-0.1605159,-0.054401882,0.92088836,-3.127011775970459,-2.488957643508911,9.991376876831055,11.223461151123047,38.722740173339844, 13.518912315368652
31,637062428,0.35064805,-0.16335629,-0.051381122,0.9207175,-3.358534574508667,-2.358522653579712,10.496338844299316,12.232873916625977,25.020923614501953, 6.6310906410217285
32,637079095,0.35074013,-0.16481629,-0.050350208,0.92047924,-3.441628932952881,-2.1984682083129883,10.772762298583984,3.4527535438537598,11.54912281036377, 0.5344540476799011
33,637095762,0.35099828,-0.16524076,-0.051776133,0.92022556,-3.4019997119903564,-2.1480212211608887,10.70499324798584,-9.54673957824707,-0.9835920929908752, -3.762481451034546
34,637112429,0.35096446,-0.16528097,-0.056257516,0.9199682,-3.1826696395874023,-1.651381254196167,11.225363731384277,-28.415847778320312,-10.977997779846191, -5.594254493713379
35,637129096,0.34996572,-0.16659038,-0.06605441,0.919461,-3.2582950592041016,-1.4357150793075562,11.428800582885742,-66.68031311035156,-15.798429489135742, -5.745138645172119
36,637145763,0.34905776,-0.16799249,-0.077690296,0.9186411,-2.9539456367492676,-1.8344639539718628,10.286169052124023,-79.05953216552734,-19.197965621948242, -9.273040771484375
37,637162430,0.349136,-0.16604565,-0.08654399,0.9181738,-2.5026466846466064,-3.4526124000549316,9.17608642578125,-52.382957458496094,-33.53954315185547, -13.302504539489746
38,637179097,0.35014167,-0.16174087,-0.09372607,0.91785413,-2.2919647693634033,-3.4148569107055664,9.60975456237793,-34.66652297973633,-43.993133544921875, -18.191669464111328
39,637195764,0.35177326,-0.1566961,-0.10105351,0.9173278,-1.9091063737869263,-3.6303889751434326,9.822327613830566,-33.0230712890625,-48.28230667114258, -23.192163467407227
40,637212431,0.3536726,-0.15290096,-0.1105199,0.91614544,-1.7722641229629517,-3.319802761077881,10.237895965576172,-49.5008659362793,-44.508567810058594, -27.802288055419922
41,637229098,0.35517392,-0.1499924,-0.123312816,0.91441125,-1.9753947257995605,-3.703484058380127,8.910767555236816,-73.43974304199219,-46.563228607177734, -29.400453567504883
42,637245765,0.35684705,-0.14470318,-0.13489266,0.9129762,-1.4929759502410889,-2.4766685962677,7.129897117614746,-59.38664627075195,-58.75272750854492, -30.490446090698242
43,637262432,0.35873556,-0.1402614,-0.14659512,0.9111233,-0.6510890126228333,-2.355975389480591,7.010794639587402,-62.44917297363281,-53.14211654663086, -32.22138977050781
44,637279099,0.36062065,-0.13650358,-0.15674752,0.909258,-1.2060487270355225,-3.245072603225708,5.31132698059082,-54.53239822387695,-44.87818145751953, -30.001981735229492
45,637295766,0.36285064,-0.13392314,-0.16351555,0.90756094,-1.1697344779968262,-2.9121768474578857,6.957509994506836,-35.5280876159668,-29.000871658325195, -27.29422950744629
46,637312433,0.36368996,-0.13455792,-0.16835287,0.90624565,-2.8985416889190674,-5.138794422149658,8.25280475616455,-32.3734016418457,-6.071478843688965, -12.291306495666504
47,637329100,0.3635268,-0.13596958,-0.16793078,0.9061788,-2.3025035858154297,-4.154529571533203,7.82729959487915,-0.7080889344215393,9.230685234069824, 2.718475103378296
48,637345767,0.36219975,-0.13846217,-0.16368052,0.90710986,-2.618189811706543,-5.397266387939453,7.239547252655029,20.61534881591797,23.029497146606445, 17.21156120300293
49,637362434,0.36083606,-0.13997002,-0.15455446,0.9090208,-1.279820442199707,-2.1946656703948975,6.728664398193359,54.94419479370117,27.776058197021484, 23.370502471923828
50,637379101,0.35958302,-0.14330806,-0.14688702,0.9102677,0.3360529839992523,-2.2648351192474365,10.376542091369629,40.49612808227539,36.35329818725586, 21.569307327270508
51,637395768,0.3589264,-0.14933568,-0.14107272,0.9104774,-1.9402947425842285,-4.591618061065674,12.684326171875,21.37247657775879,50.6594123840332, 16.281740188598633
52,637412435,0.3581428,-0.15273689,-0.1310293,0.9117218,-1.0417377948760986,-5.521637439727783,9.0328369140625,55.09331130981445,43.555599212646484, 21.44853973388672
53,637429102,0.3582268,-0.15365191,-0.12024176,0.9130207,-1.8447489738464355,-1.7852418422698975,8.213827133178711,67.1745376586914,30.673269271850586, 14.820449829101562
54,637445769,0.35768363,-0.15203881,-0.11037319,0.9147483,-2.7171175479888916,-4.168459892272949,8.677767753601074,67.08526611328125,11.55679702758789, 16.708173751831055
55,637462436,0.35728452,-0.15032147,-0.10257845,0.91609436,-2.299804925918579,-1.4612302780151367,10.270410537719727,54.332435607910156,6.180534839630127, 12.620471000671387
56,637479103,0.356564,-0.1502755,-0.0989028,0.9167866,-2.3174593448638916,-1.7954649925231934,9.639471054077148,23.16339111328125,7.0458197593688965, 9.89883804321289
57,637495770,0.3557474,-0.1505827,-0.09640429,0.9173194,-1.9913012981414795,-1.9838536977767944,10.115180015563965,14.473044395446777,6.473252773284912, 9.092987060546875
58,637512437,0.35480472,-0.15177782,-0.09498847,0.9176352,-2.0549445152282715,-2.2954587936401367,10.161083221435547,5.032739162445068,9.624574661254883, 8.80677318572998
59,637529104,0.35368386,-0.15328771,-0.09426408,0.91789174,-1.942625880241394,-2.6188864707946777,9.49079418182373,-0.4260803163051605,9.920642852783203, 9.26197338104248
60,637545771,0.3524238,-0.15467304,-0.09445009,0.9181248,-1.8933296203613281,-2.589137077331543,9.13338851928711,-6.050299167633057,6.90294075012207, 9.05128288269043
61,637562438,0.3513265,-0.15577137,-0.09557025,0.91824377,-2.3235361576080322,-2.9860053062438965,9.29776668548584,-11.160996437072754,3.0992727279663086, 6.578004360198975
62,637579105,0.350552,-0.15632461,-0.09641188,0.9183577,-2.309231758117676,-3.3962032794952393,9.515310287475586,-7.707261562347412,0.5397430062294006, 4.472843170166016
63,637595772,0.35029185,-0.15646707,-0.09704015,0.9183665,-2.329343795776367,-3.074483871459961,9.749853134155273,-4.811230659484863,-1.083980679512024, 0.9469208121299744
64,637612439,0.35029203,-0.15627973,-0.097982116,0.9182983,-2.2134175300598145,-2.9080300331115723,9.14845085144043,-5.750757217407227,-3.6590185165405273, -1.4340425729751587
65,637629106,0.3503695,-0.15537392,-0.099182464,0.91829365,-2.3388617038726807,-3.0965919494628906,8.76083755493164,-5.508205890655518,-8.831825256347656, -2.52596378326416
66,637645773,0.35068846,-0.15412924,-0.10027433,0.9182629,-2.219895124435425,-3.1985714435577393,9.027256965637207,-3.7146880626678467,-10.544074058532715, -4.224342346191406
67,637662440,0.35111138,-0.15274923,-0.101240255,0.918226,-2.128697633743286,-3.271420478820801,9.560739517211914,-2.4376771450042725,-11.02353286743164, -4.846104145050049
68,637679107,0.3515539,-0.1513627,-0.1019406,0.9182089,-2.3393197059631348,-2.9198522567749023,9.593414306640625,-0.6764060854911804,-10.416407585144043, -4.634965419769287
69,637695774,0.3521634,-0.15014184,-0.102559604,0.9181068,-2.4929795265197754,-2.4621894359588623,9.248357772827148,-0.45799365639686584,-8.982069969177246, -5.700275421142578
70,637712441,0.3528639,-0.14896785,-0.10300277,0.91797954,-2.3681204319000244,-2.255732774734497,8.89138412475586,0.5667901039123535,-8.213190078735352, -6.1438493728637695
71,637729108,0.35348895,-0.14798617,-0.10372618,0.9178162,-2.2556002140045166,-2.25612211227417,8.570996284484863,-1.8264803886413574,-7.733615875244141, -5.930212497711182
72,637745775,0.3538871,-0.14731137,-0.104310304,0.9177051,-1.741233468055725,-2.5465028285980225,8.995399475097656,-1.9290719032287598,-5.707662105560303, -4.030465602874756
73,637762442,0.3542119,-0.14739716,-0.10477038,0.91751367,-1.8887637853622437,-2.9812440872192383,9.166176795959473,-3.1531662940979004,-0.5490466356277466, -3.088404655456543
74,637779109,0.35447526,-0.1478778,-0.10473784,0.9173384,-1.6934930086135864,-3.784698247909546,9.044914245605469,-1.0425137281417847,3.0956215858459473, -1.8700345754623413
75,637795776,0.35450816,-0.14838645,-0.105212875,0.9171891,-1.6807010173797607,-3.162259340286255,9.239570617675781,-4.428717613220215,1.8745616674423218, -0.8175957202911377
76,637812443,0.3543962,-0.1488257,-0.106831394,0.91697395,-1.8946367502212524,-2.4981818199157715,9.171767234802246,-11.640604019165039,-1.350929617881775, -1.26595938205719
77,637829110,0.35429958,-0.14884305,-0.10810524,0.9168594,-1.8717502355575562,-2.7397327423095703,9.625885963439941,-8.391363143920898,-3.2504703998565674, -1.0799342393875122
78,637845777,0.35434508,-0.14836957,-0.108837314,0.91683185,-1.8264296054840088,-2.908764600753784,9.810858726501465,-3.603668451309204,-4.98548698425293, -1.5752323865890503
79,637862444,0.35450685,-0.14752772,-0.10938219,0.9168404,-1.8352643251419067,-2.6273021697998047,9.799508094787598,-1.4042547941207886,-6.773099422454834, -2.300136089324951
80,637879111,0.35452175,-0.14649197,-0.11017359,0.9169058,-1.9107167720794678,-2.6291136741638184,9.199234962463379,-2.6409263610839844,-8.74020767211914, -1.63347589969635
81,637895778,0.354555,-0.14543791,-0.110979214,0.9169635,-1.939889669418335,-2.6639599800109863,8.939661026000977,-2.7026655673980713,-8.866312026977539, -1.800765037536621
82,637912445,0.3547145,-0.14458467,-0.11140749,0.9169851,-1.786117672920227,-2.726550340652466,8.95006275177002,-0.7326131463050842,-6.55494499206543, -2.1601502895355225
83,637929112,0.35477287,-0.14415343,-0.11171053,0.9169935,-1.6854690313339233,-2.9795238971710205,8.981369972229004,-1.0951992273330688,-3.6484014987945557, -1.1080567836761475
84,637945779,0.35439795,-0.14404365,-0.11178625,0.9171465,-1.6873780488967896,-3.0490386486053467,8.861883163452148,-0.75562584400177,-1.5304356813430786, 2.455918550491333
85,637962446,0.35371932,-0.14448097,-0.1114811,0.9173766,-1.7397135496139526,-3.060950517654419,8.743746757507324,0.08953560143709183,2.547637939453125, 5.363421440124512
86,637979113,0.3530389,-0.14537404,-0.11027018,0.9176439,-1.8080291748046875,-3.4173786640167236,8.589405059814453,4.742814064025879,7.590665817260742, 6.718117713928223
87,637995780,0.35241175,-0.14660262,-0.108486384,0.91790205,-1.8778973817825317,-3.30126953125,8.58834171295166,7.645453453063965,11.143228530883789, 7.198550701141357
88,638012447,0.35182145,-0.14831905,-0.106879376,0.91804147,-1.974766492843628,-2.6793887615203857,8.864044189453125,5.342307090759277,13.934070587158203, 6.870720863342285
89,638029114,0.35120156,-0.15056773,-0.10543093,0.9180802,-1.9778997898101807,-2.3366689682006836,9.23509693145752,2.9378252029418945,16.984115600585938, 7.036233901977539
90,638045781,0.35049674,-0.15316965,-0.10375939,0.91810954,-1.8017268180847168,-2.4042248725891113,9.258387565612793,3.3490517139434814,19.70387840270996, 8.028653144836426
91,638062448,0.34977683,-0.15596253,-0.10136977,0.9181809,-1.7302225828170776,-2.6264560222625732,9.201827049255371,7.394307613372803,22.607528686523438, 9.113346099853516
92,638079115,0.3490262,-0.15898162,-0.09837994,0.918274,-1.8628791570663452,-2.8920249938964844,8.896699905395508,10.60191535949707,25.466585159301758, 10.164692878723145
93,638095782,0.34824285,-0.1621166,-0.0950987,0.9183688,-2.179464101791382,-3.0008327960968018,8.811345100402832,12.141133308410645,26.894315719604492, 10.780146598815918
94,638112449,0.3474357,-0.16539253,-0.091972284,0.9184089,-2.270122528076172,-2.8747243881225586,9.035120010375977,10.788548469543457,27.459028244018555, 10.723401069641113
95,638129116,0.34658214,-0.16882068,-0.08888015,0.91841215,-2.204390525817871,-2.868436336517334,9.222962379455566,10.143939018249512,28.354082107543945, 10.988546371459961
96,638145783,0.34576616,-0.17213072,-0.08538759,0.9184365,-2.323406219482422,-2.834984064102173,9.217278480529785,13.019248008728027,28.579586029052734, 11.200995445251465
97,638162450,0.34507805,-0.17517325,-0.081740834,0.91845196,-2.7187981605529785,-2.5015578269958496,9.320571899414062,14.78359603881836,27.358299255371094, 10.403553009033203
98,638179117,0.3444501,-0.17795154,-0.07920198,0.918376,-3.2431654930114746,-1.9998446702957153,9.460162162780762,8.420034408569336,23.19919776916504, 8.316584587097168
99,638195784,0.34393376,-0.18012246,-0.07778165,0.91826767,-3.3567447662353516,-2.056718587875366,9.859183311462402,2.861895799636841,16.779428482055664, 5.808281421661377
100,638212451,0.34352955,-0.18158703,-0.077162094,0.9181828,-3.1218209266662598,-2.3298370838165283,10.026611328125,-0.42656686902046204,10.427299499511719, 3.760042190551758
101,638229118,0.34324527,-0.18226,-0.07691745,0.91817635,-3.078275203704834,-2.601684331893921,9.832297325134277,-0.7691749930381775,4.505254745483398, 2.2876176834106445
102,638245785,0.34312114,-0.18216853,-0.07712488,0.91822344,-3.168121576309204,-2.623809337615967,9.61465072631836,-1.6020359992980957,-1.3737499713897705, 0.42656034231185913
103,638262452,0.34320503,-0.18147948,-0.07775689,0.91827524,-3.0765461921691895,-2.52104115486145,9.341952323913574,-2.6157352924346924,-6.058531284332275, -1.7297793626785278
104,638279119,0.34339273,-0.18041763,-0.078806914,0.9183248,-2.7611653804779053,-2.6734249591827393,9.36434555053711,-4.255001544952393,-9.355055809020996, -3.1173744201660156
105,638295786,0.34363404,-0.1791922,-0.07990371,0.9183798,-2.6081292629241943,-2.8452043533325195,9.176606178283691,-4.093230724334717,-10.4695405960083, -3.5857536792755127
106,638312453,0.3439449,-0.17794208,-0.080826454,0.91842556,-2.527858018875122,-2.816680908203125,9.029102325439453,-2.8387207984924316,-10.153569221496582, -3.836232900619507
107,638329120,0.34436437,-0.17679037,-0.08158947,0.9184235,-2.5603466033935547,-2.6602301597595215,8.910202026367188,-1.9400473833084106,-9.024100303649902, -4.376046657562256
108,638345787,0.3448459,-0.17582579,-0.08234672,0.9183604,-2.28279447555542,-2.500263214111328,8.98193073272705,-2.2981128692626953,-7.7160186767578125, -4.795774459838867
109,638362454,0.34530923,-0.17510992,-0.08309635,0.9182556,-2.4597721099853516,-2.426297903060913,9.004892349243164,-2.891315460205078,-6.064511775970459, -4.623836040496826
110,638379121,0.34570834,-0.17462048,-0.08387094,0.91812813,-2.7542498111724854,-2.453097343444824,9.070716857910156,-3.6889843940734863,-4.69450044631958, -4.173038959503174
111,638395788,0.34607223,-0.1742453,-0.084423825,0.91801167,-2.747492790222168,-2.512218475341797,9.03796672821045,-2.608948230743408,-3.4908065795898438, -3.598930835723877
112,638412455,0.34642977,-0.1738578,-0.08470527,0.9179244,-2.58864426612854,-2.5300986766815186,9.034637451171875,-0.8648896813392639,-2.973672866821289, -3.1768457889556885
113,638429122,0.3467425,-0.17350233,-0.08491117,0.9178545,-2.5846707820892334,-2.5967824459075928,9.063455581665039,-0.5145847797393799,-2.640388011932373, -2.745720148086548
114,638445789,0.3470099,-0.17314501,-0.085041985,0.9178087,-2.5727810859680176,-2.6039042472839355,9.202839851379395,-0.07952743023633957,-2.529906749725342, -2.3142483234405518
115,638462456,0.34723794,-0.17292096,-0.08537268,0.917734,-2.626446485519409,-2.458714008331299,9.23631763458252,-1.7279609441757202,-2.1530933380126953, -2.2959609031677246
116,638479123,0.34750643,-0.17265214,-0.085697785,0.9176528,-2.728600025177002,-2.311523675918579,9.190581321716309,-1.5577003955841064,-2.3929178714752197, -2.5913779735565186
117,638495790,0.3477745,-0.17222479,-0.086026065,0.9176008,-2.704667091369629,-2.469944477081299,9.156003952026367,-1.2070497274398804,-3.446406841278076, -2.62557053565979
118,638512457,0.3480177,-0.1716484,-0.0862091,0.91759926,-2.539530038833618,-2.5339291095733643,9.245763778686523,0.052243512123823166,-4.124003887176514, -2.2704381942749023
119,638529124,0.34818506,-0.1710738,-0.08635019,0.9176299,-2.4003102779388428,-2.52024507522583,9.33754825592041,0.231186643242836,-4.093267917633057, -1.667002558708191
120,638545791,0.34816533,-0.17065248,-0.086814985,0.9176721,-2.530090570449829,-2.4312994480133057,9.235182762145996,-2.405378818511963,-4.013843536376953, -0.7480446100234985
121,638562458,0.34804124,-0.17025259,-0.08720058,0.91775674,-2.5660817623138428,-2.3145437240600586,9.112264633178711,-2.071632146835327,-3.8005149364471436, 0.11417501419782639
122,638579125,0.34786496,-0.16988027,-0.08739119,0.91787446,-2.492645502090454,-2.3569793701171875,9.137011528015137,-0.9712719321250916,-3.234410047531128, 0.759294867515564
123,638595792,0.34767783,-0.16951106,-0.08727825,0.9180245,-2.5068953037261963,-2.4163458347320557,9.08667278289795,0.9229728579521179,-2.5327630043029785, 1.256924033164978
124,638612459,0.3474117,-0.16928352,-0.08703205,0.9181905,-2.3857364654541016,-2.504305839538574,9.187057495117188,1.3279224634170532,-1.388093113899231, 2.0292623043060303
125,638629126,0.34707484,-0.16920224,-0.086873,0.91834795,-2.342869997024536,-2.493856906890869,9.155353546142578,0.330192506313324,-0.6976643204689026, 2.440614938735962
126,638645793,0.34667823,-0.16926725,-0.08688048,0.918485,-2.39794659614563,-2.6293513774871826,9.089641571044922,-1.1624451875686646,-0.17384620010852814, 2.6629457473754883
127,638662460,0.34634432,-0.16920613,-0.08675573,0.91863394,-2.505286931991577,-2.6672134399414062,9.146256446838379,0.053024694323539734,-0.62687087059021, 2.3763017654418945
128,638679127,0.3460891,-0.16903163,-0.08656001,0.9187807,-2.4811348915100098,-2.76582670211792,9.23921012878418,0.8629879355430603,-1.125217080116272, 1.8878800868988037
129,638695794,0.3458802,-0.16874371,-0.08656993,0.9189114,-2.509808301925659,-2.6890149116516113,9.347310066223145,-0.11637131124734879,-2.2834360599517822, 1.2547467947006226
130,638712461,0.3457637,-0.16830948,-0.08668269,0.9190243,-2.4395816326141357,-2.6342251300811768,9.4014310836792,-0.32255351543426514,-3.3752670288085938, 0.42349955439567566
131,638729128,0.34577248,-0.16771662,-0.08688314,0.9191104,-2.4037747383117676,-2.5202081203460693,9.364556312561035,-0.3750723898410797,-4.472964286804199, -0.6294833421707153
132,638745795,0.34584194,-0.16687495,-0.08712391,0.9192148,-2.3815345764160156,-2.5190842151641846,9.337227821350098,0.03104899637401104,-6.118887424468994, -1.1649937629699707
133,638762462,0.34593767,-0.16581264,-0.08731534,0.9193527,-2.3693387508392334,-2.5623815059661865,9.33610725402832,0.9076694250106812,-7.410396099090576, -1.3309385776519775
134,638779129,0.34609818,-0.16455923,-0.08733795,0.9195153,-2.3848350048065186,-2.625361919403076,9.321598052978516,2.5070550441741943,-8.203328132629395, -1.5917145013809204
135,638795796,0.34631255,-0.16322917,-0.08737334,0.91966826,-2.3813488483428955,-2.638011932373047,9.254825592041016,2.6620373725891113,-8.669862747192383, -2.0193443298339844
136,638812463,0.34656987,-0.16185433,-0.08742189,0.91980976,-2.3450865745544434,-2.6194002628326416,9.128447532653809,2.7201783657073975,-8.951525688171387, -2.3353538513183594
137,638829130,0.34686252,-0.16039243,-0.08739372,0.91995823,-2.3074951171875,-2.592069625854492,9.146031379699707,3.4574785232543945,-9.306351661682129, -2.508239507675171
138,638845797,0.34722427,-0.15888566,-0.08736534,0.9200859,-2.35581636428833,-2.430593967437744,9.291029930114746,3.578768014907837,-9.58482551574707, -2.813952922821045
139,638862464,0.34753215,-0.15734166,-0.087178096,0.92025274,-2.3733878135681152,-2.4499671459198,9.275388717651367,4.764021396636963,-9.354273796081543, -2.8011341094970703
140,638879131,0.3478539,-0.15568349,-0.08646236,0.9204807,-2.194737195968628,-2.5363471508026123,9.335148811340332,8.361135482788086,-8.950246810913086, -1.9894673824310303
141,638895798,0.34822872,-0.15381373,-0.085223846,0.9207688,-2.1978440284729004,-2.5748343467712402,9.248453140258789,12.264888763427734,-9.066275596618652, -1.7503606081008911
142,638912465,0.34850144,-0.15184224,-0.08384679,0.9211192,-2.1718103885650635,-2.408143997192383,9.236207962036133,13.570281028747559,-9.199117660522461, -1.957836627960205
143,638929132,0.34887335,-0.15013182,-0.082838915,0.92134994,-2.136284589767456,-2.2538881301879883,9.241076469421387,10.438199996948242,-8.48350715637207, -2.2661490440368652
144,638945799,0.34925404,-0.14882988,-0.08221075,0.9214731,-2.060819387435913,-2.34778094291687,9.128211975097656,6.827918529510498,-6.879995822906494, -2.0391814708709717
145,638962466,0.34952283,-0.1476252,-0.08149964,0.9216281,-2.0703938007354736,-2.4046831130981445,9.240837097167969,7.170321464538574,-5.9781718254089355, -1.7787895202636719
146,638979133,0.34999317,-0.14637382,-0.08062117,0.9217266,-2.092583656311035,-2.373560905456543,9.301237106323242,8.271540641784668,-5.989468097686768, -1.9554661512374878
147,638995800,0.3503004,-0.14498839,-0.07974679,0.92190486,-2.121890068054199,-2.1531143188476562,9.426155090332031,8.726140975952148,-6.685863971710205, -2.06827712059021
148,639012467,0.35097468,-0.14355008,-0.07889927,0.92194635,-2.0702922344207764,-2.1710140705108643,9.433589935302734,8.423820495605469,-7.386807918548584, -2.340207576751709
149,639029134,0.35147363,-0.14184827,-0.077991314,0.92209685,-2.0032167434692383,-2.2936394214630127,9.432853698730469,9.690974235534668,-8.663500785827637, -2.7587969303131104
150,639045801,0.35203922,-0.14003217,-0.07708568,0.922235,-1.872917652130127,-2.2389116287231445,9.574945449829102,10.074908256530762,-9.261531829833984, -3.591325521469116
151,639062468,0.35269982,-0.13810913,-0.07639951,0.92232955,-1.9193668365478516,-2.269007444381714,9.562042236328125,8.939024925231934,-10.444506645202637, -4.259932518005371
152,639079135,0.3534797,-0.13605756,-0.07596559,0.92237175,-1.9173979759216309,-2.2400643825531006,9.575248718261719,7.732166767120361,-11.754252433776855, -5.438297748565674
153,639095802,0.35438523,-0.13360454,-0.07547495,0.92242324,-1.9359476566314697,-2.312537431716919,9.450870513916016,9.216439247131348,-14.064729690551758, -6.516467094421387
154,639112469,0.35556275,-0.13071983,-0.07499283,0.9224228,-1.891965389251709,-2.2170913219451904,9.563355445861816,10.351587295532227,-16.746837615966797, -8.135066986083984
155,639129136,0.35688093,-0.12746339,-0.074628726,0.92239887,-1.7556822299957275,-2.1148977279663086,9.634546279907227,10.732605934143066,-19.164430618286133, -9.938398361206055
156,639145803,0.35840937,-0.12386404,-0.07438404,0.92231643,-1.6995091438293457,-2.034365653991699,9.719985008239746,10.958748817443848,-21.47446060180664, -11.668113708496094
157,639162470,0.36012217,-0.12009682,-0.07434917,0.9221504,-1.6137032508850098,-1.9677528142929077,9.715805053710938,10.148298263549805,-22.881078720092773, -13.324774742126465
158,639179137,0.36205095,-0.11623698,-0.07487958,0.9218467,-1.5873850584030151,-1.8068524599075317,9.850357055664062,6.8884358406066895,-24.638046264648438, -15.54983901977539
159,639195804,0.36404645,-0.11225686,-0.07603148,0.9214597,-1.44826078414917,-1.7618619203567505,9.831430435180664,3.236182689666748,-26.842552185058594, -16.742008209228516
160,639212471,0.36605394,-0.108036235,-0.07740348,0.92105454,-1.3813632726669312,-1.938396692276001,9.748038291931152,2.4183671474456787,-28.891433715820312, -17.1563777923584
161,639229138,0.3680339,-0.10375093,-0.07879961,0.9206398,-1.3486883640289307,-1.8608553409576416,9.647822380065918,2.3898727893829346,-29.36597442626953, -17.05433464050293
162,639245805,0.3698566,-0.0999835,-0.080328204,0.920194,-1.2480688095092773,-1.4939826726913452,9.519079208374023,0.09640012681484222,-26.48715591430664, -15.949760437011719
163,639262472,0.3713193,-0.09729605,-0.0821237,0.91973436,-1.1669330596923828,-1.5932081937789917,9.08353042602539,-4.628519535064697,-20.523603439331055, -13.295608520507812
164,639279139,0.3724263,-0.09551233,-0.083553895,0.9193448,-1.1366609334945679,-1.7466535568237305,8.821332931518555,-4.8471574783325195,-14.127508163452148, -10.114185333251953
165,639295806,0.3730741,-0.09464092,-0.08432646,0.9191017,-1.2477574348449707,-1.8317010402679443,8.591290473937988,-3.254594087600708,-7.042867660522461, -5.882240295410156
166,639312473,0.37315506,-0.09481991,-0.084457986,0.9190385,-1.2184566259384155,-1.5596537590026855,8.6532621383667,-2.165540933609009,0.7784404754638672, -0.8169555068016052
167,639329140,0.37272426,-0.0959577,-0.08387872,0.91914815,-1.1562305688858032,-1.8232852220535278,8.93427848815918,-0.38689276576042175,8.238450050354004, 3.8727245330810547
168,639345807,0.37200686,-0.09783426,-0.08272273,0.9193457,-1.0969346761703491,-1.926827073097229,9.099562644958496,1.2184035778045654,14.156618118286133, 6.70988655090332
169,639362474,0.3709621,-0.100431554,-0.08162745,0.91958565,-1.2459359169006348,-1.7973352670669556,9.285177230834961,-1.2083063125610352,18.3442325592041, 9.252375602722168
170,639379141,0.3693473,-0.103949465,-0.08156762,0.91985,-1.373342514038086,-1.812608003616333,9.503077507019043,-10.495892524719238,21.185565948486328, 12.712211608886719
171,639395808,0.36759153,-0.1077915,-0.081677,0.9201014,-1.336642861366272,-1.8232784271240234,9.565129280090332,-12.512596130371094,22.73284339904785, 13.62302017211914
172,639412475,0.36580324,-0.11164301,-0.08147922,0.9203723,-1.2532373666763306,-2.0949790477752686,9.557889938354492,-10.623514175415039,23.540353775024414, 14.102479934692383
173,639429142,0.3639159,-0.1157034,-0.08178865,0.9205915,-1.269326090812683,-2.063281774520874,9.722515106201172,-14.465987205505371,23.583467483520508, 14.323598861694336
174,639445809,0.36208835,-0.11958924,-0.082376994,0.92076325,-1.4004309177398682,-1.9740569591522217,9.72883415222168,-15.782071113586426,21.87017059326172, 13.503076553344727
175,639462476,0.3602139,-0.12375645,-0.08368939,0.9208292,-1.3555654287338257,-1.8516792058944702,10.404223442077637,-21.18000030517578,21.923906326293945, 13.095802307128906
176,639479143,0.35815737,-0.13053831,-0.08999639,0.9200998,-1.7156192064285278,-1.2606126070022583,10.480205535888672,-59.923736572265625,26.708189010620117, 9.528294563293457
177,639495810,0.35659754,-0.13661401,-0.09589148,0.9192277,-1.8397160768508911,-2.5126731395721436,9.650522232055664,-55.295536041259766,23.704532623291016, 5.949580192565918
178,639512477,0.35526043,-0.14154375,-0.10047939,0.91850936,-1.8354445695877075,-3.0307540893554688,8.98256778717041,-43.913936614990234,19.672821044921875, 5.382495403289795
179,639529144,0.35420513,-0.1447189,-0.10335845,0.91810256,-1.8067865371704102,-3.1680469512939453,9.148414611816406,-28.31902503967285,12.653505325317383, 4.825302600860596
180,639545811,0.35347694,-0.1465428,-0.10488738,0.9179206,-1.8148753643035889,-3.207435131072998,9.215944290161133,-15.996725082397461,7.417977333068848, 3.717411994934082
181,639562478,0.35306427,-0.14742166,-0.10538803,0.91788125,-1.899251937866211,-3.0130748748779297,9.411477088928223,-6.762343883514404,4.0449957847595215, 2.4224050045013428
182,639579145,0.35289097,-0.1477822,-0.10551311,0.9178756,-1.9408193826675415,-2.9048445224761963,9.420560836791992,-2.868647813796997,1.8116823434829712, 1.0544171333312988
183,639595812,0.352844,-0.14771694,-0.10577675,0.9178737,-1.9586094617843628,-2.9285244941711426,9.412914276123047,-2.5575437545776367,-1.09358549118042, -0.2726343870162964
184,639612479,0.35294265,-0.14748931,-0.10641181,0.917799,-1.9250935316085815,-2.7893359661102295,9.407186508178711,-4.429947853088379,-2.8717219829559326, -1.7606685161590576
185,639629146,0.35314116,-0.14709029,-0.10710274,0.91770625,-1.8896385431289673,-2.843467950820923,9.307709693908691,-4.237314701080322,-3.9249672889709473, -2.836798906326294
186,639645813,0.35346594,-0.14637394,-0.10747581,0.91765225,-1.803269386291504,-2.9209413528442383,9.316668510437012,-1.2661129236221313,-5.038416385650635, -3.6425364017486572
187,639662480,0.35391068,-0.14543,-0.10770437,0.9176042,-1.8096815347671509,-2.9103524684906006,9.272847175598145,0.27497801184654236,-6.116672992706299, -4.150436878204346
188,639679147,0.3543894,-0.14430279,-0.10787862,0.9175767,-1.8797762393951416,-2.702115058898926,9.265451431274414,1.1152602434158325,-7.134276866912842, -4.388710975646973
189,639695814,0.35486087,-0.14315833,-0.10802667,0.91755646,-1.9446169137954712,-2.6216201782226562,9.259302139282227,1.3015928268432617,-7.212690830230713, -4.253591060638428
190,639712481,0.3553328,-0.14207843,-0.10827904,0.91751194,-1.8562394380569458,-2.690279245376587,9.319411277770996,0.35853302478790283,-7.206223487854004, -3.8638298511505127
191,639729148,0.35572293,-0.14106856,-0.1085287,0.9174871,-1.8279231786727905,-2.688582181930542,9.386248588562012,0.2143719345331192,-6.702882766723633, -3.672349452972412
192,639745815,0.3560859,-0.1400949,-0.10875557,0.91746867,-1.769812822341919,-2.6439998149871826,9.237762451171875,0.2602314352989197,-6.4117937088012695, -3.545924663543701
193,639762482,0.35636562,-0.13931595,-0.1088482,0.91746765,-1.6880114078521729,-2.569149971008301,9.058052062988281,0.5643182992935181,-4.919022083282471, -2.7544538974761963
194,639779149,0.3565402,-0.13865605,-0.108652405,0.91752297,-1.6363617181777954,-2.662623643875122,8.951675415039062,1.9855029582977295,-3.659517288208008, -1.3795897960662842
195,639795816,0.3566135,-0.1381574,-0.10821093,0.91762197,-1.66213059425354,-2.618245840072632,9.085060119628906,3.053962469100952,-2.1901419162750244, -0.16817300021648407
196,639812483,0.3565735,-0.13785015,-0.10761041,0.91775423,-1.6024999618530273,-2.6430866718292236,9.188796997070312,3.5387468338012695,-0.6406761407852173, 0.7119370102882385
197,639829150,0.35648468,-0.13770841,-0.10687116,0.91789633,-1.560102939605713,-2.6857523918151855,9.241373062133789,3.9716010093688965,0.7165857553482056, 1.2588322162628174
198,639845817,0.3563853,-0.137611,-0.10596423,0.9180546,-1.6364394426345825,-2.759018898010254,9.269798278808594,4.914149761199951,1.3826314210891724, 1.5895435810089111
199,639862484,0.3562743,-0.13733007,-0.10482651,0.91827047,-1.697684407234192,-2.6796092987060547,9.22826099395752,6.851480484008789,0.7290463447570801, 1.8982020616531372
200,639879151,0.35612705,-0.13698618,-0.10360792,0.9185171,-1.724277377128601,-2.639202833175659,9.382316589355469,7.5060014724731445,0.48097455501556396, 2.2165427207946777
201,639895818,0.35599062,-0.13652939,-0.10249992,0.9187623,-1.7674516439437866,-2.5745651721954346,9.472683906555176,7.0755534172058105,-0.514687180519104, 2.033245086669922
202,639912485,0.3558837,-0.13603674,-0.10161922,0.9189747,-1.7824846506118774,-2.509505271911621,9.60763931274414,5.736834526062012,-1.225759744644165, 1.460538625717163
203,639929152,0.35579094,-0.13563755,-0.10121917,0.91911364,-1.7534494400024414,-2.4877936840057373,9.563971519470215,2.44083309173584,-1.7014774084091187, 0.7026909589767456
204,639945819,0.35576814,-0.13523099,-0.10100271,0.9192062,-1.6758004426956177,-2.554516315460205,9.42522144317627,1.2843040227890015,-2.162672519683838, 0.16595108807086945
205,639962486,0.35580108,-0.13478123,-0.10069593,0.9192931,-1.6450830698013306,-2.6196060180664062,9.324953079223633,2.019746780395508,-2.141272783279419, -0.23246082663536072
206,639979153,0.35586295,-0.13432232,-0.10020699,0.9193899,-1.6763746738433838,-2.6100637912750244,9.28012752532959,3.2328286170959473,-1.7304965257644653, -0.25637033581733704
207,639995820,0.35585815,-0.13385122,-0.09964363,0.91952175,-1.696668028831482,-2.534898519515991,9.325736045837402,3.766200065612793,-1.5903693437576294, -0.06559412181377411
208,640012487,0.35588345,-0.13344508,-0.099079326,0.919632,-1.6706571578979492,-2.4675629138946533,9.333524703979492,3.5396556854248047,-1.2708380222320557, 0.1914997398853302
209,640029154,0.35574204,-0.13312493,-0.09842605,0.91980326,-1.6353360414505005,-2.4814674854278564,9.297390937805176,3.9580657482147217,-0.3847540318965912, 0.5370664000511169
210,640045821,0.35572842,-0.13291134,-0.0977021,0.91991657,-1.6622703075408936,-2.457507610321045,9.268553733825684,4.012042999267578,0.27395981550216675, 0.8536136150360107
211,640062488,0.35563675,-0.1327362,-0.09689104,0.9200631,-1.686759352684021,-2.479443073272705,9.297151565551758,4.449458122253418,0.7011925578117371, 1.3536250591278076
212,640079155,0.3554654,-0.13266934,-0.09616384,0.920215,-1.6674302816390991,-2.3901827335357666,9.39883804321289,3.6492650508880615,1.2260863780975342, 1.5094653367996216
213,640095822,0.3553336,-0.1327328,-0.09543772,0.92033243,-1.6527045965194702,-2.424589157104492,9.343818664550781,3.2563791275024414,1.9915474653244019, 1.6649855375289917
214,640112489,0.35519838,-0.13290209,-0.09466015,0.9204405,-1.68088698387146,-2.370067834854126,9.332697868347168,3.2770750522613525,2.7444205284118652, 1.9621444940567017
215,640129156,0.3548934,-0.13320477,-0.094001606,0.92058194,-1.6626756191253662,-2.3197672367095947,9.362170219421387,2.222740888595581,3.409876585006714, 2.212918281555176
216,640145823,0.35467616,-0.13365872,-0.0934313,0.9206578,-1.638559341430664,-2.399783134460449,9.40417766571045,1.1448299884796143,3.9959843158721924, 2.488459348678589
217,640162490,0.3544618,-0.13418673,-0.092914656,0.92071587,-1.6993615627288818,-2.454845905303955,9.383536338806152,0.5763818621635437,4.305015563964844, 2.6124765872955322
218,640179157,0.354244,-0.13470392,-0.09234527,0.9207814,-1.7283687591552734,-2.501725673675537,9.354599952697754,0.9756325483322144,4.417018890380859, 2.49045729637146
219,640195824,0.35430884,-0.13522203,-0.09174094,0.92074096,-1.7712769508361816,-2.437742233276367,9.395989418029785,1.036795735359192,4.2688751220703125, 2.3232834339141846
220,640212491,0.3540509,-0.13572387,-0.09145209,0.9207951,-1.8329702615737915,-2.299428701400757,9.448782920837402,-0.7028509378433228,3.777085304260254, 1.9059754610061646
221,640229158,0.35395268,-0.13620397,-0.09138844,0.9207683,-1.8566514253616333,-2.2249948978424072,9.508344650268555,-2.1515440940856934,3.025378942489624, 1.330855369567871
222,640245825,0.353873,-0.13660832,-0.091455996,0.92073226,-1.7928056716918945,-2.273772716522217,9.59148120880127,-2.796727418899536,2.2480459213256836, 1.0098512172698975
223,640262492,0.35392898,-0.13686582,-0.09144109,0.92067397,-1.7938793897628784,-2.478330135345459,9.495171546936035,-1.9484734535217285,1.4377881288528442, 0.756413459777832
224,640279159,0.35381973,-0.13695541,-0.091314726,0.9207152,-1.7966729402542114,-2.5407261848449707,9.486045837402344,-0.6442362666130066,0.8557522892951965, 0.6066176295280457
225,640295826,0.35353124,-0.13691421,-0.09124573,0.920839,-1.8036706447601318,-2.488396644592285,9.410904884338379,-0.48415684700012207,0.15500164031982422, 0.1871199756860733
226,640312493,0.35357243,-0.13681993,-0.09119291,0.9208424,-1.8128831386566162,-2.4474740028381348,9.419454574584961,-0.6305205821990967,-0.4840928018093109, -0.15589168667793274
227,640329160,0.35370603,-0.1367127,-0.09125744,0.9208007,-1.7823402881622314,-2.426093578338623,9.390563011169434,-1.341081142425537,-0.8323359489440918, -0.674997091293335
228,640345827,0.35385534,-0.13658871,-0.09130142,0.9207573,-1.7464617490768433,-2.4131829738616943,9.409468650817871,-1.1285083293914795,-0.8342055678367615, -0.9172803163528442
229,640362494,0.3539391,-0.13650247,-0.09128793,0.92073923,-1.7379026412963867,-2.4255104064941406,9.348389625549316,-0.8015878200531006,-0.3711792230606079, -0.8803980946540833
230,640379161,0.35404217,-0.13646205,-0.09121206,0.9207131,-1.7882252931594849,-2.355619192123413,9.361398696899414,-0.5686531066894531,0.002580479485914111, -0.6119129657745361
231,640395828,0.3540606,-0.13647881,-0.09119019,0.9207058,-1.8093583583831787,-2.307821035385132,9.341842651367188,-1.0425777435302734,0.2754325866699219, -0.44312533736228943
232,640412495,0.3540228,-0.13656494,-0.091228254,0.92070377,-1.7818630933761597,-2.360389471054077,9.35265827178955,-1.6546698808670044,0.5142838358879089, -0.03899533674120903
233,640429162,0.35400048,-0.13667528,-0.09126618,0.92069227,-1.7464563846588135,-2.4402589797973633,9.396073341369629,-1.7674808502197266,0.6008802056312561, 0.164875328540802
234,640445829,0.3538481,-0.13679202,-0.091350116,0.92072505,-1.7665753364562988,-2.3940341472625732,9.399982452392578,-1.9880450963974,0.6681265234947205, 0.13718803226947784
235,640462496,0.3537802,-0.13692419,-0.091542445,0.9207125,-1.7861042022705078,-2.35532283782959,9.433435440063477,-2.8084709644317627,0.39191916584968567, 0.14187517762184143
236,640479163,0.35365617,-0.13701068,-0.09171952,0.92072964,-1.8175303936004639,-2.3284599781036377,9.398849487304688,-2.5462863445281982,0.21155448257923126, 0.08160846680402756
237,640495830,0.35367602,-0.1370636,-0.09187257,0.9206989,-1.8340489864349365,-2.3666772842407227,9.429473876953125,-2.376807451248169,-0.042734790593385696, -0.10662567615509033
238,640512497,0.35361344,-0.13701579,-0.09196338,0.92072093,-1.8144699335098267,-2.4297008514404297,9.41869831085205,-1.6437335014343262,-0.42623376846313477, -0.185435950756073
239,640529164,0.35362378,-0.13691622,-0.09204885,0.9207232,-1.7960317134857178,-2.4736225605010986,9.436949729919434,-1.4889559745788574,-0.7623876929283142, -0.41610392928123474
240,640545831,0.3536817,-0.13677226,-0.09213425,0.9207138,-1.7483861446380615,-2.455822229385376,9.404695510864258,-1.3555264472961426,-1.019295573234558, -0.7094717621803284
241,640562498,0.35372582,-0.13661963,-0.09219682,0.9207133,-1.7007850408554077,-2.4641151428222656,9.381061553955078,-1.1873152256011963,-1.0202178955078125, -0.6307511925697327
242,640579165,0.3539705,-0.13649575,-0.09217901,0.9206394,-1.7334150075912476,-2.498467206954956,9.297417640686035,-0.8535431623458862,-0.7990394234657288, -0.7202803492546082
243,640595832,0.35396627,-0.13634911,-0.09208547,0.9206721,-1.775437593460083,-2.421995162963867,9.366484642028809,-0.1057676374912262,-0.4718115031719208, -0.7469687461853027
244,640612499,0.3541951,-0.13621071,-0.09198409,0.9206148,-1.777413010597229,-2.3762879371643066,9.378899574279785,-0.2286701798439026,-0.6195967793464661, -0.8234866857528687
245,640629166,0.35427657,-0.13604009,-0.091927774,0.9206143,-1.7477366924285889,-2.3704957962036133,9.454628944396973,-0.34921637177467346,-0.8033679127693176, -0.7963757514953613
246,640645833,0.35434395,-0.13589326,-0.09192654,0.92061013,-1.7499014139175415,-2.4054250717163086,9.409900665283203,-0.7759110927581787,-0.7911635637283325, -0.7479420900344849
247,640662500,0.35444567,-0.1357711,-0.09194219,0.92058754,-1.746147632598877,-2.414600372314453,9.363953590393066,-0.990648090839386,-0.7316011786460876, -0.6688244938850403
248,640679167,0.3544472,-0.13565026,-0.091989584,0.9205999,-1.7960790395736694,-2.3911213874816895,9.398505210876465,-1.1680285930633545,-0.752962052822113, -0.4816339910030365
249,640695834,0.35446873,-0.13553092,-0.09200908,0.9206072,-1.8027673959732056,-2.3532681465148926,9.376163482666016,-1.0166832208633423,-0.7090107798576355, -0.41610392928123474
250,640712501,0.35451263,-0.13542096,-0.09200371,0.92060703,-1.7896431684494019,-2.3393025398254395,9.369845390319824,-0.8920390605926514,-0.6018087863922119, -0.43008843064308167
251,640729168,0.35452637,-0.13528395,-0.0919699,0.9206253,-1.7517281770706177,-2.3718340396881104,9.359355926513672,-0.6158957481384277,-0.6673132181167603, -0.4429972469806671
252,640745835,0.35450488,-0.1351887,-0.09189546,0.92065495,-1.7082791328430176,-2.3941850662231445,9.388630867004395,-0.49006062746047974,-0.33821573853492737, -0.1213785856962204
253,640762502,0.35442704,-0.13519545,-0.09183751,0.9206897,-1.7042771577835083,-2.3795957565307617,9.374940872192383,-0.8891575932502747,0.23547674715518951, 0.27682843804359436
254,640779169,0.354352,-0.13526474,-0.091742,0.92071795,-1.7489222288131714,-2.4028284549713135,9.357878684997559,-0.8439897298812866,0.6794472932815552, 0.5106468200683594
255,640795836,0.3542568,-0.1353335,-0.091626555,0.92075604,-1.7829688787460327,-2.4006924629211426,9.364348411560059,-0.7122251391410828,0.7285339832305908, 0.5920311212539673
256,640812503,0.35420635,-0.13539177,-0.09146665,0.92078274,-1.742250919342041,-2.3862693309783936,9.389669418334961,-0.4080999791622162,0.756003737449646, 0.504025936126709
257,640829170,0.35436076,-0.1354917,-0.09130531,0.9207247,-1.733257532119751,-2.4296631813049316,9.39530086517334,-0.6215049624443054,0.8608493208885193, 0.3510284721851349
258,640845837,0.3543128,-0.13557093,-0.09121857,0.92074007,-1.7436752319335938,-2.445279359817505,9.39615249633789,-0.8757110238075256,0.8013381958007812, 0.1389681100845337
259,640862504,0.3542917,-0.13563849,-0.09115824,0.9207442,-1.7451629638671875,-2.450847625732422,9.405587196350098,-1.0007010698318481,0.6836605668067932, -0.05890921503305435
260,640879171,0.35421667,-0.135622,-0.09114629,0.9207767,-1.7853095531463623,-2.4570021629333496,9.38524055480957,-1.042859435081482,0.1057228222489357, -0.21088214218616486
261,640895838,0.35421202,-0.13554458,-0.091131404,0.9207913,-1.7965482473373413,-2.427320718765259,9.418601989746094,-0.9002479910850525,-0.326997309923172, -0.3249867260456085
262,640912505,0.3541955,-0.13547774,-0.09120057,0.9208006,-1.7568272352218628,-2.3423027992248535,9.42493724822998,-1.4829882383346558,-0.4842849671840668, -0.27328750491142273
263,640929172,0.35413337,-0.13540511,-0.09131855,0.9208236,-1.748565673828125,-2.390942096710205,9.400665283203125,-1.7440582513809204,-0.5770412683486938, -0.36918145418167114
264,640945839,0.35424367,-0.13531889,-0.09130268,0.92079544,-1.712276577949524,-2.408618688583374,9.419261932373047,-0.9413434863090515,-0.4750771224498749, -0.4163343906402588
265,640962506,0.35444623,-0.13525301,-0.0912055,0.9207368,-1.6979260444641113,-2.4277727603912354,9.350516319274902,-0.5176966786384583,-0.2143142819404602, -0.43367424607276917
266,640979173,0.35444894,-0.13519293,-0.091107436,0.9207543,-1.7512115240097046,-2.3542673587799072,9.3582763671875,-0.39987829327583313,0.009303812868893147, -0.32523006200790405
267,640995840,0.3544529,-0.13516271,-0.09101613,0.92076623,-1.783812165260315,-2.3905766010284424,9.33478832244873,-0.5788085460662842,0.10425009578466415, -0.0316188782453537
268,641012507,0.3543598,-0.13516061,-0.09092689,0.9208111,-1.794844627380371,-2.378725051879883,9.372002601623535,-0.6495252847671509,0.3001616299152374, 0.26338180899620056
269,641029174,0.3543052,-0.13516483,-0.0908555,0.92083865,-1.7585704326629639,-2.3568103313446045,9.386313438415527,-0.7959915399551392,0.2758808135986328, 0.18094733357429504
270,641045841,0.354508,-0.13518168,-0.09073391,0.92077005,-1.7101995944976807,-2.419625997543335,9.394807815551758,-0.6665448546409607,0.24833431839942932, 0.08931788802146912
271,641062508,0.3544876,-0.13517083,-0.090593345,0.92079335,-1.709166169166565,-2.3946890830993652,9.407133102416992,-0.3047526776790619,0.3613119423389435, 0.06853318214416504
272,641079175,0.35453767,-0.13519038,-0.09042256,0.92078805,-1.7799999713897705,-2.3962268829345703,9.367274284362793,-0.2405160367488861,0.5564295053482056, 0.1144951730966568
273,641095842,0.3545403,-0.13523766,-0.09028606,0.9207934,-1.7832527160644531,-2.397784471511841,9.381973266601562,-0.5093981623649597,0.6844289898872375, 0.1570378690958023
274,641112509,0.35449263,-0.13528727,-0.09020834,0.9208121,-1.7726593017578125,-2.4131808280944824,9.384446144104004,-0.8646975755691528,0.5993180274963379, 0.14231057465076447
275,641129176,0.35448623,-0.1353067,-0.09009277,0.920823,-1.756697416305542,-2.4131102561950684,9.394378662109375,-0.580883264541626,0.4422224462032318, 0.20299984514713287
276,641145843,0.35446867,-0.13532616,-0.09004344,0.9208317,-1.7444349527359009,-2.39388108253479,9.421462059020996,-0.9886373281478882,0.3097151517868042, 0.09108516573905945
277,641162510,0.3545622,-0.13536832,-0.089977995,0.9207959,-1.726224660873413,-2.4338059425354004,9.472254753112793,-1.0083335638046265,0.4024716019630432, 0.0330980122089386
278,641179177,0.35449642,-0.13538276,-0.08997153,0.9208197,-1.7601758241653442,-2.3903555870056152,9.42953109741211,-1.1687970161437988,0.29434752464294434, -0.1875617802143097
279,641195844,0.3545511,-0.13537663,-0.089907065,0.9208059,-1.799147129058838,-2.384343385696411,9.352336883544922,-0.7928538918495178,0.23285144567489624, -0.33977803587913513
280,641212511,0.354594,-0.13532846,-0.08981521,0.9208054,-1.8024263381958008,-2.3635332584381104,9.358823776245117,-0.49994707107543945,0.04025675728917122, -0.33126184344291687
281,641229178,0.35452867,-0.13527028,-0.08979153,0.92084146,-1.7635455131530762,-2.3416748046875,9.403162002563477,-0.8530054092407227,-0.1037314385175705, -0.3021017909049988
282,641245845,0.35458857,-0.13524829,-0.0897783,0.92082286,-1.7487998008728027,-2.346132755279541,9.384669303894043,-1.121605634689331,-0.04754997789859772, -0.2224590927362442
283,641262512,0.35447437,-0.13521062,-0.08973528,0.9208766,-1.7075424194335938,-2.402592658996582,9.382280349731445,-0.8005504608154297,0.05361378192901611, -0.006812978070229292
284,641279179,0.35447663,-0.13520283,-0.08959998,0.92089003,-1.7386339902877808,-2.4031434059143066,9.410757064819336,-0.37153783440589905,0.3433702290058136, 0.11043554544448853
285,641295846,0.35444295,-0.13520244,-0.089536965,0.9209092,-1.7853847742080688,-2.3567357063293457,9.381281852722168,-0.8420943021774292,0.23724400997161865, 0.11505864560604095
286,641312513,0.35424092,-0.13522258,-0.089557335,0.92098194,-1.7935384511947632,-2.322842597961426,9.36550521850586,-1.3506088256835938,0.2834621071815491, 0.2613583505153656
287,641329180,0.3541904,-0.13522795,-0.08954041,0.92100227,-1.760062336921692,-2.3882369995117188,9.416425704956055,-1.1728311777114868,0.13791799545288086, 0.22647389769554138
288,641345847,0.35431,-0.13522436,-0.08946028,0.9209646,-1.7447638511657715,-2.4317893981933594,9.42476749420166,-0.8326559662818909,0.10743886232376099, 0.09632295370101929
289,641362514,0.35434473,-0.1352153,-0.0894163,0.92095685,-1.7439906597137451,-2.4302632808685303,9.368271827697754,-0.9707724452018738,0.09757798165082932, -0.02145063504576683
290,641379181,0.35450745,-0.13520803,-0.08937257,0.9208995,-1.7724307775497437,-2.390333652496338,9.37381649017334,-1.0330625772476196,0.027808986604213715, -0.21069006621837616
291,641395848,0.35446873,-0.1351402,-0.08932845,0.92092866,-1.8015215396881104,-2.4292426109313965,9.382744789123535,-0.7049383521080017,-0.12002109736204147, -0.3379467725753784
292,641412515,0.3544459,-0.1350177,-0.08927237,0.92096084,-1.7874161005020142,-2.4529025554656982,9.455161094665527,-0.45028406381607056,-0.3935007154941559, -0.5906161069869995
293,641429182,0.35453588,-0.13538338,-0.090248324,0.92077744,-1.6343154907226562,-2.1341516971588135,9.900835037231445,-8.542376518249512,-0.030069321393966675, -0.7556645274162292
294,641445849,0.3545068,-0.13764419,-0.09387562,0.9200906,-1.4730812311172485,-1.5874056816101074,10.97201156616211,-30.18035888671875,6.193281173706055, -3.549240827560425
295,641462516,0.35429254,-0.14065585,-0.0999001,0.91908264,-2.3627545833587646,-2.9846701622009277,9.871838569641113,-46.76258850097656,6.545001029968262, -9.128300666809082
296,641479183,0.3551839,-0.14156264,-0.10514987,0.91801304,-2.2802984714508057,-3.7750394344329834,9.758522033691406,-36.334617614746094,-4.988715171813965, -13.80434799194336
297,641495850,0.3569713,-0.13884366,-0.10916101,0.91726655,-1.931740403175354,-4.08223819732666,10.338234901428223,-18.369670867919922,-24.2591609954834, -20.905750274658203
298,641512517,0.36051106,-0.13270341,-0.11257356,0.91637814,-1.4055862426757812,-4.071202278137207,10.691391944885254,-5.281264781951904,-44.08333206176758, -30.66258430480957
299,641529184,0.3646159,-0.123933844,-0.11599988,0.91555446,-0.7800120711326599,-3.884046792984009,10.438868522644043,2.3134377002716064,-59.22768020629883, -39.39988327026367
300,641545851,0.36982098,-0.11291962,-0.1190042,0.91450524,-0.2541138827800751,-3.8457860946655273,9.75515079498291,11.081656455993652,-71.81346130371094, -46.434226989746094
301,641562518,0.3757136,-0.09903408,-0.120699726,0.91348964,0.48699072003364563,-3.8598392009735107,9.504744529724121,27.261873245239258,-85.83393859863281, -52.42692565917969
302,641579185,0.3825052,-0.08229114,-0.12117059,0.91226965,0.8853813409805298,-3.2945003509521484,10.191633224487305,42.80953598022461,-99.69078063964844, -60.121334075927734
303,641595852,0.38999495,-0.0631358,-0.1214337,0.91058874,1.3855648040771484,-2.594651460647583,10.762208938598633,50.476715087890625,-113.39295959472656, -67.57588195800781
304,641612519,0.3975937,-0.042948037,-0.12259494,0.9083202,1.9151345491409302,-1.6724553108215332,10.515700340270996,47.163692474365234,-121.87176513671875, -71.06144714355469
305,641629186,0.4047016,-0.024213765,-0.12616357,0.90538013,3.1480374336242676,-0.7091885209083557,10.245301246643066,27.499013900756836,-120.18638610839844, -66.83822631835938
306,641645853,0.4104964,-0.0075623477,-0.13096367,0.90237707,4.698065757751465,-1.583322286605835,11.224589347839355,13.581256866455078,-110.9613265991211, -60.00910568237305
307,641662520,0.41563362,0.0092436625,-0.13499624,0.8994106,4.025612831115723,-2.139976978302002,10.267151832580566,18.408775329589844,-109.53057098388672, -58.72221755981445
308,641679187,0.4206253,0.02691369,-0.13806139,0.89626396,3.7430758476257324,-1.2985855340957642,8.881308555603027,26.55782127380371,-112.17300415039062, -59.30649948120117
309,641695854,0.426001,0.044424802,-0.14197923,0.8924077,4.821952819824219,-1.673749327659607,9.597900390625,20.575244903564453,-114.1707763671875, -60.054683685302734
310,641712521,0.43094093,0.060752288,-0.14773506,0.8881293,5.705621242523193,-2.488313674926758,10.841999053955078,5.538795471191406,-112.76873779296875, -56.86428451538086
311,641729188,0.4356814,0.074460596,-0.15655226,0.8832491,4.178659915924072,-1.6220409870147705,9.728738784790039,-21.437536239624023,-106.21788787841797, -53.45325469970703
312,641745855,0.44037485,0.08861798,-0.16526048,0.8780125,3.037991523742676,-0.20554864406585693,8.232985496520996,-19.801612854003906,-108.82452392578125, -54.74115753173828
313,641762522,0.4448821,0.10297961,-0.17269978,0.8727257,2.6731722354888916,0.07787689566612244,7.787883281707764,-11.509806632995605,-106.46214294433594, -54.73920440673828
314,641779189,0.4494814,0.11749868,-0.17821708,0.86740947,2.831681489944458,-0.39135491847991943,7.820025444030762,0.35767918825149536,-101.45966339111328, -56.895790100097656
315,641795856,0.45382333,0.13195048,-0.1825466,0.86215436,3.467742681503296,-1.658070683479309,8.03815746307373,7.484745025634766,-97.67704772949219, -56.024803161621094
316,641812523,0.45743254,0.14494562,-0.18779947,0.85701686,4.9403557777404785,-2.0953636169433594,8.469315528869629,-1.7147341966629028,-92.75164031982422, -48.63496780395508
317,641829190,0.45992115,0.156434,-0.19409561,0.8522488,5.6062116622924805,-2.316124677658081,8.305641174316406,-10.987940788269043,-88.2195816040039, -37.86963653564453
318,641845857,0.46160308,0.1666547,-0.20092678,0.8478073,4.885285377502441,-2.0631868839263916,9.19241714477539,-16.799962997436523,-83.18267059326172, -29.83003807067871
319,641862524,0.4631564,0.17520751,-0.20759611,0.8436187,3.312511920928955,-1.7835190296173096,9.245055198669434,-20.63718032836914,-72.84878540039062, -26.148813247680664
320,641879191,0.46486804,0.18193616,-0.2137543,0.8397061,2.0025856494903564,-1.5874937772750854,8.183273315429688,-23.272193908691406,-60.14641571044922, -24.20015525817871
321,641895858,0.46628773,0.18730418,-0.21909371,0.8363558,1.8789969682693481,-1.9131412506103516,8.51601791381836,-21.697349548339844,-49.48690414428711, -19.749187469482422
322,641912525,0.467644,0.19095851,-0.22451003,0.8333303,2.1191580295562744,-1.5048693418502808,8.943385124206543,-27.052555084228516,-39.65446090698242, -15.678736686706543
323,641929192,0.46892112,0.19324793,-0.2297482,0.83065283,1.8544424772262573,-2.1326420307159424,9.33178424835205,-29.78409194946289,-31.026458740234375, -12.244085311889648
324,641945859,0.47020388,0.1952361,-0.23332356,0.8284633,1.1574196815490723,-2.346289873123169,8.634069442749023,-20.488740921020508,-23.40177345275879, -12.460395812988281
325,641962526,0.47148958,0.19676685,-0.23564509,0.8267116,0.24928955733776093,-2.781325101852417,8.332820892333984,-14.114459037780762,-16.269617080688477, -12.046266555786133
326,641979193,0.47246045,0.19825526,-0.23621789,0.82563746,-0.24694734811782837,-3.0836756229400635,7.636170387268066,-2.7637147903442383,-10.087965965270996, -10.405487060546875
327,641995860,0.47296238,0.19965512,-0.23533003,0.8252662,0.106172576546669,-3.5105414390563965,7.904834270477295,7.05547571182251,-4.777307987213135, -7.364217758178711
328,642012527,0.47309273,0.20078026,-0.23375878,0.8253651,1.3362178802490234,-3.268385887145996,8.331510543823242,11.354199409484863,-1.0786538124084473, -4.280204772949219
329,642029194,0.4729539,0.20114796,-0.23212132,0.82581717,2.223200559616089,-3.25052547454834,8.880728721618652,10.23890495300293,3.388273000717163, -0.5268406271934509
330,642045861,0.47260642,0.20050907,-0.23064065,0.82658595,2.9474234580993652,-2.859210252761841,9.4098539352417,6.899892330169678,8.611858367919922, 3.4678525924682617
331,642062528,0.4717296,0.19884706,-0.2296384,0.82776666,2.187209129333496,-2.1518120765686035,10.004366874694824,2.2565383911132812,12.52421760559082, 10.06407642364502
332,642079195,0.47027755,0.19610232,-0.22938798,0.8293155,1.4253071546554565,-0.6097052693367004,10.852323532104492,-4.171023845672607,15.74265193939209, 17.24241828918457
333,642095862,0.46828815,0.19222492,-0.2283841,0.8316228,0.667388379573822,-0.7174895405769348,10.296035766601562,-1.6657673120498657,24.686079025268555, 23.52018165588379
334,642112529,0.46546158,0.18722524,-0.22507755,0.835244,-0.03411921113729477,-1.8726743459701538,9.393718719482422,11.00949478149414,38.80854415893555, 31.241357803344727
335,642129196,0.46229848,0.18045814,-0.22107609,0.83954775,-0.48700472712516785,-2.415667772293091,9.064655303955078,10.816574096679688,51.41224670410156, 37.164432525634766
336,642145863,0.4586951,0.17230189,-0.21640158,0.84444135,-0.8896712064743042,-3.4367377758026123,8.935460090637207,11.724509239196777,61.50517654418945, 42.81296920776367
337,642162530,0.4550247,0.1616232,-0.21165918,0.84972394,0.9820422530174255,-4.514305591583252,8.70874309539795,4.840537071228027,76.59591674804688, 48.041526794433594
338,642179197,0.450857,0.14623746,-0.20969017,0.8552033,5.754199028015137,-6.881466865539551,9.048571586608887,-25.206607818603516,94.84095001220703, 61.42890548706055
339,642195864,0.4445027,0.12598234,-0.2092355,0.86183894,12.492551803588867,-9.104910850524902,8.049302101135254,-45.2458381652832,116.83851623535156, 86.34852600097656
340,642212531,0.4366632,0.102071606,-0.20151904,0.87080234,15.123937606811523,-7.889115810394287,11.371665954589844,-8.592619895935059,160.8113250732422, 101.20944213867188
341,642229198,0.4279815,0.07333553,-0.1815826,0.88231605,17.278593063354492,-5.933699131011963,13.778847694396973,54.329471588134766,227.30979919433594, 112.06504821777344
342,642245865,0.4166798,0.039595272,-0.15159597,0.89544904,18.70194435119629,-9.037510871887207,14.720870971679688,103.99179077148438,285.1629333496094, 134.01693725585938
343,642262532,0.40339643,0.00038901647,-0.11434117,0.9078533,12.789783477783203,-5.8561320304870605,16.53128433227539,133.03073120117188,337.8289794921875, 147.96234130859375
344,642279199,0.39013907,-0.042770095,-0.07748506,0.91649246,3.0711917877197266,-7.414980411529541,19.847766876220703,116.67611694335938,361.6990051269531, 140.53656005859375
345,642295866,0.38445553,-0.072992295,-0.04208335,0.9192907,15.585525512695312,9.735182762145996,4.996160984039307,142.02969360351562,283.05865478515625, 62.89492416381836
346,642312533,0.38346702,-0.10197112,-0.045681734,0.91677064,18.026756286621094,26.97983169555664,-16.708900451660156,-100.4109115600586,176.27972412109375, 0.3969584107398987
347,642329200,0.3752067,-0.13296035,-0.062353656,0.91523427,-3.329131603240967,1.174376368522644,2.940168857574463,-194.47219848632812,151.08596801757812, 46.0154914855957
348,642345867,0.37012383,-0.14080375,-0.047771804,0.91700625,-7.617476940155029,-10.485782623291016,6.125504016876221,66.24462890625,84.29408264160156, 53.1722297668457
349,642362534,0.36686602,-0.14750493,-0.04270483,0.9175119,-2.0238759517669678,5.94679069519043,6.557137966156006,10.754941940307617,54.52728271484375, 28.85736083984375
350,642379201,0.36111447,-0.16050328,-0.054774385,0.91697043,-5.166924953460693,-1.6069495677947998,8.28443431854248,-116.24386596679688,51.34440994262695, 26.374326705932617
351,642395868,0.35671985,-0.1691668,-0.060114074,0.91679865,-7.928194522857666,-2.776080846786499,9.204235076904297,-61.40460205078125,40.74113464355469, 24.527645111083984
352,642412535,0.3550078,-0.172872,-0.059497707,0.91681224,-8.654889106750488,1.6081628799438477,9.330362319946289,-8.481720924377441,24.845382690429688, 12.924749374389648
353,642429202,0.3563301,-0.17538823,-0.06305077,0.91558313,-11.020675659179688,3.2301926612854004,9.640481948852539,-28.85466766357422,9.738442420959473, -14.743370056152344
354,642445869,0.35879096,-0.17410833,-0.06637026,0.91463137,-10.60539436340332,-4.440828800201416,5.592644691467285,-16.726144790649414,-13.63570785522461, -22.683691024780273
355,642462536,0.36362705,-0.16516306,-0.062891036,0.91462636,-9.538424491882324,-1.7321670055389404,6.018911838531494,48.28639602661133,-45.348411560058594, -30.672958374023438
356,642479203,0.36925,-0.1530348,-0.060389373,0.914652,-7.722175598144531,-1.6055324077606201,5.835566997528076,51.01069641113281,-67.70687866210938, -38.064998626708984
357,642495870,0.37550274,-0.13841754,-0.05880701,0.91453826,-6.498062610626221,-0.8907836675643921,7.100010395050049,52.16156768798828,-85.44927978515625, -44.39385986328125
358,642512537,0.38069755,-0.12259308,-0.05931608,0.9146159,-5.024496555328369,-1.049730658531189,7.926033973693848,41.184120178222656,-99.1773452758789, -39.73084259033203
359,642529204,0.38456956,-0.107818775,-0.062282592,0.91465974,-5.460434913635254,-2.007573127746582,10.204108238220215,21.841081619262695,-99.60566711425781, -33.13744354248047
360,642545871,0.38871557,-0.09344778,-0.06588417,0.91423595,-4.563233375549316,-2.4564993381500244,9.29847526550293,16.786815643310547,-98.37934112548828, -36.38945007324219
361,642562538,0.39387858,-0.07515591,-0.06418519,0.91383344,-3.29000186920166,-3.840264081954956,8.732572555541992,61.271236419677734,-108.49894714355469, -41.08056640625
362,642579205,0.39765486,-0.043622617,-0.04929978,0.9151706,-2.53578782081604,-9.032266616821289,8.136323928833008,180.4549560546875,-157.04466247558594, -30.130403518676758
363,642595872,0.4003733,-0.0024719494,-0.032229558,0.91578186,0.22989922761917114,-1.445773720741272,5.879485130310059,219.7491912841797,-212.56214904785156, -22.35875129699707
364,642612539,0.40694553,0.030548686,-0.04228755,0.9119616,4.6920037269592285,12.88973331451416,-12.410173416137695,25.781240463256836,-235.0843505859375, -56.208709716796875
365,642629206,0.42572582,0.06441861,-0.082163274,0.8988088,32.774044036865234,20.628643035888672,-4.505947589874268,-164.65240478515625,-321.9558410644531, -157.35382080078125
366,642645873,0.431687,0.09853077,-0.11401515,0.88934726,13.661338806152344,-30.614856719970703,24.97909164428711,-106.88434600830078,-304.80352783203125, -69.59943389892578
367,642662540,0.4397784,0.13507178,-0.12673649,0.8787995,2.3111329078674316,-3.030164957046509,2.9974818229675293,15.728915214538574,-261.73486328125, -100.8262939453125
368,642679207,0.44398043,0.16356464,-0.14204781,0.86945415,24.67951202392578,-8.298247337341309,19.68199348449707,-19.532976150512695,-223.1616668701172, -64.25312042236328
369,642695874,0.45021975,0.18683778,-0.15478253,0.85932314,37.93737030029297,7.28955078125,24.389122009277344,-22.982290267944336,-182.604736328125, -76.63232421875
370,642712541,0.4590809,0.19935723,-0.1761611,0.8476255,30.57952117919922,-0.3551875948905945,17.582744598388672,-112.60100555419922,-144.487548828125, -74.21101379394531
371,642729208,0.46787122,0.21317717,-0.18895239,0.8366296,14.356768608093262,-1.6562987565994263,15.036608695983887,-57.53988265991211,-123.66568756103516, -84.79731750488281
372,642745875,0.47433642,0.22283949,-0.19687204,0.8286068,1.1771951913833618,-1.2887829542160034,6.641005039215088,-35.63897705078125,-82.66166687011719, -63.543338775634766
373,642762542,0.47935393,0.22799714,-0.20622145,0.82201576,-10.29585075378418,-3.130690574645996,4.072176456451416,-54.31928253173828,-61.52307891845703, -42.326927185058594
374,642779209,0.48262444,0.23113792,-0.21717773,0.816384,-11.814922332763672,-4.086186408996582,3.5636072158813477,-65.90206909179688,-56.68429946899414, -23.962366104125977
375,642795876,0.48413476,0.23510392,-0.22672161,0.81174934,-11.20530891418457,-4.667244911193848,3.1604931354522705,-50.8791389465332,-57.977386474609375, -14.326210975646973
376,642812543,0.4843427,0.24083352,-0.2344804,0.8077317,-8.19681167602539,-4.5505571365356445,5.567408084869385,-31.897769927978516,-63.18721389770508, -10.732170104980469
377,642829210,0.4835478,0.24897313,-0.2385768,0.8045342,-2.3585174083709717,-3.2453768253326416,8.854333877563477,-0.48330625891685486,-64.87921142578125, -12.473409652709961
378,642845877,0.48299712,0.25809437,-0.23842657,0.80203116,2.3576319217681885,-0.019383911043405533,11.039381980895996,27.021421432495117,-54.781837463378906, -20.45257568359375
379,642862544,0.48320913,0.26579273,-0.23508243,0.8003746,5.0943098068237305,0.7896671295166016,13.142261505126953,39.90962219238281,-33.702064514160156, -25.17643165588379
380,642879211,0.48337036,0.2709235,-0.22881268,0.8003739,6.919262886047363,0.7937717437744141,14.240345001220703,50.1976318359375,-7.0185418128967285, -20.567340850830078
381,642895878,0.4834257,0.27265364,-0.22174637,0.8017409,5.656922817230225,-0.279718816280365,13.464048385620117,45.57912826538086,16.62987518310547, -11.546381950378418
382,642912545,0.48274,0.27173504,-0.21606444,0.80401397,3.188649892807007,-0.6843107342720032,11.435370445251465,31.889713287353516,27.09654998779297, 2.1885223388671875
383,642929212,0.48151243,0.26948267,-0.21244566,0.80646867,1.3709585666656494,-1.8552706241607666,11.093857765197754,17.32733726501465,27.044912338256836, 11.61444091796875
384,642945879,0.48016113,0.26642942,-0.21003142,0.80891746,-0.5842999815940857,-3.484279155731201,8.715007781982422,8.22623348236084,27.17022705078125, 15.65361213684082
385,642962546,0.4786979,0.2634343,-0.20748793,0.8114183,-1.3193998336791992,-3.7569422721862793,8.587273597717285,9.457659721374512,27.074373245239258, 16.072229385375977
386,642979213,0.47722006,0.2603773,-0.20490648,0.8139277,-1.089031457901001,-2.4459939002990723,8.258024215698242,9.548855781555176,27.397069931030273, 16.142845153808594
387,642995880,0.4756025,0.25612614,-0.20241877,0.8168404,-0.23072844743728638,-1.194082498550415,9.306829452514648,5.9455413818359375,34.168434143066406, 20.060407638549805
388,643012547,0.47373298,0.24993084,-0.20004119,0.8204237,1.010113000869751,0.460042804479599,10.312784194946289,0.34211859107017517,45.4334602355957, 26.548070907592773
389,643029214,0.47130287,0.24222432,-0.19633383,0.82501775,1.7787491083145142,0.24891752004623413,10.559372901916504,5.235288143157959,59.145484924316406, 32.799922943115234
390,643045881,0.4682967,0.2326187,-0.19195633,0.8305058,1.6817706823349,-2.1112239360809326,9.205460548400879,5.009486198425293,72.7081298828125, 40.41460418701172
391,643062548,0.46461403,0.22069353,-0.18649915,0.83704615,1.486920714378357,-2.719017505645752,7.6787028312683105,6.179851055145264,90.14795684814453, 48.972801208496094
392,643079215,0.4605712,0.20461982,-0.18280455,0.84414905,3.261655807495117,-4.119445323944092,8.174344062805176,-15.936684608459473,108.73528289794922, 60.79777526855469
393,643095882,0.45625442,0.18494336,-0.17917402,0.8517773,5.74741268157959,-3.225616693496704,8.74339771270752,-26.638002395629883,129.8223419189453, 68.61605072021484
394,643112549,0.45111495,0.1620596,-0.17328435,0.86035144,8.913969039916992,-5.790409088134766,8.96147346496582,-21.242387771606445,155.9185333251953, 77.44759368896484
395,643129216,0.44509295,0.13448243,-0.16513225,0.86979204,14.64311408996582,-9.81476879119873,7.226812839508057,-20.33727264404297,190.7227020263672, 88.38973236083984
396,643145883,0.4348969,0.10639667,-0.14347401,0.8825871,18.834209442138672,-11.368623733520508,9.070733070373535,66.71756744384766,233.71636962890625, 111.69121551513672
397,643162550,0.4228575,0.07663606,-0.10845432,0.89641297,21.010650634765625,-4.245489120483398,14.297590255737305,145.38768005371094,283.1273498535156, 117.87193298339844
398,643179217,0.4076717,0.0384822,-0.07128579,0.90952814,18.557662963867188,-5.74405574798584,19.22551918029785,135.4189453125,338.79364013671875, 140.42803955078125
399,643195884,0.39192864,-0.0029075053,-0.03228843,0.9194243,5.061473846435547,-4.869322776794434,25.278350830078125,136.4475860595703,363.36859130859375, 136.0513458251953
400,643212551,0.3822836,-0.0454444,-0.006657693,0.9229028,13.184090614318848,6.709470748901367,14.346781730651855,47.970176696777344,336.32275390625, 75.64915466308594
401,643229218,0.3775779,-0.089085124,-0.014543745,0.92156774,21.959978103637695,24.271812438964844,-8.132827758789062,-166.04568481445312,257.2951354980469, 20.915281295776367
402,643245885,0.36446834,-0.13813016,-0.044816855,0.919823,7.512614727020264,12.020661354064941,2.6776957511901855,-328.59820556640625,232.97930908203125, 64.85771942138672
403,643262552,0.3519598,-0.16667564,-0.040111233,0.92018193,-1.7887635231018066,-15.397551536560059,5.554702281951904,-54.84965896606445,189.23924255371094, 93.22305297851562
404,643279219,0.3437093,-0.18217939,-0.024684355,0.9209046,-1.3988953828811646,4.91610860824585,1.5799682140350342,49.837623596191406,133.39317321777344, 75.90095520019531
405,643295886,0.33675274,-0.19504026,-0.024172504,0.92085433,-5.799558639526367,3.7681362628936768,1.9016871452331543,-36.9565544128418,82.56958770751953, 46.70296096801758
406,643312553,0.33450955,-0.20000994,-0.022624087,0.9206452,-12.45042896270752,0.6312939524650574,6.211355686187744,-5.90154504776001,35.89479446411133, 16.525964736938477
407,643329220,0.3367171,-0.19644378,-0.01642361,0.9207399,-15.054213523864746,3.2023491859436035,7.323227405548096,49.30982208251953,-7.365189552307129, -5.937473297119141
408,643345887,0.34036773,-0.19039655,-0.01598471,0.92067564,-11.876468658447266,5.666049957275391,7.665155410766602,20.42090606689453,-36.277244567871094, -23.58066177368164
409,643362554,0.34375703,-0.18618721,-0.027385103,0.92000854,-10.45466423034668,1.7824774980545044,8.49190616607666,-59.36948776245117,-51.77140426635742, -38.69925308227539
410,643379221,0.34797165,-0.18123132,-0.039463963,0.91897416,-10.192286491394043,-3.251758575439453,9.326889038085938,-60.975006103515625,-57.62258529663086, -45.82872772216797
411,643395888,0.35400453,-0.17253874,-0.042900164,0.918189,-9.846232414245605,-4.303713798522949,9.683444023132324,4.933895587921143,-60.51530075073242, -46.97463607788086
412,643412555,0.3610357,-0.16048086,-0.039007258,0.91781133,-9.3262357711792,-2.5526952743530273,8.826324462890625,60.744300842285156,-64.25178527832031, -44.586978912353516
413,643429222,0.3680299,-0.14730777,-0.03525807,0.91739386,-7.810177803039551,-0.00993470847606659,8.697802543640137,62.57201385498047,-71.7513198852539, -44.91508483886719
414,643445889,0.3737869,-0.13344014,-0.036415704,0.917143,-5.250611305236816,1.0893195867538452,8.385037422180176,32.138668060302734,-89.12993621826172, -41.83371353149414
415,643462556,0.37781253,-0.12030096,-0.043750998,0.91699046,-4.365043640136719,-0.8985062837600708,8.537257194519043,-10.298518180847168,-101.0029067993164, -36.146446228027344
416,643479223,0.38144234,-0.10720742,-0.053841688,0.9165749,-3.758643865585327,-4.323290824890137,11.654288291931152,-28.20289421081543,-107.82646179199219, -36.590049743652344
417,643495890,0.38658664,-0.088146515,-0.060267195,0.91605073,-2.8972606658935547,-4.741953372955322,10.856741905212402,11.671996116638184,-135.21755981445312, -45.909053802490234
418,643512557,0.39323938,-0.06523938,-0.06618717,0.9147273,1.8908607959747314,-1.7422720193862915,10.952627182006836,25.72500228881836,-157.02505493164062, -58.7974739074707
419,643529224,0.40024534,-0.044357195,-0.08267401,0.91159266,2.3545937538146973,-0.9771384000778198,14.31600284576416,-46.83393096923828,-171.76710510253906, -70.07652282714844
420,643545891,0.41343933,-0.005281534,-0.09227205,0.9058291,6.914858818054199,12.192426681518555,-37.153770446777344,46.81085968017578,-262.35345458984375, -125.2320556640625
421,643562558,0.42889634,0.03533367,-0.1268493,0.89370507,52.6384162902832,5.632820129394531,19.701526641845703,-108.3034896850586,-342.23956298828125, -154.20816040039062
422,643579225,0.4352574,0.0675964,-0.1620211,0.88302374,6.259746074676514,-24.975021362304688,24.075788497924805,-133.4856719970703,-298.5072326660156, -90.0280990600586
423,643595892,0.44232273,0.10645719,-0.17170863,0.87380415,18.168132781982422,-6.394397735595703,11.607011795043945,42.713233947753906,-260.79986572265625, -109.18891143798828
424,643612559,0.44624728,0.13953152,-0.17222647,0.8670251,14.222419738769531,0.02639128267765045,8.992058753967285,85.46028137207031,-199.7800750732422, -82.72736358642578
425,643629226,0.45009091,0.15770888,-0.18765505,0.85868025,15.646771430969238,-6.652674198150635,13.634377479553223,-50.954505920410156,-158.12539672851562, -55.03245544433594
426,643645893,0.45568186,0.17367812,-0.20361829,0.84895813,8.015969276428223,-2.8339648246765137,8.552597045898438,-64.5498046875,-145.84144592285156, -66.16453552246094
427,643662560,0.46057567,0.18768087,-0.2137053,0.8408188,2.9469408988952637,-1.667191743850708,5.525511264801025,-33.34468078613281,-114.99414825439453, -61.37457275390625
428,643679227,0.46513495,0.19633421,-0.22284926,0.83393073,1.5013477802276611,-0.8117535710334778,8.276927947998047,-42.55827713012695,-79.98029327392578, -48.82459259033203
429,643695894,0.46996093,0.20195451,-0.23017362,0.8278714,-0.03924168646335602,0.38893842697143555,9.432845115661621,-40.93507385253906,-55.32121276855469, -45.501502990722656
430,643712561,0.474166,0.20706387,-0.23260807,0.82351977,-2.898157835006714,-0.6036248207092285,8.122621536254883,-11.229720115661621,-35.3397102355957, -42.41564178466797
431,643729228,0.47766376,0.21159647,-0.2325751,0.8203494,-3.49597430229187,-2.3467745780944824,7.7948079109191895,3.734581470489502,-23.623973846435547, -37.16500473022461
432,643745895,0.48016948,0.21539368,-0.23323992,0.81770533,-3.8869104385375977,-4.772653579711914,7.831047058105469,-0.3250778615474701,-22.736419677734375, -27.690183639526367
433,643762562,0.48166373,0.22026941,-0.23328185,0.8155127,-2.752256393432617,-5.241962432861328,9.51941967010498,9.002851486206055,-27.849851608276367, -23.233304977416992
434,643779229,0.48179868,0.22629277,-0.2303459,0.814618,-1.842719316482544,-4.349861145019531,12.756502151489258,33.68599319458008,-24.788928985595703, -17.735130310058594
435,643795896,0.48052993,0.23138732,-0.22591396,0.81517726,-1.633913516998291,-1.9154078960418701,13.873510360717773,43.50023651123047,-14.762964248657227, -5.969237804412842
436,643812563,0.47849464,0.2352142,-0.22059812,0.8167336,0.5715733766555786,-0.23970207571983337,12.956071853637695,47.02396011352539,-4.520024299621582, 2.1611461639404297
437,643829230,0.47584814,0.2377867,-0.2143291,0.81920034,2.344050645828247,-0.7615828514099121,11.549489974975586,50.5905876159668,6.073193550109863, 8.953343391418457
438,643845897,0.47239107,0.23855764,-0.20845297,0.8224868,2.660221815109253,-2.066114664077759,10.738591194152832,45.00094985961914,14.992871284484863, 19.4989070892334
439,643862564,0.46897578,0.23819488,-0.20449437,0.8255345,1.3927620649337769,-3.636321783065796,10.731595993041992,30.06855583190918,14.77146053314209, 23.24173355102539
440,643879231,0.46623838,0.23737864,-0.20232378,0.8278517,0.4622310400009155,-3.6877150535583496,10.239315032958984,16.34678077697754,11.245869636535645, 20.568622589111328
441,643895898,0.46417516,0.23530532,-0.20127161,0.82985705,0.7309163212776184,-3.302683115005493,9.544727325439453,4.445304870605469,15.14632511138916, 19.26735496520996
442,643912565,0.46273392,0.23101595,-0.20076446,0.8319873,0.6808373332023621,-1.7285032272338867,9.5713472366333,-6.54749059677124,27.028596878051758, 20.02892303466797
443,643929232,0.4613811,0.22510718,-0.1990884,0.8347563,-0.3847872316837311,-0.2723200023174286,9.734436988830566,-4.271846294403076,41.06423568725586, 21.91620445251465
444,643945899,0.4597798,0.21725294,-0.19657138,0.8383099,-1.2973519563674927,0.07451586425304413,9.37557315826416,-4.1809587478637695,55.6746940612793, 27.189138412475586
445,643962566,0.45813867,0.20720676,-0.19323123,0.84251773,-1.1582671403884888,-0.36266428232192993,9.063329696655273,-5.451793670654297,71.7315673828125, 31.217269897460938
446,643979233,0.45632756,0.19521476,-0.18805915,0.84752023,-0.7478598952293396,-1.9349381923675537,7.9839677810668945,0.30375733971595764,89.58672332763672, 34.67197799682617
447,643995900,0.45493874,0.17969042,-0.18260108,0.8528769,-0.3275708556175232,-2.4898905754089355,8.146031379699707,-9.222346305847168,112.01739501953125, 37.48106002807617
448,644012567,0.45373607,0.16009603,-0.17738178,0.85850376,2.5914711952209473,-4.228835582733154,7.508416175842285,-23.240930557250977,135.64535522460938, 42.60426330566406
449,644029234,0.45111257,0.13764808,-0.17123327,0.8650028,6.752774715423584,-7.484623908996582,7.820504188537598,-23.999069213867188,154.61351013183594, 56.12602233886719
450,644045901,0.44637647,0.11071944,-0.16517112,0.8724724,13.269678115844727,-9.845602035522461,7.949019432067871,-35.19036865234375,179.49700927734375, 77.00679016113281
451,644062568,0.43748277,0.08164484,-0.14926833,0.88298464,18.284854888916016,-11.703532218933105,7.961873531341553,24.002267837524414,220.3596954345703, 106.20613861083984
452,644079235,0.42603824,0.053222813,-0.115595475,0.89571005,22.26468276977539,-5.288346767425537,16.197805404663086,137.75209045410156,268.7795104980469, 117.73265838623047
453,644095902,0.41183373,0.016226597,-0.078538865,0.9077232,22.23307991027832,-5.748535633087158,18.959508895874023,133.97894287109375,329.4090881347656, 138.319091796875
454,644112569,0.3942003,-0.028567392,-0.03658393,0.91785175,12.79674243927002,-7.881420135498047,24.90662384033203,141.9261932373047,390.3055419921875, 158.14794921875
455,644129236,0.38268918,-0.07396209,-0.0022298584,0.92090917,7.712745189666748,0.26728880405426025,18.835102081298828,92.50933837890625,376.8945007324219, 94.86974334716797
456,644145903,0.38058436,-0.11969529,-0.006026734,0.91694725,27.843563079833984,28.053600311279297,-9.772896766662598,-146.09205627441406,282.0735168457031, 1.5612461566925049
457,644162570,0.3640554,-0.17013815,-0.04148695,0.9147653,13.621309280395508,14.315034866333008,-3.583954334259033,-370.48663330078125,227.34274291992188, 71.4002685546875
458,644179237,0.34835723,-0.18884048,-0.026167206,0.9177701,-5.0197529792785645,-23.46975326538086,2.5536322593688965,30.833711624145508,149.05784606933594, 129.50955200195312
459,644195904,0.3400526,-0.19250545,-0.0041062674,0.9204831,-3.409895420074463,9.881354331970215,0.5585929155349731,119.34465026855469,71.93927764892578, 88.23571014404297
460,644212571,0.33417442,-0.19683571,-0.0047322568,0.92171633,-8.640085220336914,1.9060709476470947,6.095139026641846,-22.783044815063477,25.072322845458984, 39.34060287475586
461,644229238,0.33397418,-0.19129393,-0.00061611435,0.92296684,-12.762451171875,2.5320451259613037,10.635309219360352,37.5925178527832,-26.53766632080078, 9.463689804077148
462,644245905,0.33658147,-0.18540165,-0.0055820514,0.9232053,-14.450718879699707,8.70021915435791,13.889713287353516,-15.616862297058105,-48.416290283203125, -22.662353515625
463,644262572,0.33952585,-0.18351696,-0.025714831,0.922162,-12.608455657958984,5.114859104156494,11.919438362121582,-120.96952056884766,-56.58778762817383, -46.999176025390625
464,644279239,0.34310833,-0.1810308,-0.04593361,0.9205406,-10.684818267822266,-1.8747177124023438,9.070222854614258,-119.52910614013672,-59.90218734741211, -52.63697052001953
465,644295906,0.34830624,-0.1733867,-0.054374523,0.91959953,-9.177287101745605,-4.572991847991943,8.761727333068848,-30.587278366088867,-65.22576141357422, -48.234886169433594
466,644312573,0.35476133,-0.16163547,-0.052345335,0.91939026,-8.824655532836914,-4.3367156982421875,8.25481128692627,47.261871337890625,-66.63056945800781, -43.49226379394531
467,644329240,0.36153245,-0.14754522,-0.045911856,0.91946566,-7.684083938598633,-2.1695916652679443,7.102956771850586,81.30355072021484,-70.98416137695312, -40.75175857543945
468,644345907,0.36826226,-0.13026677,-0.039263085,0.91971296,-6.068490505218506,0.5963551998138428,6.715034484863281,90.61608123779297,-90.89067077636719, -40.858367919921875
469,644362574,0.37347582,-0.111686066,-0.03663956,0.9201628,-5.546367645263672,1.604846477508545,7.489588260650635,67.1268310546875,-109.9848403930664, -34.711734771728516
470,644379241,0.3771839,-0.09523447,-0.042432863,0.9202512,-6.339166164398193,0.20915858447551727,9.12601375579834,7.116553783416748,-118.29679870605469, -32.03545379638672
471,644395908,0.38162705,-0.081632435,-0.054223947,0.9191066,-5.920382022857666,0.41470465064048767,10.259438514709473,-38.124916076660156,-114.88020324707031, -42.975093841552734
472,644412575,0.38730255,-0.06764616,-0.06361588,0.9172644,-5.5739336013793945,-2.5931670665740967,8.787378311157227,-21.27559471130371,-109.96973419189453, -52.90276336669922
473,644429242,0.39323965,-0.047161732,-0.06276606,0.9160779,-3.3668928146362305,-4.410478591918945,7.87668514251709,61.00347900390625,-123.95569610595703, -50.892940521240234
474,644445909,0.40040034,-0.023825051,-0.06408301,0.9137863,0.9732836484909058,3.5301311016082764,6.27827262878418,54.7782096862793,-147.29061889648438, -61.46791076660156
475,644462576,0.40934935,0.0009285025,-0.07605383,0.90920204,2.513047695159912,3.9051761627197266,-7.522737503051758,-8.99722671508789,-184.32090759277344, -81.57317352294922
476,644479243,0.43151414,0.059691727,-0.08764395,0.8958522,38.67756652832031,32.0210075378418,-29.58216094970703,84.49514770507812,-389.17340087890625, -206.97683715820312
477,644495910,0.44055453,0.08082701,-0.14286491,0.8825919,24.29385757446289,-37.88921356201172,48.66180419921875,-291.0753173828125,-294.0043640136719, -84.96568298339844
478,644512577,0.45093134,0.12616588,-0.14866771,0.87100005,9.360469818115234,-0.9939842224121094,0.4939289093017578,83.7001953125,-288.6977233886719, -139.3636932373047
479,644529244,0.45680153,0.15021692,-0.17043428,0.86006945,17.243070602416992,-14.963932037353516,17.900691986083984,-73.3339614868164,-214.55007934570312, -74.64049530029297
480,644545911,0.45915383,0.17213643,-0.18587974,0.8514667,32.017738342285156,-4.629170894622803,18.43434715270996,-36.10772705078125,-183.66229248046875, -50.608619689941406
481,644562578,0.46618778,0.1882049,-0.20662309,0.8393777,22.174007415771484,-2.764214038848877,13.905921936035156,-95.576416015625,-163.96957397460938, -75.21925354003906
482,644579245,0.47169012,0.20297967,-0.22149692,0.8290035,10.969353675842285,-1.552507758140564,10.651619911193848,-61.42540740966797,-137.4616241455078, -66.57715606689453
483,644595912,0.47619826,0.21140642,-0.23471297,0.82064164,1.3621833324432373,0.9712672233581543,8.405404090881348,-68.12029266357422,-94.5655517578125, -46.989418029785156
484,644612579,0.47901842,0.21805795,-0.24501438,0.81422365,-5.850332260131836,0.6690930724143982,8.143165588378906,-51.927738189697266,-74.97837829589844, -32.434165954589844
485,644629246,0.48148632,0.22404622,-0.25198877,0.8089969,-8.435553550720215,-0.20765027403831482,7.3036723136901855,-32.97711944580078,-59.278480529785156, -30.399307250976562
486,644645913,0.4831577,0.2304286,-0.25456548,0.80539304,-7.913808345794678,-1.2453844547271729,4.87870454788208,-3.1879045963287354,-45.97465133666992, -28.069000244140625
487,644662580,0.48360363,0.23733072,-0.253458,0.803468,-7.2030487060546875,-3.750519037246704,6.528427600860596,23.822423934936523,-36.24705123901367, -22.484630584716797
488,644679247,0.48330835,0.24505539,-0.24996458,0.8024207,-4.461225509643555,-4.434653282165527,8.04107666015625,42.503150939941406,-32.868099212646484, -20.857229232788086
489,644695914,0.48261747,0.2541412,-0.24344319,0.8020151,-1.3073616027832031,-4.03178596496582,11.207708358764648,65.53105926513672,-30.045244216918945, -24.041236877441406
490,644712581,0.48150653,0.2626949,-0.23575935,0.8022223,1.3993141651153564,-2.756371259689331,13.865878105163574,71.95516967773438,-23.009946823120117, -20.875003814697266
491,644729248,0.47956014,0.26831773,-0.22950724,0.80333954,4.307328701019287,-2.2213399410247803,13.064525604248047,57.34428787231445,-11.413872718811035, -5.936723709106445
492,644745915,0.47659582,0.27046707,-0.22471446,0.8057341,5.764906406402588,-3.3699374198913574,11.130874633789062,41.72732925415039,3.633179187774658, 12.059492111206055
493,644762582,0.47339007,0.27044243,-0.21977419,0.8089883,4.671506404876709,-2.4549996852874756,10.881339073181152,37.215614318847656,17.34469223022461, 19.273521423339844
494,644779249,0.4701253,0.26972514,-0.21365799,0.81276125,1.9214353561401367,-0.8248686194419861,10.487011909484863,42.404232025146484,25.85079574584961, 20.135019302368164
495,644795916,0.46735632,0.26816836,-0.20721446,0.81653285,0.0010137930512428284,-0.28444215655326843,10.658034324645996,40.59165573120117,32.25079345703125, 17.985881805419922
496,644812583,0.4658048,0.2656102,-0.20040984,0.8199471,-0.14318335056304932,-1.3586208820343018,9.837960243225098,36.63480758666992,40.01142501831055, 10.768828392028809
497,644829250,0.46497074,0.2623334,-0.19349116,0.823131,0.31734365224838257,-3.8605687618255615,8.527578353881836,33.349395751953125,44.9072151184082, 6.760733604431152
498,644845917,0.46453097,0.2572402,-0.18839605,0.82616323,0.6098869442939758,-3.4216148853302,8.402945518493652,16.338502883911133,49.538421630859375, 9.713608741760254
499,644862584,0.46422952,0.24915206,-0.18668808,0.82919353,1.6740310192108154,-2.9766993522644043,8.506662368774414,-12.689180374145508,55.8453254699707, 18.758460998535156
500,644879251,0.4636666,0.23859668,-0.1868334,0.8325733,0.7838590145111084,-0.07691985368728638,9.842494010925293,-30.215301513671875,64.21036529541016, 27.675199508666992
501,644895918,0.46252772,0.22550713,-0.18812469,0.8365547,0.9032559990882874,1.5984833240509033,10.42420768737793,-43.15419387817383,75.24315643310547, 38.02314758300781
502,644912585,0.4607175,0.21054798,-0.18803461,0.8414583,1.173291563987732,1.2729458808898926,10.319740295410156,-38.96439743041992,90.8846435546875, 45.10276412963867
503,644929252,0.458831,0.1925633,-0.1863939,0.84714276,1.2697941064834595,-3.3068594932556152,8.444731712341309,-38.50006103515625,114.27649688720703, 49.69269561767578
504,644945919,0.45608863,0.17314196,-0.17900425,0.8543786,4.552459716796875,-5.93120813369751,5.872437477111816,-6.415489196777344,141.70431518554688, 53.76746368408203
505,644962586,0.45206773,0.15010515,-0.17053944,0.86256576,7.813292980194092,-10.433573722839355,6.63196325302124,-8.699660301208496,165.90745544433594, 67.38294219970703
506,644979253,0.44594556,0.121646136,-0.15982625,0.87223303,14.172800064086914,-10.036809921264648,6.499034404754639,-8.213481903076172,204.20079040527344, 88.41675567626953
507,644995920,0.4341502,0.08914205,-0.13874346,0.88561714,19.727739334106445,-10.855558395385742,8.023675918579102,50.51954650878906,257.32379150390625, 129.59527587890625
508,645012587,0.41916335,0.054201707,-0.102337554,0.90049523,21.686660766601562,-1.5082931518554688,17.037830352783203,140.10836791992188,316.07080078125, 146.45089721679688
509,645029254,0.4016708,0.007822208,-0.06495925,0.9134439,21.273958206176758,-4.107073783874512,23.24703025817871,112.73554229736328,387.54864501953125, 164.19491577148438
510,645045921,0.38562712,-0.039197467,-0.023496415,0.92152226,7.068785190582275,-1.6947169303894043,25.139253616333008,134.79986572265625,403.87847900390625, 138.21470642089844
511,645062588,0.38233268,-0.07884169,-0.008963322,0.9206117,22.246219635009766,18.239805221557617,-3.4872794151306152,-14.214710235595703,289.9752197265625, 26.027694702148438
512,645079255,0.378892,-0.119204976,-0.033725113,0.91711164,21.300691604614258,31.73584747314453,-12.081842422485352,-265.9680480957031,192.697509765625, 1.530626893043518
513,645095922,0.3660897,-0.15237737,-0.051287327,0.9165856,-3.2401256561279297,-18.453678131103516,2.681833267211914,-209.2064208984375,161.7283172607422, 72.62022399902344
514,645112589,0.36071414,-0.15251955,-0.025389193,0.919771,-3.4801347255706787,-0.17074818909168243,4.477778434753418,157.24391174316406,61.626487731933594, 69.0374526977539
515,645129256,0.35646513,-0.15430921,-0.021729697,0.9212217,-4.983184337615967,4.05381441116333,4.20440149307251,13.386116981506348,18.869176864624023, 34.544742584228516
516,645145923,0.35446575,-0.15260862,-0.024753548,0.92219955,-8.986640930175781,-2.2156975269317627,9.978694915771484,-18.138093948364258,-18.835132598876953, 11.510821342468262
517,645162590,0.35617894,-0.14424996,-0.022230469,0.9229488,-10.815960884094238,0.9281736612319946,13.297443389892578,37.12471008300781,-46.74769973754883, -7.911159038543701
518,645179257,0.3594928,-0.13691224,-0.024984406,0.9227112,-11.65946102142334,3.8712100982666016,16.385183334350586,2.5299949645996094,-52.07026290893555, -25.57962989807129
519,645195924,0.36345962,-0.13311367,-0.034856334,0.921392,-12.014778137207031,-0.9006485342979431,16.674715042114258,-51.03941345214844,-46.189632415771484, -38.500057220458984
520,645212591,0.3677269,-0.12976113,-0.043148514,0.9198246,-10.519369125366211,-3.6584532260894775,15.698640823364258,-41.957252502441406,-39.231727600097656, -39.48088455200195
521,645229258,0.37195492,-0.12653136,-0.048746426,0.9182937,-8.722419738769531,-4.066046237945557,13.742635726928711,-25.240083694458008,-31.78656768798828, -36.70874786376953
522,645245925,0.37506562,-0.12380498,-0.053980324,0.91710645,-6.982605457305908,-1.9902912378311157,12.43524169921875,-25.063796997070312,-28.431753158569336, -28.30040740966797
523,645262592,0.37589756,-0.123708375,-0.061450005,0.9163084,-8.063984870910645,-4.235247611999512,12.338979721069336,-47.74300003051758,-18.854337692260742, -13.862486839294434
524,645279259,0.37670767,-0.122300014,-0.06528998,0.91589916,-8.611992835998535,-5.73663330078125,10.317621231079102,-21.315095901489258,-18.152095794677734, -10.201262474060059
525,645295926,0.37949032,-0.11753429,-0.061926775,0.9156081,-7.666220664978027,-3.4211361408233643,10.914365768432617,34.50140380859375,-19.93753433227539, -17.783119201660156
526,645312593,0.3832441,-0.11194165,-0.059154566,0.9149284,-8.68726921081543,-2.514389991760254,10.12598705291748,33.5743408203125,-26.03203582763672, -25.750869750976562
527,645329260,0.3876318,-0.09293389,-0.043428008,0.9160891,-3.9266357421875,-4.113569736480713,1.090806007385254,151.67051696777344,-77.5431137084961, -20.378934860229492
528,645345927,0.39366168,-0.0710213,-0.039800797,0.9156432,-0.41787075996398926,10.3287935256958,1.4581224918365479,83.82396697998047,-126.61929321289062, -43.59409713745117
529,645362594,0.39800286,-0.0592446,-0.0678335,0.9129526,1.0218288898468018,3.4301745891571045,2.592289686203003,-144.5283966064453,-147.88589477539062, -51.70089340209961
530,645379261,0.40232125,-0.04842666,-0.1025373,0.9084485,-2.856501817703247,-4.012194633483887,3.65568208694458,-189.5309295654297,-158.76174926757812, -61.6708869934082
531,645395928,0.4217918,0.00503255,-0.112374514,0.899688,17.49850845336914,27.857227325439453,-53.45998764038086,85.6370849609375,-344.587158203125, -189.0146942138672
532,645412595,0.43158087,0.04040495,-0.1472188,0.8890625,45.08937454223633,-13.899030685424805,42.75901412963867,-122.8461685180664,-313.8146667480469, -113.9674301147461
533,645429262,0.4415726,0.08066369,-0.16205007,0.87877584,6.8085479736328125,-17.050634384155273,16.79920196533203,14.255671501159668,-282.6100769042969, -128.17462158203125
534,645445929,0.4468858,0.11449472,-0.16784865,0.87121236,32.391414642333984,-8.51767349243164,22.213476181030273,55.11940383911133,-219.97483825683594, -89.51726531982422
535,645462596,0.45319474,0.13256745,-0.18752743,0.8613211,34.340091705322266,-2.5834665298461914,19.731679916381836,-79.88154602050781,-168.59695434570312, -73.47187805175781
536,645479263,0.46139356,0.14093837,-0.21857783,0.8482195,22.68610191345215,-6.805372714996338,16.80173110961914,-183.35614013671875,-146.78466796875, -71.68975830078125
537,645495930,0.46941006,0.15259075,-0.23757781,0.83661646,4.946323394775391,-2.0020408630371094,10.280409812927246,-100.19002532958984,-126.35759735107422, -82.41448211669922
538,645512597,0.47416422,0.1626333,-0.24679555,0.8293437,-9.1165771484375,0.4088760316371918,5.225398540496826,-38.62675094604492,-86.33055114746094, -57.27195358276367
539,645529264,0.47787002,0.17028047,-0.25107273,0.824383,-14.022110939025879,-1.7318655252456665,4.9664740562438965,-13.189980506896973,-55.90545654296875, -45.224246978759766
540,645545931,0.48182365,0.17823815,-0.2496883,0.82081246,-11.72242259979248,-1.9281179904937744,4.017651557922363,22.028657913208008,-37.20130920410156, -49.27618408203125
541,645562598,0.48524043,0.18741882,-0.24400008,0.8184621,-10.119882583618164,-3.574470281600952,0.3473828434944153,53.126007080078125,-29.428733825683594, -49.62689971923828
542,645579265,0.48683754,0.19720156,-0.23781121,0.8170353,-8.8985013961792,-7.684086799621582,1.7771525382995605,61.87806701660156,-33.118282318115234, -38.02320861816406
543,645595932,0.486406,0.2065599,-0.23400967,0.8160773,-4.803806781768799,-7.090340614318848,4.823083877563477,50.63077163696289,-41.51018524169922, -21.218772888183594
544,645612599,0.48419157,0.21665163,-0.23041427,0.81580025,0.036912765353918076,-5.335768222808838,11.744929313659668,55.61064147949219,-48.299110412597656, -9.898078918457031
545,645629266,0.4815853,0.22584596,-0.22704872,0.815793,6.0757527351379395,-0.9447758197784424,17.220394134521484,52.37124252319336,-44.33427429199219, -5.078442573547363
546,645645933,0.48031604,0.23023663,-0.22607942,0.8155832,10.432831764221191,1.6173545122146606,17.499027252197266,20.611961364746094,-23.61930274963379, -2.013241767883301
547,645662600,0.48000458,0.23014852,-0.22469965,0.8161725,8.596806526184082,-0.44536885619163513,15.153560638427734,7.806875705718994,5.576969146728516, 1.61123788356781
548,645679267,0.4784722,0.22887999,-0.22131872,0.8183501,3.8245391845703125,-1.5686745643615723,11.064501762390137,19.506135940551758,19.40477180480957, 12.379161834716797
549,645695934,0.4769082,0.22515103,-0.22033244,0.82056046,-1.7008934020996094,-1.0550177097320557,10.013944625854492,-1.965705156326294,25.331317901611328, 20.17519187927246
550,645712601,0.47536328,0.22058374,-0.22143716,0.8223978,-5.293148994445801,-2.1049270629882812,8.792937278747559,-17.11330795288086,22.566743850708008, 23.346500396728516
551,645729268,0.47377136,0.21748756,-0.21981625,0.8245732,-4.56484317779541,-2.0188705921173096,8.610810279846191,3.6943295001983643,23.482763290405273, 18.323566436767578
552,645745935,0.4729972,0.21432792,-0.21622267,0.82679206,-1.2905583381652832,-2.2970526218414307,8.921804428100586,13.515401840209961,31.46500587463379, 10.957694053649902
553,645762602,0.4724912,0.20992334,-0.21097355,0.829563,1.5367196798324585,-3.48197603225708,9.066338539123535,19.307106018066406,45.066741943359375, 10.625964164733887
554,645779269,0.47165436,0.20335911,-0.2052523,0.83310187,2.3092522621154785,-2.9918761253356934,9.49139404296875,16.58911895751953,59.505680084228516, 17.4378719329834
555,645795936,0.47070956,0.19333385,-0.20231107,0.83673465,3.0371148586273193,-1.5090774297714233,10.722930908203125,-10.267071723937988,70.26022338867188, 27.115413665771484
556,645812603,0.4695563,0.18100956,-0.20049119,0.8405687,2.473630905151367,-0.39582982659339905,11.022871017456055,-23.611536026000977,79.80284118652344, 33.649505615234375
557,645829270,0.4677059,0.16711901,-0.19680108,0.84533536,0.5145264863967896,-4.0212082862854,8.566248893737793,-15.729582786560059,95.05634307861328, 40.524635314941406
558,645845937,0.46582028,0.15104404,-0.19041786,0.8508457,1.0600306987762451,-4.8792405128479,6.275116443634033,-6.040036678314209,117.18387603759766, 42.95296859741211
559,645862604,0.463859,0.1311058,-0.18595862,0.85619247,3.3978970050811768,-9.11738109588623,6.337521553039551,-29.77794075012207,133.34165954589844, 49.89006423950195
560,645879271,0.46007368,0.10769192,-0.18159759,0.8624135,9.762410163879395,-10.966532707214355,6.56951904296875,-38.60906219482422,151.9650115966797, 67.88652801513672
561,645895938,0.4528991,0.08024059,-0.16987856,0.8715419,15.755537033081055,-12.002952575683594,5.881753444671631,-1.515159249305725,197.20501708984375, 96.72759246826172
562,645912605,0.44085684,0.051604837,-0.14098555,0.88493246,16.92496109008789,-6.217001438140869,12.758062362670898,105.51934051513672,254.65005493164062, 131.07789611816406
563,645929272,0.42593637,0.015192076,-0.104035124,0.89862347,19.316179275512695,1.2096056938171387,17.690902709960938,132.3586883544922,323.9334411621094, 154.24989318847656
564,645945939,0.40735754,-0.032370448,-0.06669626,0.9102547,14.803227424621582,-6.632345199584961,20.658798217773438,100.97265625,391.4058532714844, 178.87074279785156
565,645962606,0.3913031,-0.07727916,-0.02917116,0.9165473,6.836190223693848,-0.9625097513198853,19.24053192138672,108.42231750488281,378.2955322265625, 143.46388244628906
566,645979273,0.3845689,-0.11170522,-0.014869536,0.91619194,25.917903900146484,20.227474212646484,-11.4166259765625,-6.871304512023926,254.55763244628906, 55.83173751831055
567,645995940,0.37235957,-0.145513,-0.025821472,0.9162465,15.557852745056152,26.853008270263672,-6.678345203399658,-168.7380828857422,183.26979064941406, 72.00776672363281
568,646012607,0.3591172,-0.17182314,-0.03177742,0.91678894,-5.087106227874756,-15.551135063171387,5.512395858764648,-119.30827331542969,148.28744506835938, 83.46337890625
569,646029274,0.35464942,-0.1799045,-0.02018535,0.9173064,-2.781808614730835,2.287745475769043,2.8419606685638428,46.879798889160156,78.60382843017578, 44.82990264892578
570,646045941,0.3513326,-0.18603113,-0.024366116,0.9172589,-4.985222339630127,6.053493976593018,3.714653253555298,-46.5190315246582,28.64729118347168, 16.40320587158203
571,646062608,0.3493548,-0.1857776,-0.031810578,0.9178378,-10.627523422241211,-1.5271333456039429,7.063928127288818,-49.9552001953125,-20.096710205078125, 4.22047233581543
572,646079275,0.3502063,-0.1767731,-0.03571644,0.91914696,-11.391261100769043,-0.4592036306858063,9.00025463104248,-2.8306076526641846,-67.22749328613281, -9.284228324890137
573,646095942,0.35377738,-0.16468512,-0.042471986,0.9197372,-12.239395141601562,-0.17612779140472412,11.949557304382324,-10.305068969726562,-92.13095092773438, -32.435638427734375
574,646112609,0.3587941,-0.1525342,-0.051148575,0.9194478,-10.42653751373291,-1.815865397453308,13.758922576904297,-20.950801849365234,-95.88333129882812, -45.921630859375
575,646129276,0.36427158,-0.14130908,-0.057904582,0.9186866,-8.684576034545898,-2.7185096740722656,14.900665283203125,-10.790212631225586,-84.71394348144531, -47.663394927978516
576,646145943,0.36925942,-0.13155738,-0.06103949,0.91794044,-8.564797401428223,-4.061335563659668,14.542572975158691,7.916306495666504,-66.60672760009766, -40.43160629272461
577,646162610,0.3730152,-0.12263262,-0.06103005,0.9176581,-9.241698265075684,-4.2029643058776855,15.101703643798828,24.753128051757812,-54.40287780761719, -28.293493270874023
578,646179277,0.3754512,-0.11421391,-0.060198497,0.91780597,-8.82674789428711,-4.181546688079834,14.036802291870117,27.722047805786133,-50.08779525756836, -17.966550827026367
579,646195944,0.3764895,-0.10654735,-0.060151313,0.9183057,-7.05016565322876,-3.0429587364196777,12.562246322631836,19.894672393798828,-48.289825439453125, -8.551971435546875
580,646212611,0.37608457,-0.100536704,-0.06471286,0.91883904,-5.775339603424072,-3.580535888671875,9.674384117126465,-14.52655029296875,-50.43986129760742, -2.0501627922058105
581,646229278,0.37725374,-0.093036555,-0.07123644,0.91866726,-4.475405693054199,-2.2974624633789062,8.961559295654297,-22.27495002746582,-63.78118133544922, -15.844655990600586
582,646245945,0.38089588,-0.083266266,-0.08068539,0.9173196,-4.784561634063721,1.6563302278518677,15.399001121520996,-33.44422149658203,-83.39668273925781, -39.205528259277344
583,646262612,0.38616967,-0.070052885,-0.09705996,0.9146283,-2.1898322105407715,-0.18839330971240997,8.201937675476074,-68.12899780273438,-121.70381164550781, -58.4208984375
584,646279279,0.39181077,-0.047550026,-0.10749036,0.9125072,5.749101161956787,-0.9057509899139404,5.626785755157471,-5.77644681930542,-164.67547607421875, -61.38970184326172
585,646295946,0.3990324,-0.022756955,-0.120421894,0.90871006,1.3230478763580322,0.03136224299669266,-7.747840404510498,-16.154335021972656,-184.35728454589844, -76.97767639160156
586,646312613,0.41749763,0.028728615,-0.1338981,0.89829934,30.670501708984375,27.29354476928711,-30.310943603515625,50.12674331665039,-342.5211486816406, -187.22999572753906
587,646329280,0.4227704,0.06377945,-0.16443767,0.8889081,28.2550048828125,-30.2774600982666,37.429046630859375,-99.11937713623047,-301.11248779296875, -85.71166229248047
588,646345947,0.43267906,0.109042734,-0.16914386,0.87879974,10.07841682434082,-4.866267204284668,5.521279335021973,85.90997314453125,-283.2864685058594, -139.07272338867188
589,646362614,0.43713862,0.13536473,-0.1853924,0.8696068,25.18703269958496,-7.161299228668213,23.8577880859375,-35.025718688964844,-208.67686462402344, -72.70429992675781
590,646379281,0.4446197,0.14936195,-0.21115638,0.8575649,28.440887451171875,-2.5026488304138184,22.038429260253906,-135.39846801757812,-162.23480224609375, -74.73191833496094
591,646395948,0.45435408,0.16629015,-0.22843592,0.8448237,14.883508682250977,-0.7177625298500061,10.755887031555176,-79.75748443603516,-150.86402893066406, -103.04596710205078
592,646412615,0.4609869,0.17986305,-0.23936501,0.83537114,1.6035891771316528,-3.553924322128296,5.54255485534668,-44.655479431152344,-112.56890869140625, -76.68649291992188
593,646429282,0.4651998,0.1905238,-0.24534848,0.82891136,-6.826883316040039,-1.0457868576049805,4.127185344696045,-17.54613494873047,-80.47127532958984, -54.63225173950195
594,646445949,0.46786523,0.20100841,-0.24609205,0.824704,-7.7567267417907715,-1.0651333332061768,4.502294540405273,17.578235626220703,-62.45981216430664, -45.19172286987305
595,646462616,0.46983424,0.21136756,-0.24265754,0.822008,-7.042028427124023,-2.865776538848877,5.390781879425049,44.38359069824219,-47.49787521362305, -41.965396881103516
596,646479283,0.47098076,0.22139147,-0.23753107,0.8202085,-6.745217323303223,-2.4026265144348145,5.360747814178467,55.56519317626953,-40.30293655395508, -36.35619354248047
597,646495950,0.47128204,0.23040484,-0.23384288,0.8186113,-5.030425548553467,-5.674152374267578,6.133869171142578,45.80841827392578,-40.426483154296875, -27.12356948852539
598,646512617,0.47139198,0.2396193,-0.23108578,0.81668353,-0.6645280122756958,-6.9175615310668945,7.308230876922607,41.023841857910156,-45.487571716308594, -26.019489288330078
599,646529284,0.4709708,0.24868727,-0.22897084,0.81480885,2.4805452823638916,-6.2504119873046875,9.052578926086426,37.94278335571289,-47.55365753173828, -21.630970001220703
600,646545951,0.4700622,0.25513694,-0.22883762,0.81337583,6.2925519943237305,-1.705002784729004,12.776844024658203,19.923681259155273,-39.352867126464844, -10.006377220153809
601,646562618,0.46932027,0.25737014,-0.22954942,0.8129001,7.33430290222168,1.0154746770858765,15.416932106018066,2.7821757793426514,-16.597646713256836, 0.272909939289093
602,646579285,0.46893576,0.25731772,-0.227789,0.8136334,4.564541816711426,1.032419204711914,14.07140064239502,10.47619342803955,6.8103108406066895, 1.4381601810455322
603,646595952,0.46790347,0.25689933,-0.2234681,0.8155558,1.182285189628601,-0.17439447343349457,11.281291007995605,26.605836868286133,18.14271354675293, 4.964791297912598
604,646612619,0.4664611,0.2548947,-0.21975435,0.81801635,-0.30097705125808716,-2.0741279125213623,9.923678398132324,19.638832092285156,25.338359832763672, 12.515231132507324
605,646629286,0.4655078,0.2520633,-0.21682131,0.82021666,-1.4497870206832886,-1.7747540473937988,9.35991096496582,11.349251747131348,27.70029067993164, 11.5365571975708
606,646645953,0.465543,0.2489965,-0.21376683,0.8219334,-2.146254777908325,-2.9613895416259766,8.753129959106445,8.848867416381836,29.98009490966797, 4.546135425567627
607,646662620,0.46577832,0.2455945,-0.2104503,0.8236776,-1.1966381072998047,-3.707164764404297,8.29656982421875,8.96603775024414,32.98186111450195, 3.5276193618774414
608,646679287,0.46571767,0.24102736,-0.20769227,0.8257584,1.3929407596588135,-3.210585832595825,9.197879791259766,3.0751729011535645,37.87189865112305, 8.883844375610352
609,646695954,0.46586916,0.23483302,-0.2054983,0.8280035,2.164593458175659,-2.795834541320801,10.084491729736328,-5.442626953125,45.8364143371582, 11.444031715393066
610,646712621,0.46555576,0.22692865,-0.20285034,0.8310312,2.4022183418273926,-1.4745304584503174,9.700675964355469,-6.471683502197266,57.59219741821289, 18.26508140563965
611,646729288,0.46482906,0.21552128,-0.20200509,0.8346728,2.5800230503082275,-0.045365288853645325,10.489797592163086,-26.487342834472656,72.1840591430664, 30.285011291503906
612,646745955,0.46398136,0.20091088,-0.20247139,0.83866674,2.0638961791992188,1.0727206468582153,10.44405460357666,-43.600318908691406,86.69290161132812, 38.503177642822266
613,646762622,0.4628142,0.18386474,-0.20207283,0.843305,1.8491095304489136,-0.9964823722839355,9.227846145629883,-45.075828552246094,103.90570068359375, 44.60906982421875
614,646779289,0.4613671,0.16566734,-0.19688992,0.8490754,2.716923236846924,-3.725113868713379,7.831311225891113,-19.08588218688965,126.82105255126953, 45.38133239746094
615,646795956,0.45857444,0.14549984,-0.18757968,0.8563604,5.4605183601379395,-9.298266410827637,5.094966888427734,2.3518266677856445,151.315185546875, 55.98516082763672
616,646812623,0.4532975,0.12206086,-0.17530854,0.86538404,11.70673656463623,-11.928519248962402,6.4264302253723145,14.260930061340332,178.49497985839844, 77.2965316772461
617,646829290,0.44458473,0.0947325,-0.15669009,0.87682295,17.17441177368164,-10.955718040466309,6.852108001708984,45.79618453979492,219.4199676513672, 104.58253479003906
618,646845957,0.43149224,0.06564316,-0.12542671,0.8909398,18.02488136291504,-4.412161827087402,14.441755294799805,122.50541687011719,265.9065856933594, 132.83053588867188
619,646862624,0.41595495,0.028562637,-0.08935848,0.9045336,19.081195831298828,1.144033432006836,18.397937774658203,128.9271240234375,326.9697570800781, 151.0329132080078
620,646879291,0.39909232,-0.016812088,-0.049944352,0.9153951,10.265006065368652,-5.555248260498047,20.890283584594727,124.5820083618164,387.0099792480469, 155.9739990234375
621,646895958,0.38790888,-0.055165756,-0.010613011,0.9199842,13.273436546325684,2.5443079471588135,13.6866455078125,142.4034881591797,345.557861328125, 97.7238998413086
622,646912625,0.38652483,-0.08657145,0.0015708697,0.9182057,22.62639808654785,26.67466163635254,-14.528742790222168,-7.73861026763916,232.17974853515625, 9.186779022216797
623,646929292,0.3777497,-0.12297264,-0.018913766,0.9175104,9.536078453063965,19.00674819946289,-3.525057315826416,-232.45606994628906,176.42755126953125, 40.868431091308594
624,646945959,0.36985067,-0.14203519,-0.020180024,0.9179484,-6.8901801109313965,-19.352453231811523,2.715454339981079,-65.44357299804688,116.15750122070312, 52.306304931640625
625,646962626,0.3682044,-0.14155206,-0.008962321,0.91886246,-2.8847343921661377,9.030298233032227,2.3759024143218994,69.44613647460938,24.882587432861328, 23.50714683532715
626,646979293,0.36584502,-0.1432854,-0.01881209,0.91938716,-6.454355239868164,0.9108940958976746,5.571646213531494,-70.08492279052734,-14.141655921936035, 6.6607232093811035
627,646995960,0.36608878,-0.13765723,-0.02762015,0.9199276,-8.774754524230957,-2.215597152709961,9.866836547851562,-42.43552017211914,-57.787593841552734, -9.677668571472168
628,647012627,0.36798063,-0.12671165,-0.033617623,0.92054576,-8.775372505187988,-0.20715320110321045,12.525568962097168,-9.692306518554688,-84.1724624633789, -18.256845474243164
629,647029294,0.3715905,-0.114529565,-0.039979264,0.9204376,-10.193803787231445,-0.3492814302444458,15.844103813171387,-7.560877799987793,-91.95417785644531, -31.569517135620117
630,647045961,0.37616214,-0.10464978,-0.051086485,0.9192066,-9.596940994262695,-1.9794189929962158,17.00271224975586,-43.05323028564453,-88.4363784790039, -43.62672424316406
631,647062628,0.3796173,-0.09937505,-0.06393462,0.9175662,-7.7959089279174805,-5.359506607055664,16.114994049072266,-66.92328643798828,-64.00395965576172, -37.26475143432617
632,647079295,0.38090327,-0.09719566,-0.074771255,0.9164469,-6.7069993019104,-6.191839694976807,13.95208740234375,-62.74681091308594,-39.962459564208984, -22.29994010925293
633,647095962,0.38013244,-0.095638774,-0.08251003,0.9162666,-6.163784503936768,-6.247672080993652,12.424778938293457,-45.75069046020508,-29.61730194091797, -4.482948303222656
634,647112629,0.378518,-0.092237666,-0.08665418,0.91690105,-6.887674331665039,-5.362479209899902,10.55848503112793,-18.429340362548828,-32.93185043334961, 4.498656749725342
635,647129296,0.37691,-0.0852685,-0.087349266,0.91817117,-6.580117225646973,-6.839767932891846,11.02669906616211,12.930930137634277,-46.95253372192383, 6.357208728790283
636,647145963,0.3764812,-0.07337148,-0.0849764,0.91959655,-5.960712909698486,-6.298158168792725,12.171533584594727,45.5850944519043,-69.84803009033203, -0.691124439239502
637,647162630,0.37804985,-0.06192726,-0.0900427,0.9193127,-3.0913076400756836,1.7121286392211914,13.547563552856445,-2.779038906097412,-84.46246337890625, -20.39812469482422
638,647179297,0.38046867,-0.055549942,-0.11044048,0.9164937,-0.6181028485298157,1.732504963874817,10.654572486877441,-114.18043518066406,-90.78018951416016, -35.44524002075195
639,647195964,0.38396126,-0.04424724,-0.12690689,0.91351545,0.7248304486274719,-4.735743045806885,9.099225044250488,-76.25347900390625,-110.6258773803711, -44.98750686645508
640,647212631,0.3891921,-0.026524644,-0.13601242,0.9106738,1.3900564908981323,-3.458914279937744,12.183053016662598,-12.510274887084961,-130.34376525878906, -57.848567962646484
641,647229298,0.40190208,0.013781174,-0.12936099,0.90639436,3.29722261428833,19.495922088623047,-46.41133117675781,146.66651916503906,-222.58729553222656, -125.94337463378906
642,647245965,0.4172336,0.057561137,-0.15237322,0.8940837,56.242034912109375,8.21552562713623,10.111284255981445,-35.878841400146484,-325.0173645019531, -163.18685913085938
643,647262632,0.42746192,0.095284805,-0.17160933,0.88246673,-2.891911029815674,-19.090408325195312,24.748998641967773,-27.511310577392578,-280.6213073730469, -128.07171630859375
644,647279299,0.4360945,0.13242385,-0.17047338,0.87362725,15.391464233398438,-3.3694350719451904,11.83973217010498,98.85420989990234,-217.31895446777344, -122.95287322998047
645,647295966,0.43793732,0.15912351,-0.17741145,0.86684257,23.011463165283203,-6.274887561798096,7.6141886711120605,27.636899948120117,-184.78173828125, -56.38534164428711
646,647312633,0.43911466,0.17531593,-0.19345812,0.85966074,25.238788604736328,-7.046610355377197,22.06460189819336,-58.006038665771484,-150.646240234375, -30.83216094970703
647,647329300,0.4448637,0.18756695,-0.21586645,0.84871477,16.26915740966797,-1.8675347566604614,16.46621322631836,-118.01008605957031,-144.90408325195312, -56.29714584350586
648,647345967,0.45077315,0.2000311,-0.2284261,0.8394122,4.222352027893066,1.9809373617172241,6.62802267074585,-57.66130447387695,-113.61148834228516, -65.17778778076172
649,647362634,0.4554187,0.20715937,-0.23859774,0.8323161,-7.443247318267822,-1.484391689300537,5.3357648849487305,-55.24034118652344,-74.37450408935547, -45.90594482421875
650,647379301,0.45935372,0.21375796,-0.24385099,0.8269454,-13.329401016235352,0.8581357002258301,5.910029411315918,-24.91084861755371,-54.74957275390625, -42.583885192871094
651,647395968,0.46232915,0.22251594,-0.24085958,0.82384783,-9.45876693725586,-1.423681616783142,6.555102348327637,33.98911666870117,-39.40480422973633, -45.6926383972168
652,647412635,0.46467113,0.23197897,-0.23350316,0.82203573,-4.590267181396484,-2.6750881671905518,5.6979079246521,64.05228424072266,-28.72196388244629, -45.885345458984375
653,647429302,0.46645352,0.24060933,-0.22579305,0.8206985,0.02473517507314682,-5.136725902557373,7.59826135635376,65.05433654785156,-23.09636116027832, -40.460357666015625
654,647445969,0.46771526,0.24578133,-0.22376895,0.8190002,2.826564073562622,-5.896948337554932,8.641376495361328,22.20351219177246,-23.26674461364746, -23.94286346435547
655,647462636,0.46817464,0.24909249,-0.22450294,0.81753534,3.233445882797241,-4.392010688781738,11.675596237182617,2.433525800704956,-22.527353286743164, -11.191814422607422
656,647479303,0.46823162,0.25176522,-0.22475731,0.8166137,4.304725170135498,-0.45138177275657654,14.129073143005371,4.618494033813477,-17.132587432861328, -7.042220115661621
657,647495970,0.46726584,0.2523714,-0.22554688,0.8167619,3.4528164863586426,1.1263813972473145,13.5965576171875,-1.6264965534210205,-7.037654399871826, 6.2767333984375
658,647512637,0.46485546,0.25147277,-0.22518529,0.8185123,2.242213010787964,-0.7977622747421265,11.507731437683105,4.973539352416992,5.590793132781982, 19.897172927856445
659,647529304,0.46243176,0.24970993,-0.22335458,0.8209231,0.797467827796936,-1.3827069997787476,10.321718215942383,11.517239570617676,16.21654510498047, 20.88593292236328
660,647545971,0.46078548,0.24680685,-0.22094525,0.82337505,-0.841034471988678,-1.9836562871932983,9.605677604675293,9.883330345153809,25.700037002563477, 17.384225845336914
661,647562638,0.45950517,0.2437318,-0.21738361,0.82595056,-1.0774211883544922,-2.4850242137908936,8.728378295898438,15.429930686950684,31.026411056518555, 14.001540184020996
662,647579305,0.4585481,0.23999664,-0.2137404,0.8285231,-0.5062506794929504,-3.2700676918029785,8.4352445602417,13.266895294189453,35.45246887207031, 12.992223739624023
663,647595972,0.45805296,0.23493339,-0.21126942,0.83087844,0.3812052011489868,-3.125162363052368,8.820457458496094,1.3318365812301636,39.59166717529297, 13.541766166687012
664,647612639,0.45753485,0.2286202,-0.20935373,0.83340603,0.9420250058174133,-3.308694362640381,8.671612739562988,-5.480266571044922,45.18306350708008, 16.909164428710938
665,647629306,0.4569682,0.22006981,-0.20925967,0.8360382,1.006570816040039,-2.263899326324463,9.4453763961792,-22.719226837158203,52.327762603759766, 23.578678131103516
666,647645973,0.45633715,0.20938198,-0.20952864,0.8390551,1.9096702337265015,-0.5545246005058289,9.760595321655273,-30.869747161865234,63.92201232910156, 28.769533157348633
667,647662640,0.45544782,0.1955734,-0.20998555,0.84274805,3.5018272399902344,-0.47121766209602356,10.071894645690918,-40.41460418701172,81.90258026123047, 37.14816665649414
668,647679307,0.45329338,0.17929111,-0.20904462,0.8477501,4.830961227416992,-3.368119716644287,8.900477409362793,-36.488426208496094,100.52745819091797, 50.27373504638672
669,647695974,0.4503749,0.16161871,-0.20415713,0.8540269,4.787561893463135,-4.769022464752197,7.759419918060303,-15.040054321289062,121.40665435791016, 55.81584548950195
670,647712641,0.44681054,0.141258,-0.19846065,0.8608251,5.071163654327393,-7.754171848297119,6.319052696228027,-17.14960289001465,139.3845672607422, 64.07237243652344
671,647729308,0.44191012,0.11844085,-0.19163008,0.8683117,7.218785285949707,-7.620358467102051,7.227637767791748,-15.703629493713379,156.2827911376953, 76.30291748046875
672,647745975,0.43467948,0.09084997,-0.18084954,0.8775499,11.472753524780273,-9.109258651733398,6.195343494415283,-2.376746892929077,195.19810485839844, 98.58304595947266
673,647762642,0.42354056,0.06200765,-0.15438327,0.89046866,14.078536987304688,-5.879231929779053,10.404463768005371,95.63367462158203,247.19485473632812, 124.91984558105469
674,647779309,0.409468,0.026245061,-0.11686156,0.9044284,15.555325508117676,-0.7733904123306274,15.624814987182617,145.6002197265625,319.27215576171875, 148.59664916992188
675,647795976,0.39249617,-0.019767392,-0.078718476,0.9161656,18.10704231262207,-5.370790958404541,18.739992141723633,119.33019256591797,382.22802734375, 168.57066345214844
676,647812643,0.37686855,-0.066193156,-0.042266045,0.9229312,9.685327529907227,-5.832244873046875,18.159650802612305,105.4345474243164,382.10540771484375, 144.84005737304688
677,647829310,0.37360686,-0.09456121,-0.015497257,0.9226245,21.307878494262695,16.26597023010254,-6.6717987060546875,94.19901275634766,248.95504760742188, 39.450927734375
678,647845977,0.36862016,-0.12449205,-0.034388356,0.9205642,18.90226173400879,33.35459518432617,-13.600214004516602,-201.19979858398438,142.601806640625, 17.127857208251953
679,647862644,0.35903826,-0.15050365,-0.059032444,0.9192146,-7.699896335601807,-13.620359420776367,4.120397567749023,-231.7923126220703,101.64900970458984, 42.24141311645508
680,647879311,0.357151,-0.14853495,-0.047681697,0.9209272,-3.8086650371551514,-3.3001530170440674,2.878412961959839,74.16333770751953,13.541501998901367, 27.037050247192383
681,647895978,0.35766077,-0.14324784,-0.049128693,0.9214908,-3.7296559810638428,5.106236457824707,5.155759334564209,3.3803746700286865,-36.96470260620117, -5.130275249481201
682,647912645,0.35999778,-0.13326071,-0.056330588,0.92166716,-8.272806167602539,-2.2733314037323,11.578767776489258,-19.92078399658203,-79.92666625976562, -24.910831451416016
683,647929312,0.36466622,-0.11686437,-0.05888669,0.9218969,-9.014410018920898,-3.0850014686584473,15.120391845703125,27.539119720458984,-108.24761199951172, -37.782569885253906
684,647945979,0.37042528,-0.09904411,-0.058880735,0.9216879,-9.198260307312012,-2.122856378555298,18.654150009155273,48.047691345214844,-110.11615753173828, -44.3193473815918
685,647962646,0.37578663,-0.084511355,-0.059133127,0.9209483,-8.864335060119629,-4.22275447845459,21.229463577270508,37.799217224121094,-89.62297821044922, -42.908084869384766
686,647979313,0.37946507,-0.075332366,-0.05908262,0.92023957,-8.871140480041504,-5.889379978179932,21.407394409179688,25.10031509399414,-55.565093994140625, -30.587608337402344
687,647995980,0.38089207,-0.07276083,-0.061399203,0.91970515,-7.49911642074585,-4.500314712524414,18.617355346679688,-8.16969108581543,-20.974227905273438, -14.60690975189209
688,648012647,0.3797132,-0.07641056,-0.0687166,0.91937894,-6.392228603363037,-3.3490214347839355,15.125411987304688,-57.25587463378906,4.057579040527344, 2.3821046352386475
689,648029314,0.37632874,-0.083755754,-0.07908568,0.91929704,-7.346797466278076,-4.9600911140441895,12.327641487121582,-87.15152740478516,18.3372859954834, 16.80644416809082
690,648045981,0.3729138,-0.088078536,-0.08423389,0.9198272,-7.74273681640625,-7.991060256958008,9.748128890991211,-46.03388595581055,12.310175895690918, 20.14412498474121
691,648062648,0.3720914,-0.0853082,-0.081400156,0.9206762,-6.4659600257873535,-4.473498344421387,9.857673645019531,24.234098434448242,-11.0203275680542, 6.079439163208008
