PacketCounter,SampleTimeFine,Quat_W,Quat_X,Quat_Y,Quat_Z,Acc_X,Acc_Y,Acc_Z,Gyr_X,Gyr_Y,Gyr_Z 
1,667360979,0.06568911,0.044542886,-0.056385573,0.99524957,-0.1687331348657608,0.12188740074634552,-0.199072003364563,1.3354567289352417,-0.0481455959379673, 0.555391788482666
2,667377646,0.06645346,0.042894136,-0.059049293,0.9951167,1.2104328870773315,-1.187638521194458,9.474525451660156,-6.623491287231445,29.949045181274414, -1.1520243883132935
3,667394313,0.06750493,0.041584227,-0.06151061,0.9949524,1.1439687013626099,-1.2918089628219604,9.701037406921387,-6.297720432281494,29.431610107421875, -1.430588960647583
4,667410980,0.069352984,0.039962508,-0.06388041,0.99474263,1.2546474933624268,-1.1957988739013672,9.858113288879395,-6.804185390472412,26.29845428466797, -2.4557137489318848
5,667427647,0.07145752,0.038956556,-0.06526864,0.99454325,1.2549540996551514,-1.160965919494629,10.097718238830566,-5.204996585845947,21.782854080200195, -3.1133315563201904
6,667444314,0.07360274,0.038422547,-0.065438576,0.9943963,0.9650078415870667,-1.4826514720916748,9.89180850982666,-0.5096420049667358,17.231107711791992, -2.687722682952881
7,667460981,0.07546177,0.037454892,-0.064861014,0.9943319,0.9204440712928772,-1.184342861175537,9.657979011535645,7.011144161224365,15.638854026794434, -3.1364831924438477
8,667477648,0.077232584,0.036156077,-0.06370812,0.9943185,1.0410021543502808,-0.7416626214981079,9.504414558410645,9.150422096252441,15.421353340148926, -2.8691635131835938
9,667494315,0.079005435,0.03504742,-0.06236875,0.9943038,1.1207553148269653,-0.1224474236369133,9.465242385864258,6.528317451477051,13.832001686096191, -2.9214510917663574
10,667510982,0.0806856,0.03405074,-0.06114768,0.9942793,1.0894261598587036,-0.14263582229614258,9.435006141662598,0.20380675792694092,13.1947021484375, -2.093134880065918
11,667527649,0.08200515,0.032957483,-0.060128428,0.9942704,0.49151507019996643,-0.7727921605110168,9.685564041137695,-3.7237298488616943,13.552719116210938, -0.1748708337545395
12,667544316,0.0831568,0.031356778,-0.058383558,0.9943306,0.4119299054145813,-1.3603017330169678,9.264632225036621,2.5084779262542725,14.581442832946777, 1.0661486387252808
13,667560983,0.08425004,0.028929304,-0.056676995,0.9944109,0.10875716805458069,-0.8810391426086426,8.857684135437012,5.172933101654053,18.471996307373047, 0.8093175292015076
14,667577650,0.08529219,0.025580049,-0.05533732,0.99448925,0.21545666456222534,-0.7908909320831299,8.842752456665039,3.1493496894836426,22.694320678710938, 1.3128646612167358
15,667594317,0.08626231,0.021389136,-0.05455417,0.99454784,0.22331830859184265,-0.7174839377403259,9.341371536254883,-0.6416510343551636,27.39342498779297, 1.4323492050170898
16,667610984,0.08713417,0.016710075,-0.054189574,0.9945812,0.13366788625717163,-0.923616349697113,9.59777545928955,-3.66457462310791,30.104080200195312, 1.8086528778076172
17,667627651,0.08815451,0.011687594,-0.053464122,0.9946023,0.07713128626346588,-1.2975411415100098,9.378992080688477,-0.9277849197387695,32.44800567626953, 0.7702983021736145
18,667644318,0.08943077,0.0060742353,-0.052194826,0.99460596,0.10673646628856659,-0.8381795883178711,9.082691192626953,3.457340955734253,36.89960861206055, -1.5841788053512573
19,667660985,0.09086187,0.00003990104,-0.051157806,0.9945488,-0.02329457551240921,-0.9253939390182495,8.921323776245117,1.6962682008743286,39.88896560668945, -2.6979031562805176
20,667677652,0.091662124,-0.0064087636,-0.05018635,0.99450415,-0.16212426126003265,-0.9393553733825684,9.097455978393555,1.2237892150878906,43.10292434692383, -3.3402767181396484
21,667694319,0.09231019,-0.013401938,-0.049511947,0.9944083,-0.21782150864601135,-1.276434302330017,9.378387451171875,-0.9279424548149109,46.66822814941406, -2.2419097423553467
22,667710986,0.093009405,-0.02085766,-0.04803502,0.9942874,-0.06284339725971222,-1.399717926979065,9.437190055847168,4.813726425170898,50.50800323486328, -2.3513567447662354
23,667727653,0.09356492,-0.029132247,-0.045787983,0.99413306,-0.05052608251571655,-0.907586395740509,8.91614055633545,10.078274726867676,56.98699188232422, -0.9535465240478516
24,667744320,0.09420972,-0.038249224,-0.04429377,0.9938308,0.10922728478908539,-0.051328156143426895,9.063774108886719,4.3935933113098145,62.79497146606445, -1.499388337135315
25,667760987,0.09447027,-0.047857262,-0.04353944,0.99342316,-0.37097156047821045,-0.4843266010284424,9.132004737854004,-1.8282113075256348,66.24207305908203, 1.0233263969421387
26,667777654,0.09453309,-0.058057148,-0.04289873,0.99290115,-0.4113050699234009,-0.5465601086616516,9.384981155395508,-3.3070931434631348,70.47138977050781, 2.431770086288452
27,667794321,0.094213545,-0.06879929,-0.042564,0.99225956,-0.9695048928260803,-0.7841931581497192,9.492005348205566,-6.082482814788818,74.2570571899414, 5.001407146453857
28,667810988,0.09368039,-0.07929692,-0.04110337,0.9915878,-1.3146154880523682,-0.9220606684684753,9.627429962158203,1.6817939281463623,73.31450653076172, 6.886162757873535
29,667827655,0.092923194,-0.08941316,-0.039116886,0.9908787,-1.408760666847229,-0.7418192028999329,9.26189136505127,5.488625526428223,70.96971893310547, 8.559886932373047
30,667844322,0.091990426,-0.099151745,-0.037418082,0.9901045,-1.546952724456787,-0.1656872034072876,9.451814651489258,3.66182541847229,68.20160675048828, 9.418745994567871
31,667860989,0.09078663,-0.10786773,-0.036463488,0.9893396,-2.1729047298431396,-0.5430386662483215,10.149527549743652,-1.232653260231018,60.73799133300781, 10.426268577575684
32,667877656,0.089564554,-0.1145231,-0.03591505,0.9887228,-2.8945610523223877,-1.2223060131072998,10.91162395477295,-2.7629153728485107,46.23812484741211, 9.778615951538086
33,667894323,0.08863066,-0.11836303,-0.03521767,0.9883798,-3.6152498722076416,-1.9581245183944702,11.178327560424805,0.5015428066253662,26.765296936035156, 7.4214982986450195
34,667910990,0.08813701,-0.11914258,-0.034393057,0.98835933,-3.8670177459716797,-2.0417635440826416,11.34982681274414,4.171214580535889,5.415249347686768, 4.057647705078125
35,667927657,0.08791465,-0.11725814,-0.033552807,0.9886333,-3.500567674636841,-1.5881527662277222,10.764551162719727,6.64462423324585,-13.321353912353516, 1.8418296575546265
36,667944324,0.08782305,-0.11372584,-0.033038277,0.9890713,-2.817348003387451,-1.0404998064041138,9.821146011352539,5.815293788909912,-25.132368087768555, 0.4395853877067566
37,667960991,0.08773366,-0.109253146,-0.032483052,0.98960173,-2.4433376789093018,-0.9366568922996521,9.908443450927734,6.7292938232421875,-31.689285278320312, 0.2992790639400482
38,667977658,0.08775246,-0.104101166,-0.031115225,0.99019915,-2.2796740531921387,-0.9503046870231628,9.343419075012207,12.771857261657715,-35.835113525390625, 0.06606188416481018
39,667994325,0.08815157,-0.09915461,-0.028796522,0.99074143,-1.8469828367233276,-0.9168968200683594,9.783461570739746,19.418874740600586,-33.74799728393555, -1.821853756904602
40,668010992,0.08824571,-0.09539214,-0.026665065,0.9911621,-1.9554603099822998,-0.7704270482063293,9.2755708694458,17.218236923217773,-25.641700744628906, 0.3066042363643646
41,668027659,0.087879576,-0.0916128,-0.026417648,0.9915577,-1.9474753141403198,-0.5395578742027283,8.893857955932617,4.086357116699219,-26.939563751220703, 2.1930742263793945
42,668044326,0.087466806,-0.08747604,-0.0264637,0.9919663,-1.531294345855713,-0.9102013111114502,9.189278602600098,2.226576566696167,-29.58305549621582, 2.2584261894226074
43,668060993,0.08722123,-0.08321308,-0.026115049,0.9923639,-1.291711688041687,-0.5890954732894897,8.973563194274902,5.1498918533325195,-30.07002067565918, 1.3409252166748047
44,668077660,0.086995006,-0.0791615,-0.026062982,0.9927166,-1.3372374773025513,-0.6642409563064575,9.232341766357422,2.974853515625,-28.654842376708984, 1.0524097681045532
45,668094327,0.08699661,-0.075137965,-0.025824875,0.9930354,-1.4066777229309082,-0.5561559796333313,8.929112434387207,4.338706970214844,-28.204540252685547, -0.4137871265411377
46,668110994,0.08712674,-0.07118755,-0.026005032,0.9933102,-1.5671371221542358,-0.6486912369728088,9.149374961853027,1.4724844694137573,-27.877178192138672, -1.5231784582138062
47,668127661,0.08737023,-0.06696799,-0.02608279,0.99358016,-1.4429137706756592,-0.965513288974762,9.602147102355957,2.3848891258239746,-29.64853286743164, -2.300936698913574
48,668144328,0.0876985,-0.06252411,-0.025856664,0.9938467,-1.2134648561477661,-0.7211025953292847,9.9948091506958,4.697264194488525,-30.972097396850586, -2.7764265537261963
49,668160995,0.08800331,-0.057832457,-0.025239073,0.9941197,-1.0558390617370605,-0.6240878105163574,9.669719696044922,7.513086318969727,-32.38529968261719, -2.486119031906128
50,668177662,0.08830838,-0.0530187,-0.024282921,0.9943847,-1.0798941850662231,-0.2982078790664673,9.027600288391113,9.887484550476074,-32.959964752197266, -2.3789684772491455
51,668194329,0.088659234,-0.04833375,-0.023469372,0.99461174,-0.9763510227203369,-0.4399660527706146,8.877156257629395,8.780279159545898,-32.13453674316406, -2.750507116317749
52,668210996,0.08930159,-0.04399371,-0.023108209,0.9947643,-0.6899896860122681,-0.1904515027999878,9.524909973144531,5.536940097808838,-29.96981430053711, -4.888008117675781
53,668227663,0.089831166,-0.040369447,-0.02237267,0.9948871,-0.5013415813446045,-0.7546337246894836,10.126519203186035,7.5467305183410645,-24.79470443725586, -3.911978006362915
54,668244330,0.09097404,-0.03645282,-0.016622368,0.99504715,-0.3788968324661255,-1.3316963911056519,10.086454391479492,42.239158630371094,-23.53057098388672, -6.728243350982666
55,668260997,0.09278367,-0.03370144,-0.009300491,0.9950723,0.02187485806643963,0.36365142464637756,8.318222999572754,52.55926513671875,-14.380584716796875, -10.829345703125
56,668277664,0.09602508,-0.031783685,0.003754302,0.99486434,-0.0037386585026979446,-0.9039167761802673,9.334755897521973,91.44564819335938,-4.758064270019531, -19.38861656188965
57,668294331,0.100720376,-0.029529395,0.021810722,0.9942372,-0.9646822214126587,-0.6173146367073059,9.906238555908203,126.33573150634766,-3.59208607673645, -28.500436782836914
58,668310998,0.1049721,-0.02697694,0.038470287,0.99336463,-0.7214421033859253,1.009831190109253,9.612798690795898,117.0557861328125,-6.5273051261901855, -25.87204933166504
59,668327665,0.10755314,-0.024064075,0.050915785,0.99260306,-0.6581026315689087,1.2850918769836426,9.806737899780273,88.09687042236328,-11.618215560913086, -15.058572769165039
60,668344332,0.108880624,-0.020913681,0.059943564,0.9920255,-0.5346921682357788,1.5791480541229248,9.120485305786133,64.59138488769531,-15.36111068725586, -6.86083984375
61,668360999,0.10955327,-0.017894479,0.06576779,0.99164134,-0.9503445625305176,1.9816820621490479,8.912445068359375,42.36860275268555,-16.617856979370117, -2.769662380218506
62,668377666,0.10969355,-0.015495948,0.069791585,0.99139124,-1.0779403448104858,1.3069102764129639,9.191764831542969,29.36561393737793,-13.579519271850586, 0.46900224685668945
63,668394333,0.109583706,-0.014243267,0.07303068,0.99118876,-1.173109531402588,1.3654330968856812,8.271509170532227,23.090757369995117,-6.326605796813965, 1.577944040298462
64,668411000,0.10905772,-0.01465623,0.07365571,0.9911946,-1.090574026107788,1.215548038482666,7.338259696960449,3.848282814025879,3.147160530090332, 3.490755081176758
65,668427667,0.10819878,-0.016848626,0.07164604,0.9914011,-1.0484118461608887,0.7670305967330933,7.4255499839782715,-15.596492767333984,13.362005233764648, 4.758225917816162
66,668444334,0.107210346,-0.020944014,0.06818079,0.9916747,-0.3445153832435608,0.6876642107963562,8.68911075592041,-26.943435668945312,25.234336853027344, 4.593538284301758
67,668461001,0.10593698,-0.026433906,0.06362062,0.9919834,0.15469956398010254,0.7338014841079712,10.022522926330566,-35.43250274658203,34.09810256958008, 5.7460856437683105
68,668477668,0.10363636,-0.033605967,0.057514664,0.99238217,0.44233188033103943,-0.06395664811134338,11.797598838806152,-47.36395263671875,44.99212646484375, 11.797463417053223
69,668494335,0.101071335,-0.04033237,0.054296117,0.99257755,-1.2013275623321533,0.842963695526123,6.379508018493652,-27.158226013183594,44.32786560058594, 14.283047676086426
70,668511002,0.1001057,-0.044607345,0.051172234,0.9926583,-0.949309229850769,1.6346640586853027,6.582154750823975,-24.354230880737305,27.02753448486328, 4.236571311950684
71,668527669,0.09984238,-0.04676145,0.048246045,0.9927322,-0.6640494465827942,1.0936040878295898,10.307686805725098,-21.451452255249023,12.416213035583496, 0.2356949895620346
72,668544336,0.099980175,-0.04766945,0.043816447,0.9928807,-0.8892099261283875,1.8429133892059326,14.646749496459961,-30.774967193603516,2.77529239654541, -2.531554937362671
73,668561003,0.1002128,-0.04757944,0.038549364,0.99307996,-1.7054952383041382,0.2204243540763855,14.655172348022461,-35.862953186035156,-4.580173492431641, -3.136059284210205
74,668577670,0.10020162,-0.04554331,0.040449407,0.99310094,-0.593758225440979,-0.6363301873207092,11.407305717468262,14.473608016967773,-12.822270393371582, 1.2759430408477783
75,668594337,0.10079804,-0.04164676,0.04178122,0.9931566,-0.5526019334793091,3.6228833198547363,10.616571426391602,12.207119941711426,-26.030879974365234, -2.4990129470825195
76,668611004,0.100823924,-0.037101902,0.041563217,0.9933432,-0.2942401170730591,2.2370707988739014,8.84618091583252,1.563372254371643,-31.351587295532227, 1.2072393894195557
77,668627671,0.09996563,-0.03314586,0.03769787,0.9937239,-0.3370186984539032,2.083256483078003,8.477264404296875,-24.196971893310547,-29.60398292541504, 6.257055759429932
78,668644338,0.09831616,-0.030902514,0.031632982,0.9941722,-0.5198162198066711,1.3826762437820435,8.186600685119629,-40.74364471435547,-19.190305709838867, 10.739530563354492
79,668661005,0.09725962,-0.029582791,0.027776895,0.99443144,-0.9440560340881348,1.7302874326705933,7.359475612640381,-26.182697296142578,-11.463919639587402, 6.855317115783691
80,668677672,0.09690756,-0.028527452,0.027242739,0.99451154,-1.2949143648147583,-0.730049729347229,6.878015518188477,-3.591451406478882,-7.578107833862305, 2.5443341732025146
81,668694339,0.097043045,-0.02872975,0.029613184,0.99442464,-1.8603774309158325,-0.8184056878089905,6.817699909210205,15.679232597351074,2.8122963905334473, -0.5805124044418335
82,668711006,0.09687048,-0.030745033,0.030981854,0.9943395,-1.6577672958374023,-2.3741250038146973,8.677094459533691,7.669210433959961,14.476547241210938, 1.1897685527801514
83,668727673,0.096378215,-0.034871876,0.0314958,0.9942351,-1.449247121810913,-1.8876421451568604,10.224756240844727,0.6516465544700623,28.302452087402344, 2.5048842430114746
84,668744340,0.09606506,-0.040049117,0.031958193,0.99405557,-0.5368732810020447,-0.7724183797836304,10.048057556152344,-0.110160693526268,35.37083435058594, 1.0698151588439941
85,668761007,0.09594685,-0.045496833,0.03326218,0.9937899,-0.5388395190238953,0.5133081674575806,9.580954551696777,5.649927139282227,37.79320526123047, -0.08965770900249481
86,668777674,0.09565926,-0.051107593,0.034476835,0.9935035,-0.6034671664237976,1.6274113655090332,8.847691535949707,4.884284973144531,38.92953872680664, 0.9285870790481567
87,668794341,0.09481175,-0.057117254,0.034414206,0.9932594,-0.4857405126094818,1.6287684440612793,9.193952560424805,-4.421201229095459,40.969058990478516, 4.256760597229004
88,668811008,0.09359742,-0.06369543,0.032908853,0.9930255,-0.7556407451629639,1.631142497062683,9.393274307250977,-14.892888069152832,44.050537109375, 6.048671245574951
89,668827675,0.092134334,-0.07075159,0.029319813,0.9927971,-1.1435084342956543,0.7621599435806274,9.593408584594727,-29.63275146484375,46.069114685058594, 6.681445121765137
90,668844342,0.09061216,-0.07787469,0.024526848,0.9925339,-1.443056583404541,0.23841625452041626,9.673606872558594,-37.940425872802734,45.81410598754883, 6.461658954620361
91,668861009,0.08916396,-0.084730074,0.019298343,0.99221885,-1.5484211444854736,0.08147719502449036,9.537897109985352,-40.68422317504883,43.73841857910156, 5.737438678741455
92,668877676,0.0878667,-0.09105808,0.014537121,0.9918551,-1.6711061000823975,-0.1981969177722931,9.463706016540527,-37.061668395996094,40.44232177734375, 5.019277572631836
93,668894343,0.08669667,-0.096887544,0.011064996,0.99145055,-1.8821293115615845,-0.602630078792572,9.486112594604492,-27.85512924194336,37.83932876586914, 4.989335536956787
94,668911010,0.08570594,-0.102330916,0.00898362,0.99101067,-2.025162696838379,-0.7944902777671814,9.665657043457031,-17.966476440429688,36.04329299926758, 4.712635517120361
95,668927677,0.08470256,-0.10754304,0.0073664184,0.9905585,-2.0542876720428467,-0.4014277756214142,9.738956451416016,-14.610645294189453,34.74735641479492, 5.146737575531006
96,668944344,0.083571166,-0.112529196,0.0053367415,0.9901135,-2.0601298809051514,0.07407918572425842,9.628260612487793,-17.355457305908203,32.97380447387695, 5.7364726066589355
97,668961011,0.08223972,-0.11714759,0.002815664,0.98969954,-2.2696080207824707,0.08142960071563721,9.611416816711426,-20.659740447998047,30.1809024810791, 6.747614860534668
98,668977678,0.08096343,-0.12093626,0.0006830737,0.98935294,-2.5747926235198975,-0.19471031427383423,9.662564277648926,-17.52241325378418,24.699546813964844, 6.735311985015869
99,668994345,0.07994133,-0.12361619,-0.0005280214,0.9891048,-2.7499454021453857,-0.5005773901939392,9.9390869140625,-10.426190376281738,17.571073532104492, 5.832257270812988
100,669011012,0.07917555,-0.12522528,-0.0008713408,0.9889638,-2.799255132675171,-0.4383193552494049,10.17103385925293,-3.69759202003479,10.656355857849121, 4.886784076690674
101,669027679,0.07860121,-0.12583262,-0.00072796014,0.98893255,-2.7003886699676514,-0.49670201539993286,10.005962371826172,0.3361474871635437,4.0020036697387695, 4.061092376708984
102,669044346,0.07834529,-0.1257138,-0.000007240502,0.9889683,-2.637094020843506,-0.9660049676895142,10.14371109008789,4.947932243347168,-0.6876498460769653, 2.4328033924102783
103,669061013,0.07908322,-0.12512098,0.0035762913,0.98897827,-2.824641466140747,-1.727625846862793,10.475875854492188,25.58209228515625,-2.3457956314086914, -1.8506625890731812
104,669077680,0.08011803,-0.12296326,0.0075182323,0.9891435,-3.102888822555542,-0.9178016781806946,9.951371192932129,29.235136032104492,-12.939338684082031, -3.409229040145874
105,669094347,0.08098852,-0.11956288,0.009514431,0.9894722,-2.718271255493164,-0.24471084773540497,9.691195487976074,16.59720802307129,-22.63100814819336, -3.7700586318969727
106,669111014,0.08154433,-0.11532706,0.00991821,0.9899253,-2.403280735015869,-0.00046549178659915924,9.657194137573242,5.97366189956665,-29.302003860473633, -2.8155357837677
107,669127681,0.08192223,-0.110613294,0.0099492185,0.9904316,-2.197237491607666,-0.08097090572118759,9.401124000549316,3.5547678470611572,-32.79599380493164, -1.8428279161453247
108,669144348,0.08226062,-0.10570562,0.0103410045,0.99093527,-1.8670868873596191,-0.012571952305734158,9.082501411437988,6.0929718017578125,-33.90644454956055, -1.2916792631149292
109,669161015,0.082668304,-0.10088718,0.010985058,0.99139667,-1.6557801961898804,0.24090246856212616,8.972015380859375,7.81211519241333,-33.116058349609375, -1.6151816844940186
110,669177682,0.083054945,-0.09645884,0.011397044,0.9918002,-1.738444209098816,0.23733213543891907,9.000076293945312,5.9786200523376465,-30.526611328125, -1.7031480073928833
111,669194349,0.0832765,-0.09260883,0.010907938,0.99215406,-1.781446933746338,0.15009543299674988,9.050235748291016,-0.6197137236595154,-27.043176651000977, -1.255281686782837
112,669211016,0.08332052,-0.08925816,0.009660619,0.9924704,-1.6273273229599,0.057893913239240646,9.136075973510742,-6.198958873748779,-24.03413200378418, -0.5905596017837524
113,669227683,0.083306104,-0.0863308,0.00822729,0.99274343,-1.5835496187210083,-0.06979699432849884,9.046380996704102,-7.748431205749512,-21.21463966369629, -0.3632783591747284
114,669244350,0.083297886,-0.083963886,0.0072739436,0.9929546,-1.421152114868164,-0.08075933158397675,8.950883865356445,-4.7832794189453125,-17.073625564575195, -0.189111590385437
115,669261017,0.08326303,-0.08237336,0.006731562,0.99309456,-1.3603194952011108,0.07054799795150757,9.008267402648926,-2.431401491165161,-11.484251022338867, 0.14739471673965454
116,669277684,0.083219364,-0.08145081,0.0063638003,0.99317676,-1.3901104927062988,0.12948282063007355,8.98997974395752,-1.6332964897155762,-6.777134418487549, 0.24080424010753632
117,669294351,0.0830661,-0.08111514,0.00569615,0.9932211,-1.3979214429855347,-0.06092072278261185,9.004993438720703,-4.090963840484619,-2.9063117504119873, 0.7752772569656372
118,669311018,0.08280619,-0.08133863,0.0051370487,0.9932276,-1.4740512371063232,-0.19451679289340973,9.161718368530273,-3.7278003692626953,1.006816029548645, 1.5211572647094727
119,669327685,0.08242316,-0.0820674,0.004597641,0.9932021,-1.3325856924057007,0.05339375138282776,9.35112476348877,-3.9410269260406494,4.494255065917969, 2.340175151824951
120,669344352,0.08185713,-0.08311675,0.004278183,0.99316305,-1.425228238105774,0.11427415907382965,9.338737487792969,-2.7340922355651855,6.837485313415527, 3.6960864067077637
121,669361019,0.0812039,-0.08430618,0.0042985585,0.9931163,-1.4571335315704346,-0.11368443071842194,9.315979957580566,-0.5572043657302856,8.002466201782227, 4.476338863372803
122,669377686,0.08057701,-0.085646436,0.0046713674,0.99305105,-1.4219367504119873,-0.17078377306461334,9.2962064743042,1.7857756614685059,9.248217582702637, 4.4629316329956055
123,669394353,0.08000244,-0.087256126,0.004832944,0.9929565,-1.4997644424438477,-0.16487473249435425,9.194976806640625,0.2279467135667801,10.998987197875977, 3.9768664836883545
124,669411020,0.07933328,-0.08930825,0.0044550565,0.9928297,-1.6408661603927612,-0.08587952703237534,9.230688095092773,-3.7478833198547363,13.75339412689209, 4.26143741607666
125,669427687,0.07861109,-0.09159353,0.0037917765,0.9926816,-1.6547281742095947,-0.1589415967464447,9.30685806274414,-5.85514497756958,15.204781532287598, 4.4259867668151855
126,669444354,0.077893324,-0.093944415,0.0031232303,0.9925207,-1.7387363910675049,-0.3568827509880066,9.390196800231934,-5.919599533081055,15.66150951385498, 4.382612228393555
127,669461021,0.077200964,-0.09619389,0.0027311963,0.99236053,-1.7698403596878052,-0.4607072174549103,9.409701347351074,-3.947164297103882,15.118338584899902, 4.3995680809021
128,669477688,0.07654977,-0.098269336,0.0025122673,0.9922082,-1.8821897506713867,-0.4267866909503937,9.467529296875,-2.6231775283813477,14.020137786865234, 4.236554145812988
129,669494355,0.07594948,-0.10014211,0.0023106267,0.99206764,-1.8926560878753662,-0.47934556007385254,9.580645561218262,-2.3505306243896484,12.636617660522461, 3.939037561416626
130,669511022,0.07541975,-0.10180572,0.0019481829,0.9919393,-1.9333184957504272,-0.47180604934692383,9.673449516296387,-3.2668755054473877,11.118996620178223, 3.3544137477874756
131,669527689,0.07494118,-0.10318821,0.0014200512,0.9918338,-2.0185275077819824,-0.4563030004501343,9.527345657348633,-4.1937737464904785,9.102788925170898, 2.901183605194092
132,669544356,0.07454375,-0.104176685,0.0008908894,0.9917609,-2.034803628921509,-0.4924534857273102,9.618644714355469,-3.9245707988739014,6.389070510864258, 2.3830511569976807
133,669561023,0.07423485,-0.1046352,0.00062294776,0.9917361,-2.0271973609924316,-0.5127749443054199,9.687270164489746,-1.7886247634887695,2.8738796710968018, 1.9965932369232178
134,669577690,0.073991664,-0.104604,0.00047907667,0.9917576,-1.9944368600845337,-0.45815011858940125,9.805888175964355,-0.6254621148109436,-0.4335205554962158, 1.6679948568344116
135,669594357,0.07380313,-0.10414068,0.00041160273,0.9918205,-2.026073694229126,-0.33930790424346924,9.62492847442627,0.1712145060300827,-3.364945411682129, 1.3724758625030518
136,669611024,0.07360093,-0.103395976,0.00022531654,0.9919133,-2.056246519088745,-0.4272124767303467,9.523845672607422,-0.4977700412273407,-5.364388942718506, 1.3975635766983032
137,669627691,0.073464386,-0.10236255,0.00013777919,0.99203086,-2.033433437347412,-0.40884867310523987,9.446182250976562,0.382083922624588,-7.3040385246276855, 1.036181092262268
138,669644358,0.073395014,-0.10109376,-0.000028120645,0.992166,-1.9766945838928223,-0.4097368121147156,9.433985710144043,0.026682034134864807,-8.965023040771484, 0.532392144203186
139,669661025,0.07334926,-0.099849746,-0.0004295883,0.9922953,-1.9236665964126587,-0.4742036759853363,9.628485679626465,-1.562451958656311,-8.912285804748535, 0.19945254921913147
140,669677692,0.0733071,-0.098616764,-0.00077294844,0.99242145,-1.9644023180007935,-0.3830362558364868,9.450660705566406,-1.1545054912567139,-8.802868843078613, 0.22359253466129303
141,669694359,0.07332865,-0.09716382,-0.0014633848,0.9925625,-1.9554524421691895,-0.25307613611221313,9.393956184387207,-3.358748435974121,-10.492195129394531, -0.43852800130844116
142,669711026,0.07333323,-0.09544707,-0.0024724752,0.9927266,-1.920855164527893,-0.3620526194572449,9.484970092773438,-5.408445358276367,-12.474148750305176, -0.5369322299957275
143,669727693,0.07330194,-0.09344149,-0.0033140488,0.9929173,-1.8597100973129272,-0.3779292404651642,9.513232231140137,-4.134942531585693,-14.383296012878418, -0.1764075756072998
144,669744360,0.07327725,-0.091180876,-0.003892483,0.9931271,-1.7145670652389526,-0.47265541553497314,9.530909538269043,-2.2110824584960938,-16.007888793945312, 0.02111128717660904
145,669761027,0.07329659,-0.0886928,-0.004132522,0.99335,-1.6565611362457275,-0.45747461915016174,9.426379203796387,0.2614994943141937,-17.39230728149414, -0.10364188253879547
146,669777694,0.07334939,-0.086073406,-0.004206395,0.99357617,-1.5429707765579224,-0.3727235198020935,9.431910514831543,1.5036526918411255,-18.201339721679688, -0.28638872504234314
147,669794361,0.07342126,-0.08341127,-0.0045205895,0.9937965,-1.5068446397781372,-0.19663794338703156,9.376473426818848,-0.10571654886007309,-18.603384017944336, -0.5278784036636353
148,669811028,0.07340408,-0.08082942,-0.0055824686,0.99400574,-1.495349645614624,-0.18419888615608215,9.487879753112793,-5.353252410888672,-18.428743362426758, -0.09703382104635239
149,669827695,0.07324983,-0.07821524,-0.007137721,0.9942164,-1.4188029766082764,-0.37125352025032043,9.494790077209473,-8.746417045593262,-18.893386840820312, 0.28128546476364136
150,669844362,0.07313263,-0.075247325,-0.008852911,0.99444026,-1.349205493927002,-0.45379674434661865,9.578131675720215,-9.616524696350098,-21.38717269897461, -0.20862866938114166
151,669861029,0.073048376,-0.07192655,-0.010640225,0.9946745,-1.2440088987350464,-0.506376326084137,9.721571922302246,-9.898563385009766,-23.828868865966797, -0.5571287870407104
152,669877696,0.07294611,-0.06825494,-0.012137953,0.9949236,-1.1696276664733887,-0.5119715929031372,9.8050537109375,-7.758812427520752,-26.08346939086914, -0.1947338879108429
153,669894363,0.0728373,-0.06411426,-0.013444539,0.9951902,-1.1338711977005005,-0.6978830695152283,9.847579956054688,-6.250312805175781,-29.203805923461914, 0.20849445462226868
154,669911030,0.07262333,-0.059555028,-0.014269651,0.9954775,-1.0997419357299805,-0.6563050150871277,9.715747833251953,-2.6837213039398193,-31.80687713623047, 0.36543694138526917
155,669927697,0.07245321,-0.054680407,-0.014660424,0.99576384,-0.8877354860305786,-0.5435217022895813,9.520418167114258,0.43525758385658264,-33.75269317626953, 0.5572385191917419
156,669944364,0.072338514,-0.049702544,-0.015240199,0.9960246,-0.664842963218689,-0.27149513363838196,9.471807479858398,-0.8164464831352234,-34.53921890258789, 0.3974274694919586
157,669961031,0.07206895,-0.044726633,-0.016480977,0.9962602,-0.6467177271842957,-0.18452809751033783,9.55151653289795,-5.4012041091918945,-34.84082794189453, 1.1322463750839233
158,669977698,0.07155915,-0.040094633,-0.017705856,0.9964729,-0.6177918314933777,-1.0465755462646484,9.601814270019531,-5.551252841949463,-32.48147964477539, 2.7516913414001465
159,669994365,0.07097251,-0.03582824,-0.016988315,0.99669,-0.6559187173843384,-1.2868640422821045,9.179649353027344,7.5797505378723145,-29.028615951538086, 4.026822090148926
160,670011032,0.07050158,-0.0320569,-0.015229771,0.9968802,-0.4078448712825775,-0.31241264939308167,8.812170028686523,14.559091567993164,-25.101703643798828, 3.38720703125
161,670027699,0.06998066,-0.029253699,-0.014508469,0.99701387,-0.15789338946342468,-0.14806441962718964,9.079163551330566,6.957322120666504,-18.95196533203125, 3.5621743202209473
162,670044366,0.06939592,-0.027252972,-0.014731482,0.99710804,-0.3390987515449524,-0.38267982006073,9.282151222229004,0.06297526508569717,-13.883604049682617, 3.9152941703796387
163,670061033,0.06884011,-0.025610069,-0.0150331585,0.99718577,-0.38646557927131653,-0.6256832480430603,9.033550262451172,-0.6432504057884216,-11.452863693237305, 3.710724353790283
164,670077700,0.06855353,-0.02466902,-0.0153528135,0.99722433,-0.40034565329551697,-0.5578099489212036,8.94645881652832,-1.0400424003601074,-6.610678195953369, 1.8859851360321045
165,670094367,0.06832087,-0.02447413,-0.01582171,0.99723774,-0.52077317237854,-0.8702921867370605,9.349983215332031,-2.3993337154388428,-1.5548957586288452, 1.5665431022644043
166,670111034,0.06821951,-0.02459762,-0.015056086,0.9972535,-0.619750440120697,-1.065072774887085,9.371204376220703,5.964141368865967,1.215265154838562, 0.9274678826332092
167,670127701,0.06846041,-0.025096225,-0.013608828,0.99724543,-0.4880671203136444,-0.7214255928993225,9.245223045349121,10.557910919189453,4.136445999145508, -1.3190288543701172
168,670144368,0.06877424,-0.026354335,-0.012459819,0.99720633,-0.5494555234909058,-0.36487552523612976,8.920573234558105,8.182768821716309,9.211874961853027, -1.789854884147644
169,670161035,0.06914673,-0.028390205,-0.011934878,0.9971311,-0.5021569132804871,-0.30884552001953125,9.06586742401123,3.5439743995666504,14.254700660705566, -2.2764201164245605
170,670177702,0.0694974,-0.030938894,-0.011776388,0.99703276,-0.5193000435829163,-0.33376288414001465,9.136277198791504,0.7779802083969116,17.59728240966797, -2.1631102561950684
171,670194369,0.069797665,-0.033952106,-0.011726251,0.9969143,-0.5075385570526123,-0.3319145143032074,9.161396980285645,-0.2003428339958191,20.730661392211914, -1.828160285949707
172,670211036,0.0700263,-0.03732713,-0.011853975,0.9967761,-0.46425697207450867,-0.30968040227890015,9.359010696411133,-1.6117846965789795,23.128664016723633, -1.3820767402648926
173,670227703,0.07018683,-0.04088231,-0.012193754,0.9966212,-0.38244959712028503,-0.1187320426106453,9.50257396697998,-3.183088779449463,24.26704216003418, -0.8471802473068237
174,670244370,0.070195444,-0.044392463,-0.013034189,0.9964598,-0.3646150231361389,-0.27327901124954224,9.619007110595703,-6.655102729797363,23.724193572998047, 0.08345276117324829
175,670261037,0.07009836,-0.04772477,-0.014103446,0.996298,-0.5605010986328125,-0.40239930152893066,9.638200759887695,-8.170979499816895,22.41313362121582, 0.6425918340682983
176,670277704,0.069917105,-0.05076129,-0.015215628,0.9961443,-0.6690157651901245,-0.6177238821983337,9.82656478881836,-8.342134475708008,20.375904083251953, 1.0826184749603271
177,670294371,0.06974249,-0.05329082,-0.016278233,0.9960077,-0.8409243226051331,-0.6249097585678101,9.876769065856934,-7.758237838745117,16.93193244934082, 1.139926791191101
178,670311038,0.069496654,-0.055188604,-0.017376969,0.9959029,-0.9140253663063049,-0.7863136529922485,9.950553894042969,-7.709569454193115,12.58009147644043, 1.4803063869476318
179,670327705,0.06927917,-0.056377478,-0.018247273,0.99583596,-0.9847232103347778,-0.8575066328048706,10.169670104980469,-5.814352989196777,7.814187526702881, 1.6698139905929565
180,670344372,0.06892831,-0.056717034,-0.018701028,0.9958325,-1.044776201248169,-0.8682240843772888,10.362659454345703,-2.538731098175049,2.181030750274658, 2.2439098358154297
181,670361039,0.06861099,-0.056219563,-0.018677205,0.99588317,-1.0318058729171753,-1.0454065799713135,10.329070091247559,1.095051646232605,-3.3669683933258057, 2.764500141143799
182,670377706,0.06827788,-0.054964922,-0.017919192,0.9959901,-1.059939980506897,-0.9708834886550903,9.912941932678223,6.554131984710693,-8.203827857971191, 2.6482064723968506
183,670394373,0.06803609,-0.05325976,-0.017022036,0.9961149,-0.9788466095924377,-0.7249245047569275,9.681832313537598,7.811819553375244,-11.205779075622559, 1.7095654010772705
184,670411040,0.067717426,-0.051458098,-0.016270552,0.99624383,-0.8574408292770386,-0.598711371421814,9.501213073730469,6.869950771331787,-11.933014869689941, 1.8877147436141968
185,670427707,0.067362465,-0.049733944,-0.015618397,0.996366,-0.663372814655304,-0.5986019968986511,9.449834823608398,6.147774696350098,-11.445245742797852, 2.0600366592407227
186,670444374,0.06698461,-0.048295338,-0.014999135,0.99647164,-0.6293593049049377,-0.5074149966239929,9.160954475402832,5.7945876121521,-9.484657287597656, 2.1197657585144043
187,670461041,0.06677878,-0.04728856,-0.01464641,0.99653906,-0.6093628406524658,-0.44827696681022644,9.130537033081055,3.728307008743286,-6.644832611083984, 1.9043751955032349
188,670477708,0.06667849,-0.046711452,-0.014547767,0.99657446,-0.6697519421577454,-0.446364164352417,9.280194282531738,1.7502758502960205,-3.81402587890625, 1.9149528741836548
189,670494375,0.0663944,-0.046434864,-0.014346724,0.99660915,-0.8022326827049255,-0.5069366097450256,9.309891700744629,2.3550689220428467,-1.676594614982605, 2.10478138923645
190,670511042,0.06620381,-0.04640266,-0.014208015,0.99662536,-0.7426133155822754,-0.4704556167125702,9.294285774230957,1.8177911043167114,-0.027828199788928032, 1.796417236328125
191,670527709,0.06604449,-0.0466102,-0.014195879,0.99662644,-0.7598854899406433,-0.4602801203727722,9.391328811645508,0.8400517106056213,1.5650705099105835, 1.6660100221633911
192,670544376,0.06580625,-0.046899416,-0.0143647175,0.99662614,-0.7328402400016785,-0.4918718934059143,9.45695686340332,-0.4067936837673187,2.060701847076416, 1.5261262655258179
193,670561043,0.06562304,-0.04717724,-0.014593318,0.9966218,-0.7908540368080139,-0.5649203062057495,9.561917304992676,-0.8111798167228699,1.9587249755859375, 1.3460434675216675
194,670577710,0.065410756,-0.047419947,-0.014612891,0.99662393,-0.7655354142189026,-0.6729121208190918,9.55151081085205,0.6292207837104797,1.8083142042160034, 1.6547915935516357
195,670594377,0.0652727,-0.04763154,-0.014495045,0.99662465,-0.7797495126724243,-0.5256117582321167,9.593639373779297,1.582423210144043,1.654433250427246, 1.590721607208252
196,670611044,0.064941406,-0.0478602,-0.014231114,0.9966392,-0.7657749056816101,-0.6205234527587891,9.527009010314941,2.5938432216644287,1.8479756116867065, 2.116640090942383
197,670627711,0.06469298,-0.04805316,-0.013951845,0.9966499,-0.6867792010307312,-0.5302332043647766,9.573237419128418,2.7210612297058105,1.610622763633728, 1.8808367252349854
198,670644378,0.06473653,-0.04830773,-0.013622691,0.9966394,-0.7074993848800659,-0.5303254127502441,9.578262329101562,2.9672508239746094,2.0351150035858154, 1.6980646848678589
199,670661045,0.064476185,-0.048619386,-0.013497003,0.9966428,-0.6943250298500061,-0.5390939712524414,9.46192741394043,1.6552526950836182,2.3886594772338867, 1.5080437660217285
200,670677712,0.06427232,-0.048991676,-0.013490592,0.9966379,-0.7833700776100159,-0.5650128126144409,9.49128246307373,0.7938335537910461,2.753512144088745, 1.4996938705444336
201,670694379,0.06401781,-0.049395412,-0.013416317,0.9966353,-0.8059964179992676,-0.5880029797554016,9.463435173034668,1.2750065326690674,3.012418508529663, 1.4347018003463745
202,670711046,0.063860714,-0.049905766,-0.013159769,0.9966234,-0.8281107544898987,-0.6202481389045715,9.455522537231445,2.44429087638855,3.8119709491729736, 1.5944997072219849
203,670727713,0.063694306,-0.050547887,-0.012763303,0.99660695,-0.7759330868721008,-0.5360949635505676,9.42710018157959,3.3577158451080322,4.7820000648498535, 1.6340967416763306
204,670744380,0.06364724,-0.051278792,-0.012372026,0.99657744,-0.7632384300231934,-0.46578413248062134,9.35666275024414,3.2450461387634277,5.3805437088012695, 1.6626551151275635
205,670761047,0.06361233,-0.052069426,-0.012179908,0.996541,-0.7634499073028564,-0.25437498092651367,9.397600173950195,1.8718336820602417,5.719040393829346, 1.3491170406341553
206,670777714,0.063445926,-0.05298072,-0.012303153,0.99650204,-0.8027735948562622,-0.4179370701313019,9.504620552062988,-0.36247095465660095,6.416962146759033, 1.7677695751190186
207,670794381,0.063055456,-0.053885438,-0.012451762,0.99647653,-0.8789474964141846,-0.5084432363510132,9.54024887084961,-0.4634874761104584,6.388672351837158, 1.8467079401016235
208,670811048,0.062635645,-0.054760635,-0.012500548,0.99645466,-0.8838958740234375,-0.594941258430481,9.630270004272461,0.26254937052726746,6.240067481994629, 1.7492388486862183
209,670827715,0.062313687,-0.055573415,-0.012309429,0.99643224,-0.8701279759407043,-0.6829677224159241,9.666322708129883,1.9086519479751587,5.908357620239258, 1.8083271980285645
210,670844382,0.062047984,-0.056364134,-0.011597847,0.996413,-0.9313216209411621,-0.7524535059928894,9.460005760192871,5.490513324737549,5.979575157165527, 1.8921453952789307
211,670861049,0.06183082,-0.0572358,-0.010798411,0.9963857,-0.9627060294151306,-0.5745522975921631,9.388707160949707,6.107202529907227,6.585775852203369, 1.452938437461853
212,670877716,0.061841477,-0.058201753,-0.009965849,0.9963379,-0.9845685362815857,-0.47513478994369507,9.32482624053955,6.235752582550049,7.232061386108398, 1.2743794918060303
213,670894383,0.061738692,-0.05931333,-0.009475884,0.9962834,-0.9188539385795593,-0.206217423081398,9.377140045166016,3.917867422103882,8.113728523254395, 0.7356545925140381
214,670911050,0.06163543,-0.06053936,-0.0095551815,0.9962152,-0.9090352058410645,-0.30593419075012207,9.506477355957031,-0.07098560780286789,8.658843040466309, 0.7732155919075012
215,670927717,0.0614053,-0.061755925,-0.009812087,0.99615234,-1.0137286186218262,-0.48462390899658203,9.581178665161133,-1.264076828956604,8.53481388092041, 0.9171077609062195
216,670944384,0.061386004,-0.06281458,-0.0098419,0.9960869,-1.019730567932129,-0.545252799987793,9.572626113891602,0.2681329846382141,7.525966167449951, 1.070604681968689
217,670961051,0.061369583,-0.063778624,-0.009688025,0.9960282,-0.9729753732681274,-0.44763892889022827,9.584795951843262,1.6068447828292847,6.965751647949219, 0.8464549779891968
218,670977718,0.061241865,-0.06469196,-0.009571983,0.99597836,-1.03168523311615,-0.43267396092414856,9.499763488769531,1.3908275365829468,6.61496114730835, 1.0382685661315918
219,670994385,0.06137271,-0.065575786,-0.009611849,0.9959122,-1.0975672006607056,-0.40899941325187683,9.557352066040039,0.20387069880962372,6.324051380157471, 1.10935640335083
220,671011052,0.061230987,-0.06640403,-0.00983048,0.995864,-1.1390888690948486,-0.42369240522384644,9.527759552001953,-0.9015926718711853,5.89179801940918, 1.2011650800704956
221,671027719,0.061199967,-0.06709945,-0.010188984,0.9958156,-1.1802233457565308,-0.47304055094718933,9.599207878112793,-1.8343689441680908,4.915058612823486, 0.9880293607711792
222,671044386,0.061079342,-0.06758748,-0.01044606,0.9957873,-1.1663001775741577,-0.5213212966918945,9.672528266906738,-1.017106056213379,3.5390799045562744, 1.0811442136764526
223,671061053,0.060750287,-0.06781132,-0.010627668,0.99579036,-1.1589739322662354,-0.5119149684906006,9.694784164428711,-0.2896796464920044,1.7770795822143555, 1.1089468002319336
224,671077720,0.060668696,-0.067828335,-0.010562061,0.99579483,-1.1638044118881226,-0.6033350825309753,9.695121765136719,1.3805820941925049,0.4344489872455597, 1.216084599494934
225,671094387,0.06056251,-0.06768675,-0.010302372,0.9958136,-1.1677418947219849,-0.5570870637893677,9.613640785217285,2.7768709659576416,-0.5744160413742065, 1.4369428157806396
226,671111054,0.060178105,-0.06749853,-0.01005138,0.9958523,-1.1588441133499146,-0.4850788116455078,9.454317092895508,2.8239471912384033,-0.8784642815589905, 1.7696901559829712
227,671127721,0.060165703,-0.06734382,-0.009920985,0.9958647,-1.0934303998947144,-0.3715984523296356,9.414230346679688,1.8215303421020508,-0.7314473986625671, 1.680827021598816
228,671144388,0.059738725,-0.06722884,-0.009930912,0.9958981,-1.0542237758636475,-0.38556116819381714,9.410120010375977,1.0257693529129028,-0.4719139337539673, 1.6410632133483887
229,671161055,0.059546296,-0.06716185,-0.010064592,0.9959129,-1.0434043407440186,-0.3773098587989807,9.490623474121094,0.0724775418639183,-0.20428690314292908, 1.4170163869857788
230,671177722,0.059240982,-0.06710717,-0.010234094,0.995933,-1.1300960779190063,-0.47817662358283997,9.507441520690918,-0.11415580660104752,-0.1132209375500679, 1.2812048196792603
231,671194389,0.059114516,-0.06703957,-0.010400748,0.99594337,-1.1576813459396362,-0.5406726002693176,9.503193855285645,-0.14103633165359497,-0.21006254851818085, 1.082706332206726
232,671211056,0.059034795,-0.066925324,-0.010490285,0.99595475,-1.131892204284668,-0.5536174774169922,9.507132530212402,0.40106290578842163,-0.5009459853172302, 1.0276776552200317
233,671227723,0.05901506,-0.06679048,-0.01055564,0.99596435,-1.090520977973938,-0.5078663229942322,9.50121021270752,0.5726808309555054,-0.6322879791259766, 0.8910722732543945
234,671244390,0.058737043,-0.066636086,-0.010728541,0.99598926,-1.0829046964645386,-0.4150170683860779,9.498537063598633,-0.047588396817445755,-0.7822630405426025, 0.9217179417610168
235,671261057,0.058593243,-0.066444546,-0.0110385595,0.9960071,-1.1036628484725952,-0.392272025346756,9.515089988708496,-1.064553141593933,-1.1087095737457275, 1.0952435731887817
236,671277724,0.05836692,-0.066142306,-0.011446308,0.996036,-1.1325950622558594,-0.42632147669792175,9.5295991897583,-1.660086989402771,-1.8985283374786377, 1.0847938060760498
237,671294391,0.05819249,-0.06567724,-0.01188624,0.99607176,-1.0915194749832153,-0.4656437039375305,9.629952430725098,-1.8480204343795776,-3.037346601486206, 1.1279258728027344
238,671311058,0.057868015,-0.065034024,-0.012307342,0.99612784,-1.111495018005371,-0.5063934326171875,9.668671607971191,-1.5699946880340576,-4.232857704162598, 1.0363860130310059
239,671327725,0.05782985,-0.06420547,-0.012590706,0.99618024,-1.092820405960083,-0.5530943870544434,9.648218154907227,-0.7010453343391418,-5.48852014541626, 1.2874032258987427
240,671344392,0.05760485,-0.06322027,-0.01274667,0.9962543,-1.061379313468933,-0.5765212774276733,9.573647499084473,0.3191278278827667,-6.4919233322143555, 1.3351709842681885
241,671361059,0.057402592,-0.062117256,-0.012915967,0.99633324,-0.9916369318962097,-0.5115118622779846,9.562362670898438,0.28110581636428833,-7.303924560546875, 1.224306583404541
242,671377726,0.057700813,-0.06097004,-0.013099193,0.99638444,-0.9631650447845459,-0.5142747759819031,9.579641342163086,-0.006108629517257214,-7.66586971282959, 1.2594727277755737
243,671394393,0.057717312,-0.05979779,-0.013229521,0.99645275,-0.9402545094490051,-0.584804892539978,9.581335067749023,0.48595622181892395,-7.780575752258301, 1.295087218284607
244,671411060,0.057589278,-0.058647767,-0.013137463,0.99652964,-0.9698978662490845,-0.6375057697296143,9.604903221130371,2.064749002456665,-7.518468379974365, 1.3847956657409668
245,671427727,0.057497174,-0.057546575,-0.012639717,0.9966056,-0.9409350752830505,-0.6268637180328369,9.390722274780273,4.817705154418945,-7.024706840515137, 1.5597816705703735
246,671444394,0.057332188,-0.056639034,-0.012156648,0.99667305,-0.868329644203186,-0.45542147755622864,9.37054443359375,4.709133148193359,-5.6790666580200195, 1.258653163909912
247,671461061,0.05716274,-0.05605463,-0.0118258195,0.9967199,-0.8590377569198608,-0.38688579201698303,9.27429485321045,3.526658058166504,-3.5154333114624023, 1.3157309293746948
248,671477728,0.056876734,-0.05578003,-0.011788235,0.9967521,-0.8538609743118286,-0.3507159650325775,9.239352226257324,1.4131743907928467,-1.4904159307479858, 1.4092427492141724
249,671494395,0.05676329,-0.05580165,-0.011882842,0.99675626,-0.89182049036026,-0.3961428105831146,9.305208206176758,0.3199346661567688,0.4797322750091553, 1.3857687711715698
250,671511062,0.05644387,-0.056038354,-0.012172849,0.9967576,-0.8986942172050476,-0.4200511574745178,9.383354187011719,-1.031679630279541,1.9056938886642456, 1.3299329280853271
251,671527729,0.056340095,-0.056347568,-0.012387834,0.9967435,-0.9135857224464417,-0.49231448769569397,9.487667083740234,-0.6487184166908264,2.406139850616455, 1.554581880569458
252,671544396,0.05612526,-0.05662146,-0.0124659445,0.996739,-0.860871434211731,-0.5287429690361023,9.587057113647461,0.3533848524093628,2.231320858001709, 1.534424901008606
253,671561063,0.055945016,-0.056901917,-0.012269707,0.9967356,-0.8552168011665344,-0.48474279046058655,9.592554092407227,2.1922872066497803,2.3735225200653076, 1.9062187671661377
254,671577730,0.055595662,-0.05720219,-0.011986517,0.9967414,-0.8937195539474487,-0.49069342017173767,9.492252349853516,2.8447065353393555,2.565502643585205, 1.936659574508667
255,671594397,0.055436596,-0.057526566,-0.011773592,0.9967343,-0.9356139302253723,-0.3544791042804718,9.46275520324707,2.286593198776245,2.6900317668914795, 1.8636252880096436
256,671611064,0.055241913,-0.057849854,-0.0117647005,0.99672633,-0.9503234624862671,-0.45464566349983215,9.47520923614502,0.9125739932060242,2.613910436630249, 1.6610538959503174
257,671627731,0.0551083,-0.058124524,-0.01192367,0.9967159,-0.9388112425804138,-0.3775016665458679,9.565674781799316,-0.24435797333717346,2.2116506099700928, 1.594320297241211
258,671644398,0.05477746,-0.05829803,-0.012200906,0.9967206,-0.9291188716888428,-0.572992742061615,9.642147064208984,-0.9546236395835876,1.4901916980743408, 1.6493489742279053
259,671661065,0.054791678,-0.058357082,-0.012333072,0.9967148,-0.9270262718200684,-0.5143308639526367,9.622514724731445,-0.02585601806640625,0.731210470199585, 1.5053799152374268
260,671677732,0.05465903,-0.058309756,-0.012390267,0.99672425,-0.9754699468612671,-0.5862429141998291,9.572279930114746,0.5872286558151245,0.04567384347319603, 1.5364353656768799
261,671694399,0.05449114,-0.05817453,-0.012348333,0.9967417,-0.9660184979438782,-0.5102108120918274,9.518033027648926,1.3313544988632202,-0.5140596628189087, 1.4569592475891113
262,671711066,0.05419714,-0.05799245,-0.012290675,0.99676913,-0.9361690282821655,-0.4999704658985138,9.517768859863281,1.5144597291946411,-0.8153163194656372, 1.404350757598877
263,671727733,0.053962816,-0.05780576,-0.012280335,0.9967927,-0.9097986221313477,-0.47871825098991394,9.5332612991333,1.1739387512207031,-0.8673356175422668, 1.3442119359970093
264,671744400,0.05418614,-0.057645995,-0.012182709,0.9967911,-0.9006571769714355,-0.4017884135246277,9.486701965332031,1.6029132604599,-0.6879443526268005, 1.2266113758087158
265,671761067,0.054080874,-0.057540514,-0.012253131,0.99680215,-0.855461597442627,-0.41230058670043945,9.447542190551758,0.5373992323875427,-0.3446444869041443, 1.3082647323608398
266,671777734,0.05406299,-0.057475716,-0.012307667,0.9968061,-0.9032366275787354,-0.4164443016052246,9.492966651916504,0.597614586353302,-0.0623156912624836, 1.2857893705368042
267,671794401,0.053857654,-0.057440277,-0.012387512,0.9968182,-0.930712878704071,-0.4670222997665405,9.529559135437012,0.4623156487941742,0.14555057883262634, 1.4688050746917725
268,671811068,0.053841513,-0.057426963,-0.012377163,0.99682,-0.9422958493232727,-0.5278087854385376,9.463665962219238,0.9948805570602417,0.3121739625930786, 1.5466804504394531
269,671827735,0.05365169,-0.05746854,-0.012314831,0.9968286,-0.9687718749046326,-0.49495112895965576,9.460051536560059,1.4189244508743286,0.7317612171173096, 1.4046964645385742
270,671844402,0.053290024,-0.057506856,-0.012298357,0.9968461,-0.893336832523346,-0.3733489513397217,9.487584114074707,1.1551133394241333,0.7040738463401794, 1.5538135766983032
271,671861069,0.05327686,-0.057606984,-0.012442227,0.9968391,-0.8518385291099548,-0.4006689488887787,9.507760047912598,-0.12058459222316742,1.0359888076782227, 1.615309715270996
272,671877736,0.05318959,-0.057674956,-0.012636641,0.99683744,-0.8975719809532166,-0.4265086054801941,9.549827575683594,-0.42447930574417114,0.8095214366912842, 1.5451182126998901
273,671894403,0.052934505,-0.05766942,-0.01278551,0.9968495,-0.9781812429428101,-0.5643436312675476,9.551806449890137,-0.017365409061312675,0.3409114480018616, 1.5317225456237793
274,671911070,0.05271343,-0.05758768,-0.012853025,0.996865,-0.9520074725151062,-0.5209061503410339,9.53612995147705,0.584104061126709,-0.15058988332748413, 1.327871322631836
275,671927737,0.05279618,-0.057478562,-0.012883329,0.9968666,-0.9527766704559326,-0.5402215123176575,9.542922973632812,0.7446059584617615,-0.3520081043243408, 1.2295184135437012
276,671944404,0.052557748,-0.057320565,-0.012991862,0.99688685,-0.9005918502807617,-0.5241977572441101,9.583181381225586,0.3452528119087219,-0.6852421760559082, 1.2748017311096191
277,671961071,0.052588236,-0.05716732,-0.012978073,0.9968943,-0.8833760023117065,-0.5160793662071228,9.583995819091797,1.090800166130066,-0.6301236152648926, 1.216135859489441
278,671977738,0.05261205,-0.057005145,-0.012996156,0.996902,-0.8710057139396667,-0.39840370416641235,9.453299522399902,0.8918149471282959,-0.6954360008239746, 1.0891735553741455
279,671994405,0.052688625,-0.05691241,-0.013008617,0.99690306,-0.8989583849906921,-0.39936864376068115,9.44916820526123,0.8695831298828125,-0.2212424874305725, 1.2114359140396118
280,672011072,0.052485093,-0.056877907,-0.013101763,0.99691457,-0.9100217819213867,-0.4630822241306305,9.421062469482422,0.37801143527030945,0.174275204539299, 1.3840398788452148
281,672027739,0.052512623,-0.056895137,-0.0131410435,0.99691164,-0.8939054012298584,-0.4728180766105652,9.487787246704102,0.6428979635238647,0.5281786918640137, 1.3561989068984985
282,672044406,0.052617095,-0.05693917,-0.013201744,0.99690276,-0.9001651406288147,-0.4922037422657013,9.507997512817383,0.43804752826690674,0.6944050788879395, 1.504867672920227
283,672061073,0.052638866,-0.056987446,-0.013245359,0.99689835,-0.8618946075439453,-0.4684731066226959,9.544390678405762,0.5802621245384216,0.7384206056594849, 1.5597429275512695
284,672077740,0.052577704,-0.057060577,-0.013347041,0.9968961,-0.9025529026985168,-0.45464807748794556,9.522290229797363,0.20931340754032135,0.9019320607185364, 1.4990793466567993
285,672094407,0.05241645,-0.057102636,-0.01343336,0.9969009,-0.9259663224220276,-0.44446706771850586,9.502986907958984,0.35394832491874695,0.7025755643844604, 1.5808736085891724
286,672111074,0.052870534,-0.057120513,-0.013504905,0.9968749,-0.9401739835739136,-0.48104068636894226,9.547771453857422,0.21881568431854248,0.4787590205669403, 1.612492322921753
287,672127741,0.052667562,-0.057096288,-0.01359794,0.9968859,-0.8937494158744812,-0.49019119143486023,9.580951690673828,0.3394899368286133,0.24784769117832184, 1.6220587491989136
288,672144408,0.05244839,-0.05700837,-0.013620858,0.99690205,-0.8876454830169678,-0.5502259135246277,9.566203117370605,0.8640764951705933,-0.1567753553390503, 1.5260623693466187
289,672161075,0.052419133,-0.056882717,-0.013648375,0.9969104,-0.8971697688102722,-0.4655267000198364,9.5201416015625,0.7901581525802612,-0.43039578199386597, 1.3836427927017212
290,672177742,0.05231483,-0.056782067,-0.013704127,0.9969208,-0.9187975525856018,-0.4759322702884674,9.501349449157715,0.6033391356468201,-0.26249176263809204, 1.485850214958191
291,672194409,0.05279986,-0.056656625,-0.013727241,0.99690205,-0.9313122630119324,-0.48897403478622437,9.496733665466309,0.6047479510307312,-0.48077601194381714, 1.5236291885375977
292,672211076,0.052922256,-0.056497514,-0.0138052665,0.9969036,-0.9195513725280762,-0.49389198422431946,9.535815238952637,0.3819173574447632,-0.6945780515670776, 1.4872078895568848
293,672227743,0.05299614,-0.05628652,-0.013875456,0.99691075,-0.89345782995224,-0.4107736349105835,9.543130874633789,0.46665695309638977,-1.044434666633606, 1.5525585412979126
294,672244410,0.05285758,-0.056043874,-0.014034058,0.9969294,-0.735791802406311,-0.5333654284477234,9.957175254821777,-0.06665705144405365,-1.2751154899597168, 1.682530403137207
295,672261077,0.053323224,-0.05860616,-0.0096976105,0.996809,0.815641462802887,-1.983782410621643,12.250370025634766,29.886381149291992,19.692869186401367, -0.022539278492331505
296,672277744,0.053836532,-0.06266395,-0.001591621,0.9965804,-1.9550343751907349,0.12345083057880402,10.262260437011719,55.439491271972656,31.483972549438477, -0.531957745552063
297,672294411,0.05354441,-0.06150616,-0.0011031085,0.99666893,-1.5280433893203735,0.06719192117452621,10.598353385925293,4.581415176391602,-7.2662482261657715, 3.6569247245788574
298,672311078,0.05337786,-0.05531242,-0.0021024002,0.99703926,-1.4510688781738281,0.3018852174282074,10.137100219726562,-3.8389205932617188,-42.45915603637695, 3.3524487018585205
299,672327745,0.05282508,-0.046245277,-0.0041258037,0.9975239,-0.22314360737800598,0.474844366312027,10.945954322814941,-9.723320007324219,-62.58027648925781, 3.5425870418548584
300,672344412,0.05245058,-0.035086557,-0.006180031,0.99798787,0.40045374631881714,-0.0755741149187088,10.993528366088867,-9.442054748535156,-76.94821166992188, 5.938117504119873
301,672361079,0.051890455,-0.021774022,-0.007881247,0.99838436,1.061443567276001,-0.5206639766693115,10.573022842407227,-6.236110210418701,-91.57275390625, 7.7574286460876465
302,672377746,0.050098903,-0.006185833,-0.009263456,0.99868226,1.387058973312378,-0.6516490578651428,10.87446403503418,-3.0606882572174072,-106.95193481445312, 7.977137565612793
303,672394413,0.04863451,0.011757511,-0.00999773,0.99869746,1.335998296737671,-1.929345726966858,10.007641792297363,2.1106441020965576,-122.90835571289062, 10.47667407989502
304,672411080,0.048098944,0.031819336,-0.009024714,0.998295,2.6619672775268555,-1.226190209388733,8.914266586303711,14.663962364196777,-136.86456298828125, 6.5546698570251465
305,672427747,0.047861934,0.05276215,-0.009902208,0.9974105,3.6088900566101074,0.4221765697002411,9.098779678344727,2.314563751220703,-143.52810668945312, 4.178227424621582
306,672444414,0.047898974,0.073146336,-0.0139814485,0.99607235,4.133566379547119,0.12868446111679077,9.206527709960938,-19.69151496887207,-140.83999633789062, 4.446138381958008
307,672461081,0.047989734,0.0928948,-0.020948179,0.99429816,5.102964878082275,-1.0051907300949097,10.153749465942383,-39.50423812866211,-137.61717224121094, 5.822898864746094
308,672477748,0.047604427,0.11181642,-0.024393318,0.99228835,6.7089972496032715,-0.9944815635681152,10.747166633605957,-15.063215255737305,-130.98915100097656, 7.565155029296875
309,672494415,0.04758739,0.13110669,-0.027097205,0.98985475,7.7019195556640625,-0.27003321051597595,11.16399097442627,-10.000470161437988,-133.4206085205078, 4.254518985748291
310,672511082,0.047880583,0.15027241,-0.027744042,0.9870947,5.252277851104736,-0.3451641798019409,8.943093299865723,3.973151922225952,-132.02296447753906, 0.6636595129966736
311,672527749,0.0470669,0.16844338,-0.027933242,0.9841907,4.342130661010742,-0.20678141713142395,7.425102233886719,6.025150299072266,-125.15702819824219, 1.518513560295105
312,672544416,0.046142302,0.18568708,-0.029396215,0.9810847,4.036101341247559,-0.11247661709785461,7.419172286987305,-2.817039728164673,-119.50792694091797, 3.8476765155792236
313,672561083,0.04521645,0.20246673,-0.031550407,0.97773594,3.7298319339752197,-0.28112661838531494,7.83155632019043,-7.688933372497559,-116.88526153564453, 4.748715400695801
314,672577750,0.043899007,0.21875504,-0.033977937,0.9741996,3.803860664367676,-1.414691686630249,7.242550849914551,-9.184126853942871,-114.0152816772461, 7.803955554962158
315,672594417,0.04257681,0.23430642,-0.035938717,0.97056484,4.499382972717285,-1.3480842113494873,7.686966419219971,-6.272750377655029,-109.08817291259766, 7.2550578117370605
316,672611084,0.0415349,0.24898778,-0.037580926,0.96688557,3.8515915870666504,-1.2069437503814697,8.350388526916504,-4.845592498779297,-103.18705749511719, 5.053748607635498
317,672627751,0.040403947,0.26210806,-0.03861729,0.9634188,3.575524091720581,-1.4579249620437622,7.756274700164795,-1.0451834201812744,-92.32762145996094, 5.052354335784912
318,672644418,0.039224595,0.2737235,-0.039326675,0.9602034,3.25978946685791,-0.8071502447128296,8.05717945098877,0.8748674392700195,-81.86656951904297, 5.228682041168213
319,672661085,0.037962876,0.28380737,-0.03972757,0.95730555,2.746047258377075,-0.8351681232452393,8.668709754943848,2.739039182662964,-71.15499877929688, 5.677432060241699
320,672677752,0.03652098,0.2923165,-0.040118635,0.95478153,3.0066707134246826,-0.8648020625114441,8.042121887207031,2.8454864025115967,-60.19429397583008, 7.3563385009765625
321,672694419,0.035171013,0.29863587,-0.04122082,0.95282775,3.3531298637390137,-0.19256621599197388,8.174742698669434,-2.3979170322418213,-44.90050506591797, 8.917543411254883
322,672711086,0.034346275,0.30392364,-0.04232362,0.95113593,4.437687397003174,0.15033578872680664,8.322266578674316,-3.6707024574279785,-37.52574157714844, 5.83603048324585
323,672727753,0.03371818,0.30849257,-0.04225388,0.94968945,5.058745861053467,0.18852095305919647,8.79368782043457,3.461728572845459,-32.02592849731445, 2.3768093585968018
324,672744420,0.033328857,0.31210756,-0.04067536,0.9485904,4.264639377593994,-0.1691671758890152,9.323240280151367,12.659232139587402,-24.683870315551758, -2.0135607719421387
325,672761087,0.032945078,0.31530043,-0.03940577,0.947601,2.389288902282715,-0.6625378131866455,8.867091178894043,10.548168182373047,-21.83812141418457, -1.2403228282928467
326,672777754,0.032260235,0.31788096,-0.03959711,0.94675404,0.6486099362373352,-0.3473382294178009,8.465032577514648,1.5790826082229614,-18.063518524169922, 4.078423976898193
327,672794421,0.031309124,0.31937832,-0.04069315,0.94623554,0.2869138717651367,-0.2568143904209137,8.345625877380371,-3.8872804641723633,-10.713644981384277, 8.15349292755127
328,672811088,0.030018168,0.3196329,-0.0413525,0.9461628,0.4641016125679016,-0.15595845878124237,8.285293579101562,-0.45381879806518555,-1.8010214567184448, 9.845685005187988
329,672827755,0.028726555,0.31870157,-0.040152714,0.9465687,1.8900806903839111,0.13058868050575256,8.514137268066406,11.521592140197754,7.205350875854492, 6.203521728515625
330,672844422,0.027466774,0.31688336,-0.038138464,0.9472993,3.0818278789520264,-0.42544281482696533,9.112961769104004,16.64600944519043,13.746403694152832, 4.528672218322754
331,672861089,0.026451146,0.3146168,-0.035724934,0.94817746,2.7351467609405518,-1.332129716873169,9.91694450378418,18.66216468811035,17.035755157470703, 2.2167775630950928
332,672877756,0.025548887,0.31214634,-0.032652818,0.9491291,2.8200509548187256,-2.446859836578369,9.631503105163574,22.70663070678711,18.56061363220215, 0.1047370582818985
333,672894423,0.025121972,0.30868685,-0.029398482,0.9503774,2.2656219005584717,-1.6412240266799927,10.061314582824707,22.811534881591797,25.68963050842285, -3.143588066101074
334,672911090,0.024555596,0.30416566,-0.026400832,0.9519367,1.9467158317565918,-0.801848828792572,9.891317367553711,21.336013793945312,33.09722137451172, -1.4333328008651733
335,672927757,0.02350276,0.2984301,-0.02373065,0.9538471,0.34926778078079224,0.3391321897506714,9.566017150878906,20.077482223510742,41.517967224121094, 2.7154343128204346
336,672944424,0.022297217,0.29100683,-0.020959891,0.95623165,-0.038610223680734634,2.2715017795562744,9.574365615844727,20.8378963470459,53.4035758972168, 3.879389524459839
337,672961091,0.02186821,0.28118113,-0.016315244,0.95926684,0.9010178446769714,4.116586685180664,8.522199630737305,31.269624710083008,70.75009155273438, -4.481625556945801
338,672977758,0.022772256,0.26815674,-0.011543259,0.963037,3.2223825454711914,4.49555778503418,8.559490203857422,29.03450584411621,93.33214569091797, -12.975249290466309
339,672994425,0.024799649,0.2507422,-0.009777602,0.9676869,7.12394905090332,4.56125020980835,8.338964462280273,6.331454277038574,123.60163116455078, -14.313610076904297
340,673011092,0.027196297,0.22576077,-0.015502701,0.97367966,10.744808197021484,2.660845994949341,10.36788558959961,-45.46097183227539,175.08612060546875, -3.0624284744262695
341,673027759,0.02875682,0.19172856,-0.02853523,0.98061156,12.468976020812988,1.8098260164260864,10.005951881408691,-94.76409149169922,235.85299682617188, 15.037880897521973
342,673044426,0.03240307,0.14808446,-0.04634778,0.9873566,15.618894577026367,6.379785060882568,8.434673309326172,-131.76593017578125,300.14532470703125, 9.128798484802246
343,673061093,0.03940021,0.0961395,-0.066669166,0.9923508,18.260271072387695,4.027101993560791,9.538863182067871,-154.83856201171875,355.62530517578125, -8.776557922363281
344,673077760,0.048780967,0.0385433,-0.07817584,0.9949992,16.66448974609375,-3.1832993030548096,15.909521102905273,-99.00446319580078,396.5733642578125, -28.89012908935547
345,673094427,0.058983255,-0.020432582,-0.078101486,0.9949893,5.060153961181641,-7.615610599517822,20.08027458190918,-21.832441329956055,410.77508544921875, -42.59893035888672
346,673111094,0.065399356,-0.0740034,-0.07343498,0.992398,10.020036697387695,-14.556293487548828,12.258809089660645,10.509359359741211,374.0293884277344, -19.82744598388672
347,673127761,0.07507049,-0.10617688,-0.064454354,0.98941225,18.81777572631836,1.0740063190460205,-19.199655532836914,51.43622970581055,231.7173614501953, -49.212032318115234
348,673144428,0.07652981,-0.12879208,-0.049949795,0.9874517,8.89521312713623,-19.04255485534668,-6.741509437561035,87.08822631835938,164.69671630859375, 12.86393928527832
349,673161095,0.08101096,-0.14409415,-0.048410952,0.98505366,-9.715141296386719,16.474899291992188,11.275732040405273,7.413147449493408,110.50939178466797, -27.04589080810547
350,673177762,0.07771928,-0.15018952,-0.07716589,0.9825724,-6.413580417633057,-7.271646022796631,-1.4477213621139526,-201.63693237304688,28.252817153930664, -5.030980110168457
351,673194429,0.074137345,-0.1481096,-0.08568744,0.9824586,-10.777264595031738,-4.655584335327148,5.234293460845947,-58.824649810791016,-18.62518882751465, 13.058645248413086
352,673211096,0.07190816,-0.13871193,-0.089578405,0.9836483,-10.513249397277832,-5.073291301727295,7.813648700714111,-21.937942504882812,-66.67767333984375, 6.063061237335205
353,673227763,0.07004012,-0.123664856,-0.08594224,0.9861114,-8.838373184204102,-5.50511360168457,8.446664810180664,33.275299072265625,-102.16557312011719, 6.847508430480957
354,673244430,0.06860049,-0.10558232,-0.07599609,0.9891264,-7.746065616607666,-3.1347815990448,11.517300605773926,78.4966812133789,-119.95848083496094, 6.775787353515625
355,673261097,0.066999145,-0.08693778,-0.06517041,0.99181956,-8.53305435180664,-0.7416380643844604,14.116500854492188,84.38371276855469,-123.42412567138672, 8.025189399719238
356,673277764,0.06405952,-0.06927095,-0.05730049,0.9938886,-8.219498634338379,-0.7436184883117676,14.072440147399902,62.553401947021484,-118.56746673583984, 15.52265739440918
357,673294431,0.060219865,-0.052477114,-0.051769104,0.9954596,-5.453131198883057,-1.9541904926300049,12.062249183654785,45.41282653808594,-113.97968292236328, 20.847806930541992
358,673311098,0.056865346,-0.036713317,-0.04700401,0.9965988,-3.6454269886016846,-1.2029459476470947,11.871478080749512,39.675262451171875,-107.0763168334961, 17.593107223510742
359,673327765,0.05382766,-0.022141615,-0.04295057,0.99738044,-3.2884178161621094,-1.1217154264450073,11.695490837097168,34.2021369934082,-99.11357879638672, 15.746176719665527
360,673344432,0.0510528,-0.007417125,-0.037819643,0.99795216,-5.056889533996582,-1.5698652267456055,12.142635345458984,41.55223083496094,-99.76473236083984, 14.218697547912598
361,673361099,0.048147693,0.0076790275,-0.033298083,0.9982556,-2.9626052379608154,-1.2937674522399902,17.1387996673584,37.34693145751953,-102.79369354248047, 16.41266632080078
362,673377766,0.044924736,0.022166492,-0.03156832,0.9982455,-3.062173366546631,0.9925751686096191,20.3178653717041,17.924560546875,-99.78964233398438, 20.17345428466797
363,673394433,0.04140472,0.035524115,-0.047297552,0.99739,1.2291346788406372,-3.6488242149353027,17.898860931396484,-102.40626525878906,-97.77943420410156, 25.482812881469727
364,673411100,0.040177938,0.052445922,-0.06292976,0.9958289,3.5601773262023926,-1.5545903444290161,5.836515426635742,-101.36540222167969,-121.74346160888672, 9.064287185668945
365,673427767,0.03338045,0.08602665,-0.08974064,0.99168134,2.28494930267334,-7.877835273742676,-42.870323181152344,-172.3260955810547,-242.3075408935547, 43.176963806152344
366,673444434,0.029617425,0.13469905,-0.0588947,0.9886914,50.34218215942383,-5.842528343200684,-1.5095117092132568,223.38446044921875,-328.9502868652344, -23.235748291015625
367,673461101,0.02442525,0.17528927,-0.042211145,0.9833085,13.161376953125,3.593032121658325,37.362876892089844,125.84297180175781,-278.37396240234375, 2.412517547607422
368,673477768,0.016649727,0.21618791,-0.045785468,0.9751356,7.388223648071289,1.4368515014648438,5.196755886077881,-8.983551979064941,-287.9669189453125, 43.73407745361328
369,673494435,0.010004778,0.24565315,-0.04559291,0.96823335,18.101213455200195,-0.4443211555480957,7.6884260177612305,13.635430335998535,-208.48460388183594, 34.27928924560547
370,673511102,0.013109016,0.27159426,-0.045023557,0.96126884,21.432004928588867,11.218616485595703,12.014764785766602,-0.6135103702545166,-181.7383270263672, -30.164676666259766
371,673527769,0.018207585,0.29035655,-0.04618694,0.9556299,14.485984802246094,1.8911824226379395,12.53717041015625,-16.312389373779297,-131.05628967285156, -37.59164047241211
372,673544436,0.020697713,0.30875096,-0.046786252,0.94976604,6.184229373931885,-2.6140031814575195,9.240509033203125,-7.597959518432617,-129.73367309570312, -21.436016082763672
373,673561103,0.020627664,0.325778,-0.048492365,0.9439766,1.222916841506958,-1.2030194997787476,7.677984237670898,-9.537223815917969,-121.65167999267578, -1.9451689720153809
374,673577770,0.019459404,0.33846727,-0.054431498,0.939201,-2.1530544757843018,-1.683887004852295,4.9844865798950195,-34.8195686340332,-92.29995727539062, 16.24261474609375
375,673594437,0.016937617,0.34692234,-0.057082128,0.936002,-6.019322872161865,-1.0885717868804932,6.066049098968506,-10.383864402770996,-61.48936462402344, 19.100656509399414
376,673611104,0.013843612,0.3521021,-0.057758316,0.9340753,-7.627840042114258,-1.2285524606704712,7.4211106300354,3.8170018196105957,-37.593849182128906, 19.473886489868164
377,673627771,0.009919964,0.35608548,-0.05848554,0.93256867,-6.885043144226074,-1.8633320331573486,9.889368057250977,5.560758590698242,-29.497739791870117, 25.398963928222656
378,673644438,0.004323862,0.3602992,-0.059730574,0.9309125,-3.5514612197875977,-1.0647032260894775,10.575828552246094,6.305830478668213,-32.341346740722656, 37.237762451171875
379,673661105,-0.0020483597,0.36419472,-0.06185967,0.92926395,1.0403711795806885,0.8124286532402039,10.44008731842041,2.559752941131592,-30.873497009277344, 44.49755096435547
380,673677772,-0.0070813093,0.36652544,-0.06357932,0.92820615,5.2537922859191895,1.580857753753662,11.264408111572266,2.0565643310546875,-18.990848541259766, 35.58726501464844
381,673694439,-0.009502916,0.36811304,-0.06396279,0.9275298,6.761013507843018,0.4549594819545746,12.055696487426758,4.148360252380371,-12.308239936828613, 15.900764465332031
382,673711106,-0.00954242,0.3689445,-0.063504085,0.9272305,5.441954612731934,-1.6670688390731812,10.976430892944336,3.663020133972168,-5.621822357177734, -1.0865548849105835
383,673727773,-0.007969661,0.36874568,-0.063609354,0.9273172,3.093968629837036,-2.132473945617676,10.006023406982422,-3.7915515899658203,2.581408739089966, -9.519461631774902
384,673744440,-0.0058215526,0.3666932,-0.064576015,0.92807996,1.3979190587997437,-1.1463159322738647,9.832966804504395,-10.33812141418457,16.305614471435547, -10.25363826751709
385,673761107,-0.0042124162,0.36331478,-0.06596215,0.9293189,0.7791040539741516,-0.5892040729522705,9.529505729675293,-11.398618698120117,25.613664627075195, -5.199508190155029
386,673777774,-0.003659991,0.35878667,-0.06652501,0.93103886,0.10439592599868774,-0.6807940602302551,8.80068588256836,-3.263545036315918,33.524105072021484, -0.0038675330579280853
387,673794441,-0.0036038405,0.3526212,-0.06493131,0.9335038,0.570896565914154,-0.7612055540084839,8.580615043640137,12.138124465942383,45.430641174316406, -1.4226044416427612
388,673811108,-0.0034368932,0.34435502,-0.061162002,0.936839,2.272014617919922,-2.246417760848999,8.651741981506348,26.266138076782227,60.902462005615234, -6.496711730957031
389,673827775,-0.0035966088,0.3332563,-0.052191194,0.9413837,2.9638400077819824,-3.9486961364746094,9.463399887084961,61.141483306884766,81.66738891601562, -15.559656143188477
390,673844442,-0.0040840376,0.31952304,-0.040524855,0.9467028,3.3927571773529053,-3.3708038330078125,9.621781349182129,79.73747253417969,100.23090362548828, -18.718046188354492
391,673861109,-0.0037520886,0.30462903,-0.030811802,0.95196533,2.9781816005706787,1.5153462886810303,9.432415008544922,65.29021453857422,107.87691497802734, -19.448902130126953
392,673877776,-0.0027690558,0.288484,-0.025586054,0.95713896,2.609159231185913,3.7043967247009277,8.845973014831543,34.536624908447266,116.06533813476562, -14.000503540039062
393,673894443,-0.0016869837,0.2698583,-0.023888491,0.9626022,3.2382118701934814,4.684959888458252,7.466145038604736,11.14957046508789,132.99380493164062, -7.162683010101318
394,673911110,0.00032896292,0.24872954,-0.022746088,0.9683058,4.181188583374023,4.442230224609375,7.867010116577148,5.722751140594482,150.14703369140625, -11.842813491821289
395,673927777,0.0039747395,0.22382054,-0.023250977,0.97434485,8.064281463623047,3.7604098320007324,7.024643898010254,-8.074145317077637,176.14596557617188, -19.23584747314453
396,673944444,0.008449611,0.1921775,-0.034859423,0.98070455,13.101639747619629,1.8678946495056152,11.421846389770508,-83.9583969116211,221.6973114013672, -6.590238094329834
397,673961111,0.013148332,0.1528691,-0.05613518,0.9865632,17.332517623901367,-1.3250950574874878,10.082009315490723,-150.0908203125,272.42828369140625, 6.485280513763428
398,673977778,0.020153664,0.10319051,-0.0773815,0.9914423,19.977413177490234,2.826641082763672,8.989791870117188,-153.6532745361328,342.9960021972656, -5.287032127380371
399,673994445,0.029155536,0.044928838,-0.09628925,0.9939115,23.16469955444336,-0.03707459568977356,16.208951950073242,-141.7089080810547,401.6295471191406, -16.28519630432129
400,674011112,0.03840215,-0.016616365,-0.101541005,0.9939511,11.132731437683105,-0.8518579006195068,20.560922622680664,-50.733882904052734,426.858154296875, -21.4356632232666
401,674027779,0.04609409,-0.07232878,-0.10659715,0.99059623,10.995606422424316,-8.894858360290527,14.593106269836426,-50.46241760253906,386.3666076660156, -15.073983192443848
402,674044446,0.053460225,-0.10431989,-0.093350105,0.98870885,24.483123779296875,-12.171963691711426,-21.512771606445312,82.50519561767578,229.46873474121094, -19.38091278076172
403,674061113,0.060894564,-0.128318,-0.05945472,0.9880748,3.575497627258301,-8.264458656311035,-1.7912721633911133,225.99951171875,181.80584716796875, -6.324089527130127
404,674077780,0.06549444,-0.14410889,-0.082584865,0.98393244,-9.58530044555664,14.512772560119629,9.475723266601562,-160.8990478515625,104.69255828857422, -45.4996337890625
405,674094447,0.06351196,-0.15026285,-0.11075318,0.9803679,-6.745793342590332,-9.988292694091797,-1.1057935953140259,-197.64112854003906,32.41032791137695, -9.970234870910645
406,674111114,0.061562717,-0.14744574,-0.114660405,0.98047084,-11.140398025512695,-6.121794700622559,5.9926252365112305,-27.075397491455078,-21.414247512817383, 9.511197090148926
407,674127781,0.05984012,-0.13641371,-0.112782,0.98239034,-12.047359466552734,-9.225567817687988,7.585639476776123,17.416683197021484,-76.03720092773438, 7.478754997253418
408,674144448,0.059615932,-0.12024374,-0.09918225,0.9859769,-10.062971115112305,-8.317296981811523,9.998119354248047,101.8567123413086,-106.30409240722656, 4.199068069458008
409,674161115,0.059567936,-0.10318008,-0.076087736,0.9899577,-9.46625804901123,-4.285592079162598,14.425110816955566,167.32081604003906,-108.70024108886719, 9.786508560180664
410,674177782,0.05845488,-0.08867438,-0.05597467,0.9927673,-8.998048782348633,1.37270987033844,16.817100524902344,144.67681884765625,-92.33917999267578, 15.556675910949707
411,674194449,0.05566486,-0.078551866,-0.046699584,0.9942587,-7.905954360961914,3.1676530838012695,15.115877151489258,67.38763427734375,-66.70979309082031, 21.18522071838379
412,674211116,0.052754447,-0.071808696,-0.044757016,0.9950163,-6.938119411468506,1.832394003868103,12.526189804077148,15.536895751953125,-46.19110107421875, 18.93555450439453
413,674227783,0.049952522,-0.064085916,-0.04577236,0.9956419,-4.531461238861084,0.3370237946510315,7.971645355224609,-4.353183746337891,-53.95457077026367, 16.128032684326172
414,674244450,0.047635905,-0.05481663,-0.04632788,0.99628305,-3.9173078536987305,0.45127689838409424,9.020169258117676,-0.6416847109794617,-64.38819885253906, 13.379515647888184
415,674261117,0.044378053,-0.04355631,-0.05025307,0.996799,-7.392993927001953,-1.8671079874038696,9.788304328918457,-23.642839431762695,-79.53511047363281, 18.86070442199707
416,674277784,0.042409707,-0.03051582,-0.055169854,0.9971092,-7.217985153198242,-1.4239546060562134,9.369153022766113,-29.586563110351562,-91.70914459228516, 9.432412147521973
417,674294451,0.041542966,-0.014965445,-0.066551104,0.99680555,-3.23366379737854,0.3533898890018463,13.133177757263184,-73.14448547363281,-110.4325942993164, -0.42524832487106323
418,674311118,0.042226832,0.0027616182,-0.08555296,0.9954346,-1.2119957208633423,0.8123481869697571,11.12764835357666,-125.07117462158203,-126.82122039794922, -13.115983009338379
419,674327785,0.045915335,0.023552576,-0.105356224,0.9930948,2.454211711883545,-0.1965513527393341,10.291287422180176,-130.26828002929688,-146.31695556640625, -36.031578063964844
420,674344452,0.042247556,0.059740692,-0.10511889,0.99176425,0.7331485748291016,-13.741324424743652,-40.61037063598633,13.416348457336426,-250.273681640625, -0.010144875384867191
421,674361119,0.03802916,0.11251528,-0.069992356,0.9904522,52.13407897949219,-0.1347624659538269,-0.6408877372741699,256.90887451171875,-353.4364318847656, -24.027355194091797
422,674377786,0.037474364,0.15805152,-0.058731195,0.98497003,25.908424377441406,4.844834804534912,46.933895111083984,87.49211883544922,-310.7154846191406, -28.01560401916504
423,674394453,0.030590305,0.19943298,-0.068365,0.97704506,20.717695236206055,-5.095178604125977,6.689730644226074,-49.43474197387695,-292.9272766113281, 38.69546890258789
424,674411120,0.022891298,0.23421724,-0.068957195,0.9694655,14.343110084533691,-5.023943901062012,13.874210357666016,11.296637535095215,-246.25900268554688, 34.937255859375
425,674427787,0.020406276,0.25949556,-0.07020448,0.962973,17.91653060913086,6.598204612731934,10.397741317749023,-2.393904209136963,-178.62246704101562, 5.8779120445251465
426,674444454,0.020283952,0.27801952,-0.0768692,0.95728,8.37124252319336,1.989039659500122,7.551572799682617,-43.173011779785156,-131.89834594726562, 3.3865554332733154
427,674461121,0.019620903,0.29923216,-0.08112645,0.95052284,-0.2762220501899719,0.14477911591529846,4.999283790588379,-26.526926040649414,-151.5408172607422, 0.8272630572319031
428,674477788,0.018579721,0.3158561,-0.082558855,0.9450258,-2.053511381149292,1.250335931777954,5.6691083908081055,-7.212179660797119,-118.859375, 0.21702083945274353
429,674494455,0.01745872,0.3284954,-0.08356489,0.9406396,-2.0223355293273926,0.3497212529182434,7.670093536376953,-4.1753621101379395,-90.65779113769531, 2.2185659408569336
430,674511122,0.0160849,0.33866203,-0.08311495,0.937092,-2.3090763092041016,-0.522413969039917,6.5353312492370605,5.9764580726623535,-72.87709045410156, 2.0802063941955566
431,674527789,0.014351056,0.34648007,-0.0805289,0.93448424,-3.5724217891693115,-0.5331799387931824,7.742343425750732,20.847898483276367,-55.65171432495117, 0.8497694134712219
432,674544456,0.012043798,0.35240737,-0.077146575,0.9325838,-2.939729928970337,-2.440747022628784,9.903883934020996,27.524951934814453,-42.214935302734375, 3.725803852081299
433,674561123,0.008428827,0.3573443,-0.07563443,0.930867,-1.38320791721344,-5.187118053436279,10.672513961791992,18.729578018188477,-36.44220733642578, 17.134010314941406
434,674577790,0.0041034124,0.36083555,-0.076702006,0.929461,1.05863356590271,-5.7308030128479,14.03009033203125,4.090057373046875,-27.10595703125, 28.7126407623291
435,674594457,-0.00044790728,0.36287054,-0.080210194,0.9283809,1.3401374816894531,-4.020845413208008,14.072150230407715,-10.770233154296875,-17.348037719726562, 36.9145393371582
436,674611124,-0.0047336314,0.36339778,-0.08428276,0.9278018,0.14496733248233795,-1.0230895280838013,11.117889404296875,-14.73585319519043,-6.491525173187256, 37.408714294433594
437,674627791,-0.007262281,0.36279875,-0.08753841,0.9277184,1.8974841833114624,1.5696278810501099,10.224630355834961,-13.606412887573242,2.7801575660705566, 24.783679962158203
438,674644458,-0.007499815,0.36150774,-0.089811645,0.92800313,2.8754658699035645,2.156420946121216,9.323230743408203,-12.848599433898926,9.336499214172363, 8.144905090332031
439,674661125,-0.0065748435,0.35982463,-0.09069324,0.9285784,1.2288188934326172,-0.05733448266983032,9.85476303100586,-6.714399337768555,13.126422882080078, -2.4666199684143066
440,674677792,-0.005333046,0.3578123,-0.09026431,0.9294054,1.2865254878997803,-1.9339367151260376,10.53984546661377,1.0126951932907104,15.88323974609375, -7.534239292144775
441,674694459,-0.004194953,0.35453573,-0.090273544,0.9306652,2.4754958152770996,-2.411679983139038,10.379876136779785,-1.2224200963974,24.867586135864258, -5.045162200927734
442,674711126,-0.003520924,0.34901935,-0.090052955,0.93277204,3.677238941192627,-2.7582342624664307,9.184672355651855,1.9719656705856323,40.8797721862793, -1.2919763326644897
443,674727793,-0.0029744902,0.34144014,-0.09030853,0.9355503,3.7186641693115234,-3.108902931213379,10.001656532287598,-0.2995949983596802,55.59614562988281, 1.909095048904419
444,674744460,-0.0024202797,0.33227932,-0.091546565,0.93872464,1.7513854503631592,-2.58931040763855,9.16528606414795,-6.345173358917236,66.66243743896484, 5.11513614654541
445,674761127,-0.0018182553,0.32075194,-0.09118906,0.9427616,0.021617934107780457,-2.53639554977417,8.657315254211426,4.437042713165283,83.83566284179688, 2.6146669387817383
446,674777794,-0.0010279823,0.3065032,-0.08809915,0.94778347,-1.8942725658416748,-1.38716721534729,8.186562538146973,22.399765014648438,103.64163970947266, -2.961265802383423
447,674794461,0.000029957975,0.28869528,-0.08236653,0.95387155,-1.2141870260238647,1.3723106384277344,7.320079803466797,39.734310150146484,129.1201171875, -8.137282371520996
448,674811128,0.001636352,0.26752707,-0.074690625,0.96064985,1.5920610427856445,3.8853819370269775,6.931901454925537,51.755210876464844,152.7556915283203, -13.66333293914795
449,674827795,0.0031969768,0.24437019,-0.067925006,0.9672947,3.926546573638916,5.942530155181885,8.228405952453613,45.6732063293457,165.5761260986328, -10.610373497009277
450,674844462,0.0046810065,0.21885236,-0.0630973,0.9737046,8.822304725646973,4.5124053955078125,7.481241226196289,32.651126861572266,180.7999725341797, -5.674593925476074
451,674861129,0.00813443,0.18825403,-0.06443565,0.97997063,14.238850593566895,2.478426218032837,9.996665954589844,-11.90575122833252,215.3486328125, -7.329137802124023
452,674877796,0.012629787,0.15039682,-0.07990342,0.9853106,17.52187156677246,-2.7519280910491943,13.07040786743164,-109.36177825927734,262.931884765625, 7.13303279876709
453,674894463,0.018318925,0.103775986,-0.100724556,0.98931783,23.872600555419922,0.7832224369049072,11.768484115600586,-148.3819122314453,321.3948059082031, 9.278657913208008
454,674911130,0.026936026,0.047750074,-0.12348304,0.9908312,26.7413330078125,3.145555019378662,14.626764297485352,-166.6604766845703,385.8123779296875, -3.008458137512207
455,674927797,0.037951306,-0.014778607,-0.13438626,0.9900918,18.525510787963867,-1.8265299797058105,19.3934326171875,-89.94275665283203,433.8443298339844, -17.177268981933594
456,674944464,0.04751999,-0.074966334,-0.14067523,0.98606926,5.59225606918335,-7.257060527801514,17.57674789428711,-61.146236419677734,418.53240966796875, -10.569859504699707
457,674961131,0.055386115,-0.11021052,-0.13413459,0.9832569,24.829479217529297,-12.571855545043945,-21.569726943969727,33.87845230102539,250.79428100585938, -14.55323314666748
458,674977798,0.06297005,-0.13207886,-0.09542891,0.98462355,9.522693634033203,-21.42819595336914,-11.064544677734375,259.7784118652344,169.23712158203125, 2.638394355773926
459,674994465,0.072367616,-0.14331776,-0.09089821,0.9828331,-10.990213394165039,17.80091094970703,12.763174057006836,32.85907745361328,86.79443359375, -49.20155715942383
460,675011132,0.070117235,-0.1447353,-0.11560297,0.98018944,-8.292747497558594,-11.357726097106934,1.075771689414978,-171.02383422851562,-0.08090607821941376, -9.013374328613281
461,675027799,0.06698501,-0.14021124,-0.113859765,0.9812695,-12.245462417602539,-6.043050289154053,10.871591567993164,11.329622268676758,-32.591949462890625, 23.028087615966797
462,675044466,0.064185016,-0.13247801,-0.113749884,0.9825431,-11.973063468933105,-5.971809387207031,12.086410522460938,2.9183120727539062,-54.690391540527344, 15.264389038085938
463,675061133,0.06251782,-0.12320618,-0.109587505,0.98432845,-9.619804382324219,-6.209097385406494,11.510971069335938,32.888465881347656,-62.73810958862305, 9.149181365966797
464,675077800,0.06190464,-0.113499105,-0.09738136,0.98681456,-9.691364288330078,-3.0368378162384033,12.722224235534668,89.09371948242188,-62.07234191894531, 8.47989273071289
465,675094467,0.060881957,-0.104368545,-0.08559396,0.9889764,-10.307772636413574,0.44045522809028625,14.879842758178711,85.49468994140625,-58.4636344909668, 11.062885284423828
466,675111134,0.05916804,-0.097334646,-0.07868026,0.99037087,-9.068265914916992,0.029277630150318146,14.056254386901855,50.477806091308594,-46.224727630615234, 13.110539436340332
467,675127801,0.057661016,-0.09270316,-0.072966985,0.9913411,-7.899891376495361,-0.28733670711517334,12.521567344665527,41.23755645751953,-30.04475975036621, 11.834097862243652
468,675144468,0.056019895,-0.088451296,-0.069239974,0.9920908,-7.152994155883789,-1.5302743911743164,10.534253120422363,27.228063583374023,-28.317537307739258, 11.902962684631348
469,675161135,0.053446557,-0.08117106,-0.0671198,0.9930003,-5.522542476654053,-3.060675621032715,8.324956893920898,16.831201553344727,-50.2779426574707, 16.311952590942383
470,675177802,0.050255686,-0.06965409,-0.064389355,0.9942217,-3.8067245483398438,-3.5336060523986816,5.632605075836182,22.218067169189453,-79.59180450439453, 19.726940155029297
471,675194469,0.047511626,-0.05640973,-0.060659677,0.99543005,-6.256701469421387,-0.7722302079200745,7.943585395812988,29.835790634155273,-90.935546875, 16.77716827392578
472,675211136,0.043313276,-0.04078917,-0.06652285,0.9960095,-5.9129204750061035,0.08652575314044952,10.14326000213623,-35.836910247802734,-110.7818832397461, 21.810529708862305
473,675227803,0.036889885,-0.020717239,-0.08268117,0.99567765,-1.4258142709732056,-4.257864475250244,8.429781913757324,-106.02977752685547,-145.20022583007812, 31.775854110717773
474,675244470,0.033445437,0.0038811192,-0.09393151,0.99500924,1.9196170568466187,-2.3225793838500977,5.365053176879883,-70.92269134521484,-173.2139892578125, 9.19145393371582
475,675261137,0.034135997,0.033156913,-0.104431726,0.9933929,5.437197208404541,4.099618434906006,4.9100117683410645,-65.36141204833984,-202.37950134277344, -22.433835983276367
476,675277804,0.024941767,0.08452079,-0.106751874,0.9903729,10.084877967834473,-17.600177764892578,-41.22431182861328,-3.090927839279175,-358.6085510253906, 26.057321548461914
477,675294471,0.018762872,0.13720785,-0.08816863,0.986432,43.99847412109375,0.9229075908660889,31.47730827331543,137.5038604736328,-362.1360778808594, -7.853948593139648
478,675311138,0.01101943,0.18129979,-0.06299528,0.9813463,17.022418975830078,-0.09972482919692993,18.58880043029785,181.7532958984375,-304.4106750488281, 1.6963316202163696
479,675327805,0.0065141055,0.21629542,-0.0640577,0.9742026,25.77126121520996,6.098539352416992,17.344011306762695,-1.007063865661621,-245.9535369873047, 16.337800979614258
480,675344472,0.00019886481,0.24905595,-0.06547925,0.96627307,16.131811141967773,-0.07586012780666351,5.6756696701049805,-1.2818825244903564,-232.70333862304688, 30.039052963256836
481,675361139,0.0028286073,0.27180323,-0.06487397,0.96015966,17.434614181518555,4.292162895202637,11.801691055297852,-2.340139865875244,-158.83653259277344, -28.32716178894043
482,675377806,0.0078099817,0.2861927,-0.07138683,0.9554772,5.92091178894043,0.6938037872314453,13.505922317504883,-53.337867736816406,-99.94119262695312, -26.705562591552734
483,675394473,0.009273232,0.30572963,-0.077197336,0.9489383,-1.0859261751174927,-1.8634620904922485,5.167360782623291,-42.47166442871094,-139.1560821533203, -7.565688133239746
484,675411140,0.0085592205,0.3207083,-0.08266582,0.943525,-6.044955253601074,-0.28693923354148865,4.862682819366455,-35.33693313598633,-108.25261688232422, 8.4010648727417
485,675427807,0.008295421,0.33272487,-0.08660965,0.9390018,-7.435712814331055,0.6852003335952759,5.506993293762207,-26.106462478637695,-86.85861206054688, 3.8417410850524902
486,675444474,0.00765661,0.3429367,-0.08477392,0.93549407,-6.715586185455322,-0.16820251941680908,6.706689834594727,12.550677299499512,-72.9296875, -5.840846538543701
487,675461141,0.005253878,0.35100392,-0.08150496,0.9328053,-4.817224979400635,-1.6769806146621704,7.998453140258789,26.283004760742188,-58.30974197387695, 3.3916187286376953
488,675477808,0.0005407146,0.35650957,-0.0776394,0.9310601,-1.4429889917373657,-3.6767492294311523,10.401775360107422,36.12525177001953,-41.01852035522461, 18.19864273071289
489,675494475,-0.0061095553,0.3595736,-0.07547285,0.93003947,1.853712797164917,-4.164602279663086,11.925622940063477,30.39655113220215,-24.779714584350586, 36.016624450683594
490,675511142,-0.0117182825,0.36086625,-0.07817296,0.92926174,3.2134299278259277,-2.7132139205932617,14.0642728805542,-3.0742108821868896,-12.213011741638184, 42.25088882446289
491,675527809,-0.015821619,0.3609551,-0.07967922,0.9290384,5.748124599456787,-0.6658358573913574,12.891385078430176,1.2144492864608765,-2.5451548099517822, 30.248716354370117
492,675544476,-0.017473668,0.3604943,-0.08153347,0.9290269,4.741182804107666,1.8011717796325684,11.24083137512207,-6.936309337615967,2.8006553649902344, 15.739945411682129
493,675561143,-0.016864913,0.3594848,-0.08307907,0.9292924,3.5758135318756104,1.5785797834396362,10.248648643493652,-10.390681266784668,8.157670021057129, 0.8416274189949036
494,675577810,-0.014437107,0.35725534,-0.08248519,0.9302454,2.620466947555542,-0.9322145581245422,8.97193431854248,-0.7224332094192505,18.375873565673828, -15.424893379211426
495,675594477,-0.011132486,0.35360125,-0.07975308,0.93192387,1.740476369857788,-2.8323705196380615,10.067689895629883,11.341259002685547,29.492507934570312, -25.5538330078125
496,675611144,-0.008546356,0.3485383,-0.07786627,0.9340156,0.45359504222869873,-3.0455830097198486,9.998566627502441,8.013965606689453,39.11473846435547, -18.182294845581055
497,675627811,-0.0071242107,0.3420096,-0.077036545,0.93650645,-0.12046249210834503,-1.568019151687622,9.545679092407227,4.326694965362549,48.83234786987305, -7.446649551391602
498,675644478,-0.0064878887,0.33406022,-0.074654706,0.9395683,0.7054886221885681,-0.89525306224823,9.02664852142334,16.539318084716797,58.73910903930664, -5.329893589019775
499,675661145,-0.0067669214,0.32453248,-0.07052375,0.9432176,1.2687846422195435,-1.725771188735962,8.845870018005371,30.306529998779297,69.662353515625, -2.6570513248443604
500,675677812,-0.007500043,0.31294006,-0.06423779,0.9475686,1.5607757568359375,-2.159520149230957,9.598079681396484,45.73632049560547,84.23419189453125, -3.564007520675659
501,675694479,-0.007466753,0.30032966,-0.058091246,0.9520357,3.054995059967041,-0.30548804998397827,9.010421752929688,43.29304122924805,91.3980484008789, -7.827102184295654
502,675711146,-0.007126956,0.28658554,-0.0545968,0.9564712,2.8475470542907715,1.7825400829315186,9.022026062011719,25.337574005126953,98.97482299804688, -3.8951432704925537
503,675727813,-0.007356924,0.27156654,-0.054506913,0.9608468,3.8066558837890625,3.049853563308716,8.233410835266113,4.079339981079102,107.15806579589844, 7.065275192260742
504,675744480,-0.006641851,0.2550512,-0.057087485,0.96521807,3.811081886291504,3.42411732673645,8.861807823181152,-15.300657272338867,117.51175689697266, 6.4007062911987305
505,675761147,-0.0049114185,0.2334994,-0.060634423,0.97045225,6.053320407867432,3.3187854290008545,7.416734218597412,-22.980602264404297,152.88331604003906, 3.323803424835205
506,675777814,-0.0010524837,0.20343138,-0.068178974,0.9767119,10.437871932983398,2.990985870361328,8.838322639465332,-52.41587829589844,212.42596435546875, -0.9208295941352844
507,675794481,0.0036282719,0.16541299,-0.08466706,0.98257667,13.088238716125488,0.4331637918949127,9.800494194030762,-113.83367919921875,265.83673095703125, 9.82288932800293
508,675811148,0.008533762,0.11699243,-0.105423644,0.9874846,14.674680709838867,1.4289332628250122,6.630650520324707,-143.81065368652344,335.24774169921875, 19.199312210083008
509,675827815,0.016546704,0.05886042,-0.12559715,0.99019563,22.401874542236328,2.5135889053344727,13.022371292114258,-144.58798217773438,401.9705505371094, 4.552544593811035
510,675844482,0.027651252,-0.006959967,-0.13282856,0.9907289,25.30399513244629,-0.14573927223682404,22.00736427307129,-60.53817367553711,457.92303466796875, -15.30732536315918
511,675861149,0.03895336,-0.068342485,-0.13691881,0.98745394,9.118443489074707,-7.5763092041015625,16.958051681518555,-42.148006439208984,428.5455322265625, -19.796405792236328
512,675877816,0.049982116,-0.10186712,-0.115975864,0.98674965,24.481096267700195,-18.72980308532715,-26.152225494384766,137.32379150390625,244.4464569091797, -31.147926330566406
513,675894483,0.0588218,-0.121267565,-0.074977234,0.9880347,9.386979103088379,-15.370030403137207,-12.28365707397461,278.30096435546875,152.62416076660156, -12.018601417541504
514,675911150,0.066201955,-0.12729517,-0.07983168,0.986428,-10.492591857910156,16.657602310180664,11.240415573120117,-31.063451766967773,44.771175384521484, -46.71249008178711
515,675927817,0.063777536,-0.11895924,-0.09537135,0.9862483,-4.190612316131592,-15.067035675048828,-2.2953336238861084,-103.35031127929688,-63.57375717163086, -1.282391905784607
516,675944484,0.060909104,-0.10164475,-0.0899071,0.9888758,-8.161172866821289,-3.7116053104400635,10.82390022277832,43.20740509033203,-118.69617462158203, 18.59436798095703
517,675961151,0.057297908,-0.07947737,-0.09076789,0.9910407,-8.499914169311523,-4.75791597366333,13.365290641784668,2.1049211025238037,-154.2625732421875, 14.542374610900879
518,675977818,0.053999364,-0.05709478,-0.08635748,0.99315995,-6.411769390106201,-5.81839656829834,16.164648056030273,38.90631866455078,-153.1922149658203, 13.278103828430176
519,675994485,0.050844863,-0.0392355,-0.076952465,0.99496424,-8.896623611450195,-1.5041502714157104,22.16468048095703,71.60887145996094,-120.06729888916016, 15.332938194274902
520,676011152,0.048792154,-0.029434873,-0.06582146,0.99620306,-10.54138469696045,0.885054349899292,23.21446990966797,80.77422332763672,-63.564693450927734, 11.13573932647705
521,676027819,0.047262304,-0.026283612,-0.052781403,0.99714077,-7.834387302398682,0.037037014961242676,18.410385131835938,91.47139739990234,-17.273941040039062, 11.057631492614746
522,676044486,0.04683854,-0.026911072,-0.04170532,0.9976688,-5.802200794219971,1.4346269369125366,15.947649002075195,76.77910614013672,8.331058502197266, 4.4489874839782715
523,676061153,0.047231846,-0.02823838,-0.03576686,0.99784404,-4.390817642211914,1.0877760648727417,12.169465065002441,41.33056640625,11.685773849487305, -2.0560600757598877
524,676077820,0.047342233,-0.028907174,-0.033619527,0.9978943,-5.31882905960083,0.503224790096283,10.54733943939209,15.346136093139648,5.809150695800781, -0.6174201965332031
525,676094487,0.045620237,-0.027016426,-0.04068888,0.9977642,-7.384087562561035,-0.4917512536048889,10.559587478637695,-47.561668395996094,-15.22335433959961, 9.938234329223633
526,676111154,0.04243906,-0.021605566,-0.055355523,0.9973306,-6.608869552612305,-3.2363054752349854,12.728643417358398,-99.12319946289062,-42.2662239074707, 18.534875869750977
527,676127821,0.039443217,-0.012721691,-0.06830936,0.9968031,-3.1944785118103027,-3.293802499771118,12.152335166931152,-86.39923858642578,-65.63582611083984, 16.588943481445312
528,676144488,0.03838135,-0.0010509988,-0.073137164,0.9965825,-1.8157047033309937,-1.5090211629867554,8.809782981872559,-29.615163803100586,-81.72614288330078, 3.018338441848755
529,676161155,0.036522005,0.015066858,-0.07446871,0.9964404,-0.09754650294780731,-4.941538333892822,5.9026336669921875,-4.396895885467529,-111.69155883789062, 6.162182331085205
530,676177822,0.03562653,0.033041943,-0.06545697,0.9966717,1.203604817390442,-3.2181544303894043,10.164190292358398,67.13818359375,-121.25143432617188, -2.6237759590148926
531,676194489,0.029303137,0.05870962,-0.06188685,0.9959241,-4.772958278656006,-4.5376362800598145,-32.22897720336914,32.6146125793457,-177.8638916015625, 31.14811134338379
532,676211156,0.02133531,0.11469856,-0.03389876,0.9925925,40.2684440612793,-2.4922714233398438,-36.98015594482422,205.7235107421875,-382.5621643066406, 19.09946060180664
533,676227823,0.01838596,0.15509199,-0.027342342,0.98735046,27.901323318481445,3.903752088546753,57.29037094116211,52.704368591308594,-278.83343505859375, 5.108027458190918
534,676244490,0.003350181,0.19575441,-0.02746542,0.98026264,16.010412216186523,-5.269374847412109,7.811529636383057,19.83745002746582,-285.6131896972656, 94.05937957763672
535,676261157,-0.005761975,0.2230575,-0.023936024,0.97449446,28.373889923095703,-1.0909112691879272,13.82950496673584,36.484771728515625,-192.38134765625, 51.71595001220703
536,676277824,-0.0062233945,0.25069514,-0.023318224,0.9677652,25.449569702148438,12.48560619354248,13.7490816116333,3.5340943336486816,-194.30064392089844, -1.793870449066162
537,676294491,-0.0010045961,0.27496216,-0.030240508,0.960979,18.569202423095703,2.7845442295074463,13.005459785461426,-56.449771881103516,-170.53134155273438, -25.918193817138672
538,676311158,0.0050866613,0.28836694,-0.03346715,0.95692146,1.6800799369812012,-1.2666031122207642,10.322799682617188,-33.0806999206543,-93.32324981689453, -36.36729431152344
539,676327825,0.007916872,0.3052084,-0.03794275,0.95149654,-9.921009063720703,-1.6501264572143555,2.8462769985198975,-35.02650833129883,-119.5079574584961, -13.273963928222656
540,676344492,0.008983541,0.31751412,-0.04525749,0.9471303,-12.762063980102539,-1.3603203296661377,5.134957313537598,-49.852725982666016,-88.36165618896484, 5.445016860961914
541,676361159,0.008117276,0.32627237,-0.04966787,0.9439352,-10.597465515136719,0.3537977635860443,5.137545108795166,-26.559572219848633,-63.305091857910156, 12.843273162841797
542,676377826,0.00611683,0.3326193,-0.050315898,0.94169825,-8.691089630126953,3.1884865760803223,6.653075695037842,0.5913122892379761,-45.8370246887207, 12.627595901489258
543,676394493,0.004023303,0.33720267,-0.050525676,0.9400666,-3.212648391723633,3.4967598915100098,8.15752124786377,3.7449328899383545,-33.19321060180664, 12.87750244140625
544,676411160,0.002396545,0.34028697,-0.04807544,0.93908876,0.42777305841445923,1.6822540760040283,9.992764472961426,20.00395965576172,-21.854259490966797, 4.257413864135742
545,676427827,0.000671763,0.34219977,-0.044081874,0.93859243,3.296130418777466,-1.7506242990493774,13.508332252502441,30.314228057861328,-13.251241683959961, 1.6861225366592407
546,676444494,-0.0016935236,0.3436793,-0.042612426,0.9381182,5.586974620819092,-4.7139434814453125,15.53918743133545,15.540986061096191,-10.688043594360352, 11.871231079101562
547,676461161,-0.004852846,0.34456554,-0.045218304,0.9376601,6.988072872161865,-3.1926376819610596,14.044061660766602,-8.828377723693848,-7.082444667816162, 26.75259017944336
548,676477828,-0.007671624,0.34413636,-0.050729863,0.9375169,5.14127779006958,-1.0054526329040527,10.371479034423828,-28.209945678710938,2.2983126640319824, 31.81576919555664
549,676494495,-0.008877821,0.34144065,-0.0549437,0.9382541,2.4371864795684814,1.3592205047607422,9.05538558959961,-23.23546028137207,19.44782829284668, 19.091901779174805
550,676511162,-0.008313394,0.33736008,-0.055379514,0.9397086,0.07419086992740631,0.10794930905103683,8.510566711425781,-2.687177896499634,30.452669143676758, -0.7046716213226318
551,676527829,-0.007583654,0.33239496,-0.051803097,0.94168615,-1.7031521797180176,-0.40729114413261414,9.338716506958008,23.09016227722168,37.147560119628906, -10.774456024169922
552,676544496,-0.007672493,0.32713795,-0.04982104,0.9436312,-1.1514497995376587,-1.0817945003509521,10.878961563110352,14.634652137756348,38.66582489013672, -1.7357832193374634
553,676561163,-0.009300972,0.32164502,-0.048199676,0.94558704,0.003354918211698532,-2.5187673568725586,10.034204483032227,15.771286010742188,39.619598388671875, 9.12863826751709
554,676577830,-0.011942416,0.31458515,-0.044950444,0.94808924,1.050559639930725,-3.191321611404419,10.223180770874023,28.887174606323242,50.501827239990234, 12.572554588317871
555,676594497,-0.014464673,0.30521348,-0.038907304,0.95137894,1.8255864381790161,-2.0136866569519043,9.179560661315918,47.29365158081055,67.0201416015625, 6.374711036682129
556,676611164,-0.015527337,0.2933336,-0.030067772,0.9554112,1.5094590187072754,0.48771753907203674,8.517801284790039,62.982383728027344,85.0531234741211, -8.457035064697266
557,676627831,-0.015274877,0.27888787,-0.022614662,0.95993596,1.6866395473480225,2.259530782699585,8.428238868713379,51.58982467651367,103.28076171875, -13.812703132629395
558,676644498,-0.014077745,0.26267114,-0.02050096,0.9645651,2.4457576274871826,5.560127258300781,8.221548080444336,14.71536636352539,115.84210205078125, -9.522659301757812
559,676661165,-0.012894593,0.24480759,-0.022944089,0.96921456,3.7572293281555176,5.769608497619629,7.510034084320068,-15.376280784606934,127.21671295166016, -0.927386999130249
560,676677832,-0.011077849,0.22341837,-0.02556229,0.97432446,6.7076826095581055,5.604926586151123,7.5483880043029785,-17.287508010864258,151.60435485839844, -4.300137042999268
561,676694499,-0.0086652795,0.19514483,-0.031790707,0.980221,10.705314636230469,4.770662307739258,9.363656997680664,-41.79533004760742,199.35806274414062, -1.5618219375610352
562,676711166,-0.0048385006,0.15862022,-0.04803499,0.9861587,14.326394081115723,1.7409255504608154,10.044700622558594,-110.78273010253906,256.0379943847656, 4.1678619384765625
563,676727833,0.00079997414,0.11188245,-0.07055449,0.9912134,16.108123779296875,0.20819517970085144,8.334268569946289,-155.33995056152344,325.3228454589844, 2.1281673908233643
564,676744500,0.00882847,0.054457117,-0.09251734,0.9941817,20.023967742919922,1.7099871635437012,10.942750930786133,-154.51483154296875,397.9722595214844, -9.42707633972168
565,676761167,0.019627282,-0.010127578,-0.10392845,0.9943395,21.338468551635742,0.2770232856273651,17.641284942626953,-85.68000793457031,448.532958984375, -27.93023109436035
566,676777834,0.031143736,-0.07317781,-0.107587755,0.9910096,10.124062538146973,-9.038639068603516,17.308042526245117,-35.47998046875,439.6411437988281, -31.645240783691406
567,676794501,0.04427004,-0.11077826,-0.099033795,0.9879073,25.985794067382812,-11.727705001831055,-19.03443145751953,54.02238082885742,269.82098388671875, -55.304988861083984
568,676811168,0.05158269,-0.13105136,-0.070006706,0.9875546,12.620278358459473,-22.24034881591797,-18.02694320678711,195.71292114257812,152.53439331054688, -10.800803184509277
569,676827835,0.060205888,-0.13890007,-0.05721066,0.98681766,-13.198487281799316,22.231674194335938,14.007373809814453,90.29936981201172,63.346168518066406, -38.6348876953125
570,676844502,0.053778954,-0.13061665,-0.0863522,0.98620015,-5.347264289855957,-17.38522720336914,-3.9525513648986816,-200.3172149658203,-69.11827087402344, 12.810452461242676
571,676861169,0.052038815,-0.1141829,-0.07824316,0.9890059,-10.083589553833008,-2.8780877590179443,10.792279243469238,60.207088470458984,-111.56480407714844, 14.775705337524414
572,676877836,0.049991075,-0.09249229,-0.07404981,0.9916969,-9.955292701721191,-1.6062202453613281,14.494990348815918,35.60486602783203,-148.71438598632812, 10.218450546264648
573,676894503,0.04802186,-0.07094424,-0.06976096,0.9938785,-6.683581352233887,-2.9950220584869385,15.653852462768555,36.24778366088867,-147.34698486328125, 9.325721740722656
574,676911170,0.046148274,-0.053430606,-0.06283921,0.9955234,-7.137936592102051,-0.7818425297737122,19.7286376953125,53.13740921020508,-118.4816665649414, 10.591900825500488
575,676927837,0.045106906,-0.04214861,-0.055193547,0.9965654,-9.65111255645752,2.05413556098938,22.649459838867188,56.47182083129883,-74.93515014648438, 6.508767604827881
576,676944504,0.04447886,-0.037634898,-0.048417084,0.9971265,-9.55186653137207,0.6916336417198181,20.25483512878418,48.5732536315918,-28.523479461669922, 4.671635627746582
577,676961171,0.04470392,-0.038361575,-0.03950151,0.9974819,-7.594379425048828,-0.3433990478515625,16.369762420654297,61.780818939208984,8.299108505249023, 0.9366371631622314
578,676977838,0.045126475,-0.040381193,-0.03461498,0.9975646,-5.502829074859619,-1.48422110080719,13.285290718078613,33.66560745239258,15.959447860717773, -0.974017322063446
579,676994505,0.04488745,-0.040385306,-0.030155925,0.99771976,-4.204168796539307,-1.2719968557357788,8.81406021118164,31.14920425415039,1.7622430324554443, 3.212528705596924
580,677011172,0.043916218,-0.03707592,-0.03151511,0.9978495,-5.873084545135498,0.41335442662239075,8.681208610534668,-8.125608444213867,-22.974870681762695, 6.756433963775635
581,677027839,0.04084316,-0.030102095,-0.04508893,0.9976938,-8.321725845336914,-1.8497610092163086,11.258129119873047,-91.55315399169922,-52.2835807800293, 17.804378509521484
582,677044506,0.038568884,-0.019822795,-0.06388679,0.9970146,-4.9886064529418945,-1.4474133253097534,15.209447860717773,-126.45587158203125,-76.20789337158203, 10.235918045043945
583,677061173,0.036911376,-0.0060513834,-0.083580464,0.9957988,-1.6535289287567139,-3.0289087295532227,10.241087913513184,-131.76544189453125,-100.12651062011719, 4.066568851470947
584,677077840,0.036364783,0.011349302,-0.08966273,0.99524343,0.4123804569244385,-4.868695259094238,8.449877738952637,-37.11659240722656,-120.91010284423828, -5.19367790222168
585,677094507,0.03275648,0.03050653,-0.084701985,0.99540037,-2.180433511734009,-6.751362323760986,2.9913644790649414,39.742618560791016,-131.8582305908203, 12.9887113571167
586,677111174,0.020934882,0.07528403,-0.06749216,0.99465525,14.939057350158691,-11.171479225158691,-60.989837646484375,130.65643310546875,-309.5501403808594, 51.50634002685547
587,677127841,0.019211689,0.12710351,-0.05638858,0.9900991,61.59737014770508,12.807741165161133,44.74606704711914,83.11177825927734,-355.67706298828125, -18.285537719726562
588,677144508,0.008424273,0.17417644,-0.04194159,0.9837848,5.665430545806885,-3.9337666034698486,12.582998275756836,112.28509521484375,-327.3950500488281, 42.2978401184082
589,677161175,-0.0011172155,0.20935822,-0.044596598,0.976821,15.427742004394531,-0.8637290596961975,15.338335037231445,-5.768673896789551,-248.27684020996094, 57.70972442626953
590,677177842,-0.008483608,0.23641872,-0.03664312,0.9709231,19.371126174926758,5.421922206878662,8.476147651672363,62.75172805786133,-191.49842834472656, 30.314729690551758
591,677194509,-0.008034556,0.26320592,-0.040080655,0.96387327,17.406766891479492,3.607250928878784,10.593276023864746,-26.330028533935547,-188.76626586914062, -3.146026849746704
592,677211176,-0.0039659706,0.27960706,-0.04075149,0.95924115,9.971489906311035,1.138268232345581,13.257844924926758,-13.340989112854004,-114.59871673583984, -29.351919174194336
593,677227843,-0.00022096002,0.29532313,-0.04306267,0.9544265,0.7689467668533325,-0.28256160020828247,6.955143928527832,-23.591453552246094,-110.46981048583984, -23.83938217163086
594,677244510,0.001616621,0.30982122,-0.04642652,0.94965947,-4.643392562866211,0.7478600144386292,4.546924591064453,-26.61093521118164,-102.98607635498047, -8.819536209106445
595,677261177,0.0026032953,0.3209117,-0.047513645,0.9459132,-8.339386940002441,-1.4821758270263672,4.975495338439941,-9.650031089782715,-78.88422393798828, -7.01228666305542
596,677277844,0.0017520105,0.32969466,-0.04718902,0.942906,-8.262545585632324,-2.8140878677368164,7.055042266845703,3.797744035720825,-62.929710388183594, 2.5658328533172607
597,677294511,-0.0008528418,0.33667347,-0.04544737,0.94052374,-6.125222206115723,-2.4741413593292236,8.393956184387207,17.158554077148438,-50.488399505615234, 11.271810531616211
598,677311178,-0.004813095,0.34193397,-0.04348453,0.93870527,-3.197895050048828,-1.9166311025619507,9.207258224487305,21.92649269104004,-38.607662200927734, 20.019712448120117
599,677327845,-0.009362046,0.34502214,-0.040924396,0.9376553,0.4440234303474426,-0.40181758999824524,10.662728309631348,27.475872039794922,-23.067123413085938, 23.010255813598633
600,677344512,-0.01286024,0.3473758,-0.04079418,0.9367502,5.518034934997559,0.4632582664489746,12.485519409179688,9.402444839477539,-17.608196258544922, 22.1887264251709
601,677361179,-0.014486602,0.3493685,-0.042799093,0.93589544,8.124700546264648,-0.3808325231075287,12.87114429473877,-8.78506851196289,-14.4931001663208, 15.337418556213379
602,677377846,-0.014212789,0.35061088,-0.04411489,0.93537384,6.993709087371826,-0.26546311378479004,12.050309181213379,-8.74959659576416,-8.40026569366455, 1.6483509540557861
603,677394513,-0.012436247,0.351517,-0.046639092,0.9349365,3.5139942169189453,0.4655894339084625,11.308258056640625,-20.093244552612305,-5.491179466247559, -5.003833293914795
604,677411180,-0.009959025,0.3508831,-0.047788996,0.9351461,0.9164767861366272,-0.14572785794734955,9.124269485473633,-12.627189636230469,6.026412010192871, -12.384522438049316
605,677427847,-0.007331037,0.34818205,-0.0472559,0.9362064,-0.14517152309417725,-0.4353220760822296,8.901695251464844,-1.756881833076477,21.24673080444336, -16.796863555908203
606,677444514,-0.005103366,0.34358516,-0.046805143,0.93794054,-1.0753390789031982,-0.5416860580444336,9.113533020019531,-1.0197362899780273,34.87398147583008, -13.449974060058594
607,677461181,-0.0039818557,0.3376539,-0.04734807,0.94007033,-0.47716832160949707,-0.5481566190719604,9.76630973815918,-4.645241737365723,44.02158737182617, -3.565364122390747
608,677477848,-0.004186876,0.33094916,-0.04835791,0.94239956,-0.13818977773189545,0.12405215948820114,9.939163208007812,-4.502342224121094,48.99646759033203, 6.327948093414307
609,677494515,-0.0049382546,0.3227335,-0.04862015,0.9452275,1.23224937915802,0.12924399971961975,9.331106185913086,1.7838257551193237,59.65293502807617, 8.65021800994873
610,677511182,-0.0058220616,0.31271508,-0.045676738,0.9487303,3.8252522945404053,-0.8679819703102112,9.054433822631836,23.187902450561523,72.66503143310547, 2.976468086242676
611,677527849,-0.006407528,0.30120546,-0.03974404,0.9527093,3.5953927040100098,-0.7199291586875916,9.86858081817627,42.25362014770508,83.36811828613281, -4.951241493225098
612,677544516,-0.0063006384,0.28926092,-0.036344983,0.95653945,3.2845799922943115,-0.5795862078666687,9.115044593811035,24.199710845947266,86.18167114257812, -4.117127418518066
613,677561183,-0.005947167,0.27751347,-0.0355109,0.9600469,1.7916210889816284,1.6273199319839478,9.239842414855957,6.748956680297852,84.39324188232422, -0.6766917705535889
614,677577850,-0.004815088,0.26411027,-0.035763763,0.9638172,1.7733650207519531,4.433508396148682,8.062946319580078,-1.7987487316131592,96.02518463134766, -3.3389034271240234
615,677594517,-0.0029406252,0.24661787,-0.037632924,0.9683776,3.379939079284668,4.748985290527344,7.524565696716309,-13.570810317993164,124.77082061767578, -4.314429759979248
616,677611184,-0.001078131,0.2228001,-0.039086886,0.9740796,8.495511054992676,5.738674163818359,7.819875240325928,-10.411280632019043,168.81292724609375, -3.295393466949463
617,677627851,0.0023619623,0.18996407,-0.048561852,0.9805866,15.158349990844727,5.597234725952148,9.006486892700195,-66.33833312988281,230.9971923828125, 0.8802123069763184
618,677644518,0.007374426,0.1486411,-0.071694314,0.98626137,16.943359375,0.30513691902160645,10.68735122680664,-161.00637817382812,287.59515380859375, 10.973376274108887
619,677661185,0.011604085,0.09901321,-0.09681212,0.9902976,18.40214729309082,0.4356522858142853,11.580039024353027,-174.96182250976562,341.93658447265625, 22.32841682434082
620,677677852,0.018434467,0.040796027,-0.1153477,0.99231595,18.110565185546875,3.4676828384399414,13.561689376831055,-133.98684692382812,401.51751708984375, 5.698884963989258
621,677694519,0.028430073,-0.021643015,-0.12613092,0.99136996,10.699747085571289,-4.101511001586914,15.43799877166748,-85.28215789794922,432.70025634765625, -12.77664566040039
622,677711186,0.039277513,-0.07682196,-0.12285709,0.9886668,12.9891996383667,-11.206204414367676,4.0204949378967285,10.329026222229004,386.9405822753906, -23.22689437866211
623,677727853,0.049939033,-0.10380635,-0.10584205,0.9876881,25.786556243896484,-13.60986614227295,-27.978347778320312,112.7197036743164,197.98374938964844, -38.36215591430664
624,677744520,0.056844972,-0.121195525,-0.071834445,0.9883928,1.0130170583724976,-12.360645294189453,-1.8374074697494507,229.77076721191406,134.89532470703125, -6.326064109802246
625,677761187,0.06050826,-0.12274948,-0.07034695,0.9880904,-9.093376159667969,9.576234817504883,4.155733585357666,11.524276733398438,13.798394203186035, -18.998472213745117
626,677777854,0.056906436,-0.1134122,-0.076633886,0.9889524,-6.366162300109863,-10.499309539794922,-1.3109126091003418,-40.991615295410156,-67.56303405761719, 15.642373085021973
627,677794521,0.053505883,-0.09649747,-0.08061034,0.99061966,-9.472790718078613,-1.1810489892959595,10.053516387939453,-23.154796600341797,-119.34683227539062, 16.387622833251953
628,677811188,0.04990189,-0.074077904,-0.08477371,0.9923889,-8.1572265625,-4.19545841217041,12.352116584777832,-22.152448654174805,-157.1243896484375, 14.21940803527832
629,677827855,0.046228614,-0.05081673,-0.08310114,0.9941704,-6.405097007751465,-4.449746608734131,16.03774070739746,18.394105911254883,-160.8419189453125, 16.321218490600586
630,677844522,0.042598546,-0.030175088,-0.077708304,0.9956085,-6.385397434234619,-1.9394503831863403,20.65770721435547,43.21681213378906,-141.48390197753906, 17.67667579650879
631,677861189,0.039291233,-0.014065943,-0.07512058,0.9963008,-6.846475601196289,-0.859185516834259,22.322021484375,22.779985427856445,-110.7610855102539, 15.277144432067871
632,677877856,0.036626305,-0.0034873723,-0.06927355,0.9969191,-4.186681270599365,-1.4891421794891357,18.349361419677734,43.74043655395508,-71.63719177246094, 13.282577514648438
633,677894523,0.03590092,0.0009409971,-0.0587057,0.9976292,-4.238237380981445,0.9093678593635559,18.92262840270996,74.66472625732422,-27.399620056152344, 2.748695135116577
634,677911190,0.036312647,0.0033304433,-0.053638265,0.9978945,-5.6553778648376465,0.9862412214279175,15.388983726501465,36.205787658691406,-14.376919746398926, -4.316864013671875
635,677927857,0.036209065,0.0061615584,-0.051919326,0.9979756,-7.293654441833496,-1.5722782611846924,14.653020858764648,13.215300559997559,-18.52164077758789, -0.6604886651039124
636,677944524,0.03497752,0.010719707,-0.053066015,0.9979209,-4.81048059463501,-1.7279614210128784,16.458694458007812,-6.106731414794922,-31.609739303588867, 7.14780855178833
637,677961191,0.034885332,0.017366715,-0.057834767,0.9975653,-3.797179698944092,1.491594672203064,18.62265396118164,-30.761560440063477,-46.53062438964844, -0.3827347457408905
638,677977858,0.03648703,0.025937334,-0.06952251,0.9965755,-1.052960991859436,1.174110770225525,16.56139373779297,-78.32148742675781,-60.90625762939453, -11.34130573272705
639,677994525,0.036451876,0.037547674,-0.077699415,0.99560267,0.9033284187316895,-6.986109256744385,11.317784309387207,-53.217994689941406,-81.692138671875, -2.056448221206665
640,678011192,0.03486752,0.05140463,-0.070181906,0.99559844,2.3471105098724365,-5.9230451583862305,13.459768295288086,55.8161735534668,-93.67402648925781, 3.175806760787964
641,678027859,0.030134171,0.06709772,-0.060922302,0.99542874,-4.210857391357422,-4.218408584594727,2.0713367462158203,69.33150482177734,-107.27483367919922, 22.077089309692383
642,678044526,0.018449476,0.10526506,-0.023550745,0.9939941,15.760567665100098,-11.977709770202637,-74.15855407714844,269.2311706542969,-258.923095703125, 47.01482391357422
643,678061193,0.01886603,0.14639784,-0.02550743,0.98871696,53.04703140258789,13.778674125671387,39.24512481689453,-8.514344215393066,-284.6689758300781, -8.26850700378418
644,678077860,0.0031382528,0.18292269,-0.028107878,0.98272055,3.3217713832855225,-6.736506938934326,4.851062297821045,2.484569787979126,-256.55755615234375, 103.00648498535156
645,678094527,0.0018315989,0.21752809,-0.03281158,0.9755008,44.2437744140625,4.746535301208496,31.977224349975586,-30.077123641967773,-242.35684204101562, 8.49439525604248
646,678111194,0.00083980284,0.24578837,-0.032147508,0.96879005,6.201218605041504,3.491154432296753,4.342663764953613,5.4380693435668945,-198.6018829345703, -0.1161569356918335
647,678127861,0.0021405392,0.26949856,-0.034656685,0.96237475,10.36707592010498,3.381990432739258,9.735383033752441,-19.56113624572754,-167.26751708984375, -8.980775833129883
648,678144528,0.003916669,0.28521597,-0.035352573,0.9578031,4.28684139251709,-0.5654016137123108,6.5862812995910645,-8.148039817810059,-110.78025817871094, -13.509757995605469
649,678161195,0.005998713,0.2982911,-0.036628727,0.9537531,-5.042816162109375,2.738152265548706,6.930507659912109,-12.51008129119873,-92.3027572631836, -13.726441383361816
650,678177862,0.005116995,0.3101981,-0.036661472,0.94995123,-8.358274459838867,-0.21590788662433624,7.127817153930664,1.7170357704162598,-84.91566467285156, 3.478158473968506
651,678194529,0.0030193187,0.3193447,-0.03845561,0.9468535,-8.926192283630371,-0.9045840501785278,5.4542155265808105,-7.109470844268799,-65.86612701416016, 15.881803512573242
652,678211196,0.00009166286,0.32520327,-0.03748469,0.94490105,-8.888633728027344,-1.0410128831863403,6.920741558074951,12.956469535827637,-42.21549606323242, 16.083677291870117
653,678227863,-0.004675164,0.32895583,-0.03414443,0.9437163,-5.928553104400635,0.17484843730926514,8.524534225463867,32.664127349853516,-27.403329849243164, 23.248868942260742
654,678244530,-0.010033578,0.33161625,-0.03365919,0.9427604,0.32734808325767517,0.8590112924575806,10.18361759185791,15.563250541687012,-19.946449279785156, 33.779747009277344
655,678261197,-0.01537977,0.33405185,-0.034039646,0.94181436,5.4789652824401855,-1.4595537185668945,12.14915943145752,9.933337211608887,-18.465883255004883, 35.7279052734375
656,678277864,-0.018466275,0.335751,-0.03476903,0.94112784,8.860960006713867,-2.669135093688965,13.722356796264648,2.6273248195648193,-12.569436073303223, 22.03124237060547
657,678294531,-0.019088123,0.33636346,-0.035500225,0.94086933,7.88393497467041,-1.800647497177124,12.891453742980957,-2.823890209197998,-3.979945182800293, 6.276988506317139
658,678311198,-0.018158507,0.33600926,-0.035792723,0.9410033,5.073800086975098,-0.07221302390098572,11.136866569519043,-3.348207712173462,3.4800424575805664, -4.598414897918701
659,678327865,-0.016309408,0.33486453,-0.036345664,0.94142383,1.3465101718902588,1.362239122390747,10.220097541809082,-6.995845317840576,9.483333587646484, -9.784289360046387
660,678344532,-0.01431152,0.33324724,-0.0383095,0.9419522,-1.1635266542434692,0.07080372422933578,9.481383323669434,-16.407434463500977,12.93070125579834, -7.3840508460998535
661,678361199,-0.01335265,0.33014125,-0.040951,0.94294846,-2.0286684036254883,-1.2533031702041626,8.72006607055664,-18.153785705566406,23.367961883544922, 1.2367961406707764
662,678377866,-0.013644282,0.32544386,-0.04363599,0.9444555,-2.6028244495391846,-0.5489789843559265,8.902644157409668,-15.30667781829834,34.42752456665039, 9.823655128479004
663,678394533,-0.0146046225,0.3200125,-0.04981713,0.94599,-1.045310139656067,0.958402693271637,10.062172889709473,-36.4404411315918,39.30958557128906, 22.190752029418945
664,678411200,-0.015079315,0.31440386,-0.061699998,0.94716215,1.7131987810134888,2.346466541290283,10.487071990966797,-74.7182388305664,40.33676528930664, 31.67249870300293
665,678427867,-0.014907066,0.308446,-0.07202086,0.9483945,1.9382202625274658,1.703201413154602,8.439923286437988,-65.91108703613281,42.8056755065918, 24.238393783569336
666,678444534,-0.013814039,0.30053163,-0.07327264,0.9508529,3.302525281906128,0.02314833551645279,7.576035022735596,-7.94214391708374,57.656490325927734, -0.14389385282993317
667,678461201,-0.011298055,0.28895497,-0.0718499,0.9545759,2.5890562534332275,-1.469045877456665,8.477400779724121,7.576991081237793,84.6606216430664, -13.24561882019043
668,678477868,-0.008483264,0.2736233,-0.06908491,0.95931524,2.2704262733459473,-2.517676830291748,8.878033638000488,16.586585998535156,111.3471450805664, -16.10921287536621
669,678494535,-0.0061440263,0.2544904,-0.06526133,0.9648512,1.6835805177688599,-0.2686425745487213,7.755434036254883,25.07207489013672,137.6077117919922, -13.22580623626709
670,678511202,-0.0036186965,0.23102665,-0.05978177,0.9711023,2.977116823196411,0.946169912815094,7.8541669845581055,36.23021697998047,167.5883331298828, -15.449312210083008
671,678527869,-0.0007153171,0.20347638,-0.054344725,0.9775702,5.813423156738281,1.0361698865890503,7.885845184326172,35.520877838134766,195.37486267089844, -16.22464942932129
672,678544536,0.0045500225,0.17298494,-0.053548455,0.98345727,10.577550888061523,3.188314914703369,10.385994911193848,0.7991268634796143,215.26376342773438, -24.498374938964844
673,678561203,0.010309966,0.1392088,-0.061778426,0.9882804,13.52057933807373,2.1001625061035156,9.882196426391602,-61.372440338134766,236.1780548095703, -15.905253410339355
674,678577870,0.016455356,0.097354576,-0.0742957,0.9923365,14.879223823547363,3.2343873977661133,10.047816276550293,-91.82855224609375,290.3280029296875, -11.027494430541992
675,678594537,0.024782436,0.043749638,-0.08810491,0.99484146,22.301345825195312,1.592333436012268,14.670503616333008,-104.31067657470703,370.636474609375, -19.207164764404297
676,678611204,0.033040944,-0.016887892,-0.09251663,0.99501956,26.017038345336914,-2.8842365741729736,20.974498748779297,-42.96189880371094,419.5601501464844, -15.643158912658691
677,678627871,0.04127945,-0.0735023,-0.092386775,0.9921483,6.272425174713135,-5.008546352386475,12.774057388305664,-13.239027976989746,393.541259765625, -18.04102897644043
678,678644538,0.045337945,-0.100772604,-0.08406246,0.99031466,20.678022384643555,-22.39052391052246,-25.517860412597656,49.41932678222656,192.4246063232422, -3.9136404991149902
679,678661205,0.049092602,-0.11414682,-0.030243687,0.99178934,4.257481098175049,-10.374716758728027,-12.167737007141113,366.4139404296875,110.03397369384766, 20.620023727416992
680,678677872,0.051920716,-0.11540465,-0.03495616,0.99134463,-10.77761173248291,22.93939781188965,9.887349128723145,-29.800552368164062,8.933595657348633, -22.212841033935547
681,678694539,0.04794087,-0.10329045,-0.061100524,0.9916147,-3.847646713256836,-12.59761905670166,-1.7933632135391235,-176.61480712890625,-92.16541290283203, 4.253295421600342
682,678711206,0.04573794,-0.08094636,-0.05882879,0.9939291,-7.11883544921875,-1.8545148372650146,10.621726989746094,21.63308334350586,-153.59532165527344, 11.814884185791016
683,678727873,0.04299883,-0.05305051,-0.06219443,0.99572533,-6.653000354766846,0.6649292707443237,15.414005279541016,-15.462546348571777,-193.288330078125, 9.93722152709961
684,678744540,0.040707536,-0.026527768,-0.07278908,0.9961632,-5.966471195220947,-3.6732254028320312,20.032764434814453,-65.5998306274414,-185.41160583496094, 4.380810737609863
