PacketCounter,SampleTimeFine,Quat_W,Quat_X,Quat_Y,Quat_Z,Acc_X,Acc_Y,Acc_Z,Gyr_X,Gyr_Y,Gyr_Z 
1,373869738,0.13644767,0.83254516,0.10986509,0.52552855,-0.13887529075145721,0.42252206802368164,0.760188102722168,-3.8529212474823,0.12280809879302979, -0.28580108284950256
2,373886405,0.14126575,0.8773838,0.12722048,0.4405188,7.671616554260254,4.409506320953369,-15.041068077087402,-33.06764602661133,7.586051940917969, 16.512109756469727
3,373903072,0.13578567,0.9164937,0.14134777,0.34874427,9.712882041931152,4.707027912139893,-12.667346000671387,-18.077489852905273,-62.04985046386719, -19.59263038635254
4,373919739,0.13110806,0.9356692,0.14923307,0.2916563,11.633907318115234,3.269282102584839,-9.880842208862305,-8.874967575073242,-107.20899963378906, -40.05634307861328
5,373936406,0.12341625,0.9440667,0.15200444,0.26533204,13.313891410827637,2.1177799701690674,-7.890472412109375,6.836944103240967,-134.3376922607422, -50.27323532104492
6,373953073,0.112334915,0.94776505,0.15230426,0.25676015,14.041177749633789,1.3737045526504517,-7.301714897155762,25.451871871948242,-152.202392578125, -53.897987365722656
7,373969740,0.10189668,0.94932353,0.15151297,0.25582385,15.102313041687012,-0.25393474102020264,-5.542217254638672,20.386024475097656,-163.15126037597656, -55.770137786865234
8,373986407,0.094947,0.948532,0.14516792,0.2649506,15.912375450134277,-13.97057056427002,12.659616470336914,-24.5162353515625,-135.23306274414062, -29.09276008605957
9,374003074,0.06850844,0.94556123,0.13606764,0.28758672,11.675317764282227,-5.195605278015137,10.915982246398926,28.71108627319336,-106.47100830078125, -18.928686141967773
10,374019741,0.04719486,0.9409277,0.13014752,0.3090142,16.535903930664062,1.3048911094665527,-3.611802577972412,21.6429443359375,-119.64544677734375, -33.932701110839844
11,374036408,0.033808686,0.9367608,0.12765974,0.32409754,16.26534652709961,-0.5064406991004944,-0.6214951276779175,10.82292366027832,-138.25567626953125, -44.606712341308594
12,374053075,0.021729942,0.932612,0.12695657,0.33711255,10.7919921875,-2.8048617839813232,-0.9276525378227234,21.97406005859375,-133.16429138183594, -42.07239532470703
13,374069742,0.0051217265,0.9292713,0.1286588,0.34623083,10.804367065429688,-3.2766098976135254,-3.3462963104248047,62.8479118347168,-122.11760711669922, -34.980072021484375
14,374086409,-0.013058521,0.9263172,0.13183218,0.3526847,10.446602821350098,-1.7516542673110962,-2.5527031421661377,79.41986083984375,-108.3583755493164, -30.529924392700195
15,374103076,-0.02568402,0.9231774,0.13442467,0.3591854,10.471384048461914,-0.6575741767883301,-0.7667452096939087,47.57479476928711,-89.91118621826172, -30.073015213012695
16,374119743,-0.03206153,0.91989255,0.13535093,0.36667418,11.392712593078613,-0.8127744197845459,-0.41907116770744324,9.308517456054688,-73.30169677734375, -26.79979133605957
17,374136410,-0.03591862,0.9164535,0.13585575,0.3746551,11.455094337463379,-0.6306570768356323,0.23713544011116028,-3.4045045375823975,-60.877906799316406, -25.522624969482422
18,374153077,-0.039922573,0.91278076,0.13655463,0.38287142,10.711349487304688,-2.1080210208892822,1.110992193222046,1.818962812423706,-49.91695022583008, -22.518335342407227
19,374169744,-0.047699995,0.908869,0.1388576,0.39038497,10.66929817199707,-2.336383581161499,0.832180917263031,31.83591079711914,-43.04721450805664, -20.590478897094727
20,374186411,-0.056980275,0.9048151,0.14274427,0.3970986,10.579833030700684,-0.6502675414085388,0.5095679759979248,47.3288459777832,-39.79688262939453, -24.10161781311035
21,374203078,-0.06353977,0.9011426,0.14624515,0.40313435,9.784836769104004,-0.9895113110542297,0.2593434154987335,32.41286087036133,-40.96461486816406, -24.89816665649414
22,374219745,-0.06518567,0.8985813,0.14818542,0.40785244,9.521631240844727,-1.672347068786621,1.4401012659072876,0.2621680498123169,-49.65744400024414, -25.0897159576416
23,374236412,-0.06451586,0.89721066,0.1496132,0.41044712,9.014857292175293,-2.4901859760284424,1.3671425580978394,-12.895007133483887,-62.98582077026367, -25.607534408569336
24,374253079,-0.06449108,0.8966318,0.15227279,0.41073796,10.09864616394043,-1.9660457372665405,1.4798203706741333,-3.1216564178466797,-74.2878646850586, -29.606643676757812
25,374269746,-0.06481757,0.8963586,0.15523063,0.4101753,10.203694343566895,-2.7417681217193604,2.5976710319519043,1.2661488056182861,-76.48625183105469, -29.211589813232422
26,374286413,-0.06763388,0.896005,0.15922387,0.4089605,10.571285247802734,-1.8870662450790405,1.620579719543457,20.4099178314209,-75.54533386230469, -28.145355224609375
27,374303080,-0.07211243,0.89553136,0.16394678,0.40736336,10.309839248657227,-0.9169988632202148,1.4597289562225342,33.73095703125,-73.38813018798828, -26.837387084960938
28,374319747,-0.07541498,0.89560485,0.16844258,0.40476134,10.090412139892578,0.3172380030155182,0.7157936692237854,27.684797286987305,-79.64689636230469, -26.09539222717285
29,374336414,-0.076087676,0.89694375,0.1721288,0.40009305,10.371919631958008,0.6382901668548584,0.29558268189430237,12.2909574508667,-95.5953598022461, -24.13311195373535
30,374353081,-0.07345878,0.90052503,0.17546874,0.39098477,10.906064987182617,0.8717935681343079,-0.5719780921936035,-1.6028344631195068,-107.68378448486328, -22.5568790435791
31,374369748,-0.0676989,0.90580916,0.17829816,0.3783339,11.503120422363281,0.49612921476364136,-0.5879578590393066,-16.411813735961914,-113.5341796875, -21.38602638244629
32,374386415,-0.06004102,0.91179246,0.18046628,0.36395296,11.682435035705566,0.07695673406124115,-0.20209179818630219,-27.479360580444336,-120.02751922607422, -19.859909057617188
33,374403082,-0.051444672,0.9180965,0.18212283,0.34825787,11.70829963684082,-0.6686281561851501,-0.03067457675933838,-33.01236343383789,-127.71635437011719, -17.91442108154297
34,374419749,-0.042723283,0.9244613,0.18345055,0.33149984,11.736353874206543,-1.246370553970337,-0.2644546329975128,-33.26658630371094,-133.88694763183594, -15.667724609375
35,374436416,-0.033603407,0.9307876,0.18413465,0.31400588,11.449604988098145,-2.254687547683716,0.037343114614486694,-36.33686447143555,-138.52578735351562, -12.31721305847168
36,374453083,-0.023472957,0.9371887,0.18444234,0.29513997,11.864961624145508,-1.793614387512207,0.3169095814228058,-41.92055130004883,-148.557373046875, -11.688446044921875
37,374469750,-0.009818393,0.9434649,0.18390599,0.27560174,13.03235912322998,-0.6110170483589172,1.5741536617279053,-65.46908569335938,-156.94277954101562, -13.459098815917969
38,374486417,0.00879792,0.9488429,0.18191645,0.25792724,14.932608604431152,0.9873409867286682,2.5418295860290527,-102.690673828125,-149.35682678222656, -14.692169189453125
39,374503084,0.033092935,0.95284075,0.17844696,0.24322043,16.099620819091797,2.503007173538208,2.927760124206543,-146.12449645996094,-134.806640625, -16.652908325195312
40,374519751,0.05991954,0.95572245,0.17359799,0.22993053,16.268840789794922,-0.016092561185359955,3.7711703777313232,-166.96466064453125,-127.14615631103516, -12.900887489318848
41,374536418,0.08538981,0.9577961,0.16786021,0.21716005,16.46274757385254,-2.6525373458862305,4.918264865875244,-160.4149627685547,-121.25125122070312, -5.720093250274658
42,374553085,0.10849362,0.959346,0.1618451,0.20418292,15.730549812316895,-7.976143836975098,5.946944713592529,-145.35719299316406,-119.30775451660156, -1.1415083408355713
43,374569752,0.12907267,0.96023655,0.15694755,0.19145122,15.037942886352539,-11.450325965881348,7.0264787673950195,-128.00906372070312,-113.144775390625, -5.5960164070129395
44,374586419,0.15102005,0.95952845,0.15367755,0.18133241,13.175498008728027,-9.850994110107422,7.20017671585083,-139.25775146484375,-93.83480072021484, -17.62421417236328
45,374603086,0.18785544,0.9553632,0.1490697,0.1725402,13.65638256072998,-6.167624473571777,-3.3438339233398438,-244.21861267089844,-97.88363647460938, -29.683462142944336
46,374619753,0.22323143,0.9499649,0.14407869,0.16424365,14.269246101379395,-6.514785289764404,-8.694586753845215,-237.2186737060547,-92.09989929199219, -26.072364807128906
47,374636420,0.2505203,0.94412017,0.14303054,0.15943402,12.898058891296387,-7.683619022369385,-0.13879354298114777,-184.12893676757812,-54.688194274902344, -37.822261810302734
48,374653087,0.25226784,0.943011,0.14708275,0.15955587,4.736112117767334,-6.213277339935303,5.701388835906982,-9.401073455810547,6.044908046722412, -29.7985782623291
49,374669754,0.24853103,0.9419897,0.15115388,0.1674524,5.4527058601379395,0.03899090364575386,4.8449602127075195,18.557952880859375,62.01862335205078, -10.245221138000488
50,374686421,0.24969803,0.93869746,0.1519503,0.18278196,6.483671188354492,-1.1416319608688354,3.0401721000671387,-28.424955368041992,102.1399917602539, 15.713902473449707
51,374703088,0.24948223,0.9344204,0.15077631,0.20465595,7.087329387664795,-4.0200276374816895,2.6862661838531494,-30.447101593017578,143.69973754882812, 40.4100227355957
52,374719755,0.24239412,0.9306247,0.14738843,0.23121291,7.7485671043396,-7.297791481018066,0.7081635594367981,6.555791854858398,176.44879150390625, 72.83002471923828
53,374736422,0.22091727,0.9289461,0.14417125,0.25974876,8.344477653503418,-6.511902809143066,-0.45914870500564575,100.3587875366211,200.6267547607422, 100.02819061279297
54,374753089,0.19028774,0.92727137,0.14092332,0.28999826,9.550315856933594,-3.8533670902252197,-0.7608135342597961,157.0386199951172,220.59971618652344, 119.17222595214844
55,374769756,0.15493485,0.9236715,0.1374486,0.3223883,10.601841926574707,-1.7991734743118286,-0.7268741130828857,182.13099670410156,242.3637237548828, 130.96945190429688
56,374786423,0.12019722,0.9173031,0.13164648,0.35605776,10.756841659545898,-1.3751425743103027,-0.6403500437736511,168.92625427246094,253.53143310546875, 143.1613311767578
57,374803090,0.08624483,0.907843,0.123734936,0.39124516,12.736518859863281,-0.6832641959190369,-1.5595369338989258,154.90528869628906,268.2050476074219, 153.02374267578125
58,374819757,0.054609515,0.8949888,0.11413547,0.42776865,14.887275695800781,0.3974873423576355,-1.8862053155899048,132.76243591308594,282.6806335449219, 155.25425720214844
59,374836424,0.02815019,0.8791101,0.10096472,0.46495065,15.605937957763672,-0.664411187171936,-2.209390163421631,88.75593566894531,290.1896057128906, 159.91514587402344
60,374853091,0.0034990227,0.860787,0.08591337,0.5016497,16.406909942626953,-1.1088840961456299,-2.4234564304351807,71.67728424072266,293.48577880859375, 163.73658752441406
61,374869758,-0.021003325,0.83993226,0.070711195,0.5376548,18.204145431518555,-1.000640869140625,-2.0998573303222656,70.6329574584961,298.0807800292969, 162.63584899902344
62,374886425,-0.04534159,0.8170918,0.055303697,0.57205486,19.428247451782227,-0.9940869212150574,-2.8481481075286865,70.0003662109375,296.1492004394531, 162.5181427001953
63,374903092,-0.07026098,0.79280514,0.041333452,0.6039991,19.92608070373535,-0.05678185820579529,-3.8545212745666504,80.2905502319336,287.8695068359375, 156.98594665527344
64,374919759,-0.09539692,0.7670655,0.032095656,0.6336243,19.903175354003906,4.711543083190918,-3.385775566101074,102.51527404785156,279.1060791015625, 132.8345184326172
65,374936426,-0.11505626,0.74101895,0.023803392,0.661125,19.26923179626465,2.8894975185394287,-5.3215227127075195,78.37789916992188,267.4705505371094, 105.43196105957031
66,374953093,-0.13252585,0.71773416,0.016083907,0.6834004,16.662132263183594,3.584843158721924,-9.729701042175293,68.39586639404297,227.57806396484375, 97.20375061035156
67,374969760,-0.1385636,0.7023642,0.0042495388,0.6981882,11.098583221435547,6.814064979553223,-14.774829864501953,-13.723949432373047,156.05770874023438, 71.52840423583984
68,374986427,-0.1369326,0.69795996,-0.005584839,0.7029014,6.411220073699951,4.900161266326904,-17.138063430786133,-50.94932556152344,52.772117614746094, 35.06085205078125
69,375003094,-0.13495998,0.7030579,-0.005680394,0.6981856,9.302465438842773,4.935298919677734,-14.910887718200684,-15.010773658752441,-47.31917190551758, -4.791626930236816
70,375019761,-0.13325094,0.7138802,0.0011447484,0.6874723,11.090069770812988,4.802416801452637,-11.766385078430176,14.043673515319824,-110.1290054321289, -31.613513946533203
71,375036428,-0.13323584,0.7273114,0.012492817,0.67313474,12.871692657470703,3.0160748958587646,-8.846088409423828,41.4305305480957,-144.35498046875, -42.45255661010742
72,375053095,-0.1361066,0.7415138,0.028454544,0.6563708,14.16508960723877,3.4376046657562256,-7.26762580871582,76.64571380615234,-164.04620361328125, -49.8926887512207
73,375069762,-0.13987142,0.75567865,0.04605153,0.63817334,13.331501960754395,3.3525593280792236,-6.6876983642578125,88.92254638671875,-172.58969116210938, -52.867958068847656
74,375086429,-0.14128645,0.76929706,0.061485242,0.6200323,13.405732154846191,1.0043306350708008,-4.5470871925354,67.7106704711914,-168.60118103027344, -52.16722869873047
75,375103096,-0.13847926,0.77990556,0.065235116,0.6068901,13.839089393615723,-14.026880264282227,14.859723091125488,-3.586371898651123,-119.83843994140625, -14.53349494934082
76,375119763,-0.13670215,0.787113,0.06638028,0.5977954,10.838494300842285,-2.651482343673706,10.572953224182129,-7.660158157348633,-81.37702178955078, -1.8957560062408447
77,375136430,-0.12957218,0.79607666,0.067576505,0.58728737,18.818933486938477,1.1487663984298706,-6.5487961769104,-37.436073303222656,-98.95894622802734, -22.072776794433594
78,375153097,-0.12410523,0.80600715,0.073019,0.5741244,17.97513771057129,-0.517216145992279,-0.6829941272735596,-10.791463851928711,-120.34004211425781, -35.72231674194336
79,375169764,-0.11896396,0.81575257,0.0785198,0.5605624,11.448617935180664,-3.614651679992676,-0.8351850509643555,-8.389761924743652,-121.75831604003906, -34.4979248046875
80,375186431,-0.12121021,0.82373965,0.088332586,0.5467711,11.478961944580078,-2.8469836711883545,-1.0530065298080444,51.21896743774414,-115.82047271728516, -31.023265838623047
81,375203098,-0.1258067,0.83012336,0.098857775,0.5341302,10.070382118225098,-2.067495822906494,-1.2008283138275146,67.83229064941406,-102.45703887939453, -28.17772674560547
82,375219765,-0.12971388,0.83498275,0.1078558,0.5237799,9.705270767211914,-2.4343509674072266,-1.1923167705535889,58.04304504394531,-82.93814086914062, -25.018138885498047
83,375236432,-0.13129976,0.8387447,0.11420002,0.5159712,10.889729499816895,-1.7446175813674927,-1.0908392667770386,34.2527961730957,-63.758663177490234, -21.240549087524414
84,375253099,-0.13020006,0.841643,0.11890287,0.51043826,11.267058372497559,-0.13258732855319977,-0.5681434273719788,11.927815437316895,-48.21865463256836, -24.033153533935547
85,375269766,-0.12768076,0.8437305,0.12266963,0.5067235,10.823966979980469,-1.2644635438919067,0.8827629089355469,-0.32009685039520264,-35.20771026611328, -25.86742401123047
86,375286433,-0.12769745,0.84508055,0.1271026,0.50336623,10.683348655700684,-1.9934102296829224,1.3154690265655518,17.048095703125,-29.06101417541504, -21.82923698425293
87,375303100,-0.12816806,0.84629893,0.13194244,0.49994215,10.385878562927246,-0.9839521050453186,1.6213781833648682,21.258630752563477,-29.005529403686523, -22.692777633666992
88,375319767,-0.12868403,0.8478589,0.13677399,0.49585155,9.961718559265137,-1.6885565519332886,1.140143632888794,21.800443649291992,-34.057960510253906, -21.58869743347168
89,375336434,-0.12663384,0.85044897,0.14110859,0.49070272,9.77542495727539,-1.575718879699707,1.6613692045211792,5.211319446563721,-45.74319076538086, -25.5349063873291
90,375353101,-0.120067745,0.8547807,0.14402579,0.4839324,8.63498592376709,-2.6484668254852295,1.8711062669754028,-25.9091854095459,-64.28776550292969, -29.400033950805664
91,375369768,-0.11230174,0.8605132,0.14694722,0.47467053,8.938566207885742,-3.380251169204712,2.5917537212371826,-31.656530380249023,-84.81362915039062, -30.001462936401367
92,375386435,-0.10545119,0.86714315,0.15039067,0.46295327,9.132542610168457,-3.1585898399353027,2.5806519985198975,-22.776884078979492,-101.7945785522461, -27.334901809692383
93,375403102,-0.09986998,0.8744774,0.15514824,0.44860265,9.51319408416748,-1.659613847732544,1.066712737083435,-8.835572242736816,-119.42607879638672, -28.518112182617188
94,375419769,-0.09524342,0.8820866,0.16077307,0.43243966,9.632306098937988,-0.47393378615379333,0.9619417190551758,1.3286596536636353,-130.7774200439453, -29.25051498413086
95,375436436,-0.09127782,0.8897116,0.1665425,0.415145,10.241727828979492,0.102402463555336,0.07912488281726837,7.0175886154174805,-137.08413696289062, -27.3829288482666
96,375453103,-0.08867537,0.89701045,0.17287956,0.39701617,11.168603897094727,0.7477470636367798,0.21598485112190247,18.15373992919922,-140.0823516845703, -26.78827667236328
97,375469770,-0.08657922,0.90383774,0.17945966,0.37864977,11.783130645751953,0.966580867767334,-0.749925971031189,22.53432846069336,-139.8559112548828, -27.289091110229492
98,375486437,-0.083363816,0.9104389,0.18527506,0.36031204,12.248516082763672,0.44813913106918335,-0.5395535230636597,13.709142684936523,-140.06248474121094, -25.71697998046875
99,375503104,-0.07882912,0.9166975,0.18988986,0.3426278,12.549507141113281,0.015580309554934502,-0.40283942222595215,1.8575384616851807,-136.17779541015625, -22.269704818725586
100,375519771,-0.07197266,0.9226291,0.19303751,0.32605565,12.545597076416016,0.24702276289463043,-0.796129584312439,-17.50458526611328,-130.70640563964844, -19.518789291381836
101,375536438,-0.06072154,0.9284825,0.19421901,0.31066442,12.51174545288086,0.33623912930488586,-0.1830543577671051,-51.31471633911133,-127.96975708007812, -17.590499877929688
102,375553105,-0.045592517,0.93407536,0.19387811,0.29637125,13.18478012084961,0.15125444531440735,0.9755856990814209,-80.6713638305664,-125.02826690673828, -16.983163833618164
103,375569772,-0.02679308,0.93922573,0.19207357,0.28327593,14.283345222473145,0.8253988027572632,1.7900629043579102,-108.68692016601562,-120.9769515991211, -16.060739517211914
104,375586439,-0.004921388,0.9437611,0.18909189,0.27117378,15.097820281982422,1.3355138301849365,3.2359492778778076,-132.0096893310547,-117.34190368652344, -15.4784574508667
105,375603106,0.019591259,0.9473675,0.18586776,0.2599312,15.783117294311523,1.7562733888626099,3.61739182472229,-150.66329956054688,-113.61720275878906, -20.12875747680664
106,375619773,0.045586195,0.9500491,0.18368125,0.24817297,16.293060302734375,0.23582468926906586,2.9408957958221436,-157.9036102294922,-117.24496459960938, -30.85445785522461
107,375636440,0.06806383,0.9524061,0.18291323,0.23416433,16.749862670898438,-4.616288185119629,4.7554826736450195,-129.75363159179688,-126.6561050415039, -35.342594146728516
108,375653107,0.08434459,0.95456064,0.18384585,0.21886277,15.726503372192383,-7.542932510375977,7.338064670562744,-84.98048400878906,-126.3791275024414, -37.5007438659668
109,375669774,0.09683394,0.95597297,0.18696742,0.20440677,14.845466613769531,-9.570857048034668,8.40611457824707,-58.417850494384766,-113.8228988647461, -46.742774963378906
110,375686441,0.115979716,0.9557214,0.18829007,0.19414613,14.001616477966309,-10.808290481567383,5.191992282867432,-111.33444213867188,-93.81423950195312, -43.7733039855957
111,375703108,0.13715795,0.9551186,0.18916023,0.18208449,15.167681694030762,-9.701675415039062,-5.9701313972473145,-123.41300964355469,-108.26546478271484, -45.56156921386719
112,375719775,0.15319711,0.954865,0.18771568,0.17183293,12.785877227783203,-8.688225746154785,-8.967357635498047,-94.7938232421875,-92.33562469482422, -21.91633415222168
113,375736442,0.17013237,0.95267653,0.1884305,0.16720238,15.672974586486816,-3.539144992828369,-1.8180452585220337,-107.61425018310547,-51.98814392089844, -33.84525680541992
114,375753109,0.1683358,0.95212746,0.1909243,0.169306,4.869891166687012,-10.271781921386719,9.782135963439941,10.315978050231934,16.478355407714844, -14.033406257629395
115,375769776,0.16439252,0.95072,0.19137062,0.18023339,3.6947035789489746,0.693395733833313,8.202255249023438,9.377485275268555,75.73726654052734, 10.954825401306152
116,375786443,0.17388178,0.9456786,0.18831839,0.19998427,6.080961227416992,1.265310287475586,3.1124203205108643,-98.29592895507812,116.38603210449219, 22.41825294494629
117,375803110,0.18355002,0.93930304,0.18142758,0.22606127,6.887944221496582,-3.7892932891845703,1.3635050058364868,-114.39290618896484,154.62356567382812, 52.94318389892578
118,375819777,0.18271875,0.9333781,0.17261083,0.2561735,6.395565986633301,-5.078101634979248,1.9515422582626343,-54.04202651977539,190.71685791015625, 87.29147338867188
119,375836444,0.17216599,0.9274636,0.1625254,0.28940612,7.468157768249512,-3.2836403846740723,2.0454516410827637,2.4082188606262207,220.7233428955078, 116.43668365478516
120,375853111,0.15948264,0.92020017,0.14926854,0.3248323,8.792613983154297,-3.8150794506073,0.630949079990387,5.654242038726807,236.0816650390625, 142.01048278808594
121,375869778,0.13798392,0.91245973,0.13560568,0.36053973,10.681791305541992,-3.555690050125122,-1.0915881395339966,59.7532958984375,247.66151428222656, 164.1269989013672
122,375886445,0.10983798,0.90329903,0.1221572,0.39631337,12.314736366271973,-2.14876651763916,-1.379513144493103,100.60426330566406,258.13494873046875, 178.10023498535156
123,375903112,0.0780782,0.89174503,0.10882093,0.43226472,13.732091903686523,0.37703925371170044,-2.114710569381714,121.44830322265625,269.00555419921875, 185.49969482421875
124,375919779,0.04831583,0.8772599,0.094255954,0.46818456,15.394522666931152,1.7522815465927124,-2.1906256675720215,104.0570068359375,275.4857177734375, 185.03147888183594
125,375936446,0.02025608,0.8601046,0.07908317,0.5035432,16.108274459838867,0.9337387084960938,-2.703648090362549,91.36732482910156,279.493408203125, 181.44761657714844
126,375953113,-0.007984307,0.84024614,0.06494609,0.5382424,17.061336517333984,1.0066492557525635,-2.596566677093506,96.04039001464844,285.30767822265625, 174.5132598876953
127,375969780,-0.03321961,0.8180614,0.04980213,0.57200676,18.406246185302734,0.2411414533853531,-2.319526195526123,75.5207290649414,287.33013916015625, 168.32925415039062
128,375986447,-0.056700017,0.79437715,0.034226984,0.6038036,19.058574676513672,-0.8615623116493225,-3.060396194458008,64.98738861083984,281.74652099609375, 163.87171936035156
129,376003114,-0.081517115,0.76964694,0.020746201,0.6329046,19.837520599365234,-1.9913837909698486,-4.248706340789795,82.04885864257812,270.9680480957031, 158.8489990234375
130,376019781,-0.11194847,0.7434138,0.013692502,0.6592542,19.298465728759766,0.941859245300293,-4.687924861907959,140.92701721191406,260.2908630371094, 150.6687469482422
131,376036448,-0.13278744,0.7175689,0.008190627,0.6836633,18.15910530090332,8.510078430175781,-4.413039684295654,98.81440734863281,246.6394500732422, 100.86953735351562
132,376053115,-0.14496732,0.69776464,-0.0025003813,0.7015004,12.746652603149414,3.069700002670288,-11.350113868713379,26.500507354736328,190.20396423339844, 92.3217544555664
133,376069782,-0.14769639,0.68698424,-0.0144527275,0.7113576,8.320757865905762,8.263347625732422,-14.629165649414062,-34.01219940185547,110.06840515136719, 60.66140365600586
134,376086449,-0.14355591,0.6875158,-0.023181416,0.71146077,7.317296028137207,2.775892734527588,-15.309118270874023,-62.871726989746094,6.315056324005127, 20.78653335571289
135,376103116,-0.14359128,0.69485426,-0.0184367,0.70442843,10.090360641479492,4.131289005279541,-12.984896659851074,14.945268630981445,-74.409423828125, -16.47806167602539
136,376119783,-0.14413774,0.7059649,-0.008570405,0.6933719,11.650496482849121,4.890867710113525,-8.731457710266113,37.999507904052734,-116.8388671875, -34.916786193847656
137,376136450,-0.14421095,0.71955395,0.0028330593,0.6792918,12.922446250915527,3.6586430072784424,-7.210589408874512,40.5134162902832,-144.75894165039062, -41.72288131713867
138,376153117,-0.14518605,0.73403615,0.01691897,0.6631937,13.313128471374512,3.1950602531433105,-6.312811374664307,56.44343948364258,-161.46437072753906, -48.72184371948242
139,376169784,-0.14701192,0.74861914,0.032825567,0.645662,12.794934272766113,2.506232261657715,-6.176854610443115,69.23683166503906,-170.8832550048828, -52.57889938354492
140,376186451,-0.14663516,0.7627915,0.04665945,0.6280686,14.606345176696777,-2.0780415534973145,-1.773093581199646,49.215606689453125,-167.7825927734375, -51.72911071777344
141,376203118,-0.14612661,0.7737011,0.05242507,0.6142357,13.100687980651855,-14.631007194519043,14.047980308532715,15.698780059814453,-125.95661163330078, -14.88056755065918
142,376219785,-0.14835764,0.7816511,0.060179338,0.60281867,13.249342918395996,0.7531833052635193,6.726922988891602,40.68291473388672,-102.0154800415039, -17.675596237182617
143,376236452,-0.1441652,0.7918874,0.06696351,0.5896157,20.040164947509766,2.44417405128479,-4.946435451507568,0.49170905351638794,-122.96379852294922, -36.28587341308594
144,376253119,-0.1389579,0.80315495,0.07491035,0.57447493,15.34794807434082,-1.5850214958190918,-0.577964186668396,-0.3844883143901825,-139.32765197753906, -44.27152633666992
145,376269786,-0.13661163,0.8131816,0.0842236,0.55944586,10.058929443359375,-4.139321327209473,-1.8111701011657715,21.9132080078125,-133.7156524658203, -41.27808380126953
146,376286453,-0.14009765,0.82123244,0.09635935,0.54466945,10.392356872558594,-2.3901257514953613,-1.8197492361068726,67.07516479492188,-124.00364685058594, -36.08440399169922
147,376303120,-0.14431079,0.8276889,0.1079974,0.53145283,9.158778190612793,-2.1773681640625,-1.9055713415145874,69.8010025024414,-108.29301452636719, -33.142520904541016
148,376319787,-0.1485624,0.83269024,0.1180147,0.52022,9.58655071258545,-2.2545034885406494,-1.3493469953536987,64.06915283203125,-90.07518005371094, -26.862260818481445
149,376336454,-0.150966,0.8368875,0.12590854,0.51085794,11.274088859558105,-0.9495592713356018,-0.2586345374584198,45.171043395996094,-75.85651397705078, -23.89870834350586
150,376353121,-0.15113492,0.840497,0.13243797,0.50317335,11.997357368469238,1.0255649089813232,-0.17754009366035461,26.66950798034668,-64.73668670654297, -26.142688751220703
151,376369788,-0.14961116,0.84362185,0.13758835,0.49697945,11.350669860839844,-0.3189525604248047,0.06365741789340973,11.275430679321289,-54.63523483276367, -25.9827938079834
152,376386455,-0.15056016,0.8460078,0.14307559,0.4910521,10.414874076843262,-1.572523832321167,0.3176981508731842,27.275720596313477,-48.651023864746094, -20.45110321044922
153,376403122,-0.15232104,0.8480695,0.14907846,0.4851312,10.428336143493652,-0.20968320965766907,0.4397055506706238,34.051082611083984,-47.32545852661133, -21.048290252685547
154,376419789,-0.15355897,0.8502458,0.15491606,0.47906482,10.21037769317627,-0.8223830461502075,0.4132702946662903,30.472209930419922,-48.98973846435547, -21.543075561523438
155,376436456,-0.15349555,0.8528975,0.1600335,0.4726461,9.82214641571045,-1.1536866426467896,0.10605955868959427,20.367822647094727,-53.309444427490234, -20.746864318847656
156,376453123,-0.1496187,0.8569482,0.16371654,0.46524328,9.537318229675293,-1.9054769277572632,0.017483368515968323,-7.061211585998535,-66.3648681640625, -22.157907485961914
157,376469790,-0.142943,0.86218226,0.16608728,0.456754,9.730144500732422,-1.883467197418213,0.3024856150150299,-27.761009216308594,-78.4056396484375, -20.95511245727539
158,376486457,-0.1343698,0.86813706,0.16780218,0.44735372,10.6533784866333,-0.9717170000076294,0.36914902925491333,-40.760597229003906,-87.65612030029297, -21.333616256713867
159,376503124,-0.12636569,0.87416905,0.17028962,0.43687755,10.66822624206543,-0.3981119990348816,0.7987896203994751,-33.81003952026367,-94.4518051147461, -23.132488250732422
160,376519791,-0.12086441,0.8800282,0.17405987,0.42502406,10.303415298461914,-0.8011850714683533,0.5762374997138977,-13.159575462341309,-100.48223114013672, -22.324838638305664
161,376536458,-0.11777638,0.88574255,0.17903556,0.41174665,10.576502799987793,-0.3333097994327545,0.31403353810310364,6.788156509399414,-106.86972045898438, -21.563289642333984
162,376553125,-0.1155017,0.8913552,0.18443373,0.3976552,10.947985649108887,0.576166570186615,0.44358259439468384,14.030475616455078,-110.96341705322266, -21.295894622802734
163,376569792,-0.11279655,0.897061,0.18969026,0.3828529,11.331317901611328,0.09478309750556946,0.13635610044002533,11.843791007995605,-116.10010528564453, -20.894479751586914
164,376586459,-0.10966057,0.9028589,0.19466877,0.36732075,11.946794509887695,-0.6152526140213013,-0.2802688479423523,9.34743881225586,-121.28887176513672, -19.619007110595703
165,376603126,-0.10526327,0.9085421,0.19918904,0.35184503,12.264666557312012,-0.4540853202342987,-0.4071841537952423,0.36659514904022217,-122.09622955322266, -20.15364646911621
166,376619793,-0.098049216,0.91431063,0.20259711,0.3367154,12.157033920288086,-0.6063377261161804,-0.48993831872940063,-20.454853057861328,-123.30745697021484, -20.16692352294922
167,376636460,-0.08746329,0.92021245,0.20446105,0.3221102,11.999944686889648,-0.7819097638130188,0.054274141788482666,-46.05542755126953,-124.0899887084961, -18.445043563842773
168,376653127,-0.07323237,0.9260701,0.20494941,0.30826494,12.666796684265137,-0.37807029485702515,0.4978834390640259,-73.21503448486328,-123.60881805419922, -18.37409019470215
169,376669794,-0.056307256,0.9316831,0.20447621,0.29493323,13.63565731048584,-0.529196560382843,1.0160393714904785,-93.01469421386719,-123.28461456298828, -18.611774444580078
170,376686461,-0.037380163,0.9368514,0.20316166,0.28220198,14.571817398071289,-0.3150511085987091,2.012491226196289,-108.22379302978516,-121.2059555053711, -18.21358871459961
171,376703128,-0.01641957,0.941397,0.20122598,0.27020442,15.12018871307373,0.7210559844970703,2.5667474269866943,-123.40352630615234,-118.16870880126953, -19.29942512512207
172,376719795,0.008298289,0.945297,0.19902785,0.25832656,16.05289649963379,-0.22733467817306519,3.010554075241089,-148.28684997558594,-121.59532928466797, -25.596813201904297
173,376736462,0.032868717,0.94885886,0.19676611,0.24468307,16.55745506286621,-4.985699653625488,4.654855251312256,-145.05267333984375,-132.5247802734375, -25.61977767944336
174,376753129,0.053559113,0.9519771,0.19535603,0.22958101,16.570619583129883,-7.998150825500488,6.923386573791504,-116.53495788574219,-136.12648010253906, -25.791444778442383
175,376769796,0.072827,0.9540248,0.19344066,0.21705715,17.3084659576416,-11.068992614746094,8.507798194885254,-112.04265594482422,-116.13067626953125, -20.959280014038086
176,376786463,0.09510718,0.95492643,0.19258791,0.20489044,13.8129243850708,-10.04106616973877,-0.15719446539878845,-131.48468017578125,-115.87146759033203, -34.06017303466797
177,376803130,0.11144824,0.95588595,0.19446208,0.18985726,15.80124282836914,-9.135971069335938,-5.013064861297607,-85.03750610351562,-125.25039672851562, -45.606201171875
178,376819797,0.12623447,0.9560248,0.19607107,0.17786999,15.796792030334473,-3.469552755355835,-4.315406322479248,-80.08929443359375,-102.42247009277344, -40.79800796508789
179,376836464,0.13737693,0.9551939,0.19773497,0.17214285,11.431129455566406,-11.021998405456543,2.863161087036133,-65.42176055908203,-55.280094146728516, -32.714683532714844
180,376853131,0.1283038,0.9557272,0.20110512,0.17228024,7.4137468338012695,-3.771240234375,8.39842700958252,62.5064697265625,10.62986946105957, -12.674978256225586
181,376869798,0.12663989,0.9537891,0.20324044,0.18149988,6.238524913787842,0.23533788323402405,5.738955497741699,-2.2696750164031982,61.96394729614258, -8.67027473449707
182,376886465,0.12817994,0.9506632,0.20082837,0.1986894,6.620485782623291,-4.6328043937683105,2.9771595001220703,-40.93536376953125,107.47400665283203, 22.502389907836914
183,376903132,0.12077679,0.9476334,0.19639091,0.22098549,5.7476115226745605,-4.290498733520508,2.0519516468048096,7.821272850036621,151.5213623046875, 52.62574768066406
184,376919799,0.10724126,0.943668,0.19061236,0.2483083,6.403358459472656,-2.5961039066314697,2.7388246059417725,38.21489334106445,193.1239471435547, 73.66983032226562
185,376936466,0.09322505,0.93766683,0.1821327,0.2809229,6.649123668670654,-1.8757907152175903,3.0765907764434814,28.35997772216797,229.80128479003906, 93.34241485595703
186,376953133,0.07980351,0.929511,0.16951716,0.31765524,8.120071411132812,-2.5070722103118896,2.467693567276001,10.073752403259277,257.3272705078125, 118.88301086425781
187,376969800,0.062605195,0.91928774,0.1542118,0.35666433,10.444930076599121,-1.984236478805542,0.08188778162002563,24.59756851196289,279.4958190917969, 143.21702575683594
188,376986467,0.041945267,0.90653235,0.13724229,0.3969943,12.453474998474121,-0.05850810185074806,-1.6005866527557373,39.943973541259766,297.1582336425781, 160.1626739501953
189,377003134,0.020841645,0.8913978,0.11765602,0.43718734,13.410592079162598,0.014567960053682327,-2.0293073654174805,35.04782485961914,302.5904235839844, 175.47605895996094
190,377019801,-0.0017604455,0.8741626,0.096607074,0.47592413,15.125589370727539,1.1765477657318115,-2.416307210922241,40.74755859375,301.1002502441406, 187.11050415039062
191,377036468,-0.02524411,0.85459954,0.076080024,0.5130637,16.94637107849121,1.7188619375228882,-3.0663018226623535,48.865760803222656,299.7998352050781, 185.4347381591797
192,377053135,-0.049536496,0.83262956,0.056030408,0.5487575,18.357213973999023,0.246625155210495,-3.5004091262817383,56.52494430541992,300.2445373535156, 184.58114624023438
193,377069802,-0.07521744,0.80848557,0.036747243,0.5825318,19.196718215942383,-0.6298682689666748,-3.756979465484619,68.86017608642578,297.8494873046875, 185.34707641601562
194,377086469,-0.101546876,0.7825415,0.019539034,0.61395067,19.860416412353516,-0.31166452169418335,-4.509330749511719,82.32032012939453,291.1812744140625, 177.26084899902344
195,377103136,-0.12989941,0.75538087,0.0070966594,0.64224267,19.996192932128906,-1.0420252084732056,-5.632742881774902,114.60828399658203,276.59161376953125, 162.2957763671875
196,377119803,-0.16380422,0.7256527,0.005536968,0.66825587,20.458786010742188,5.652867794036865,-5.145395755767822,193.9713592529297,266.8531799316406, 132.333251953125
197,377136470,-0.18421867,0.69871885,0.002050492,0.6912679,17.58043670654297,4.02426290512085,-7.5409746170043945,114.59956359863281,240.90740966796875, 83.69871520996094
198,377153137,-0.19847804,0.6788897,-0.0055393055,0.70688385,13.040512084960938,4.699732303619385,-13.82177734375,56.80951690673828,176.93287658691406, 83.80787658691406
199,377169804,-0.19582716,0.6720247,-0.020801943,0.713864,8.131091117858887,6.938042640686035,-16.334596633911133,-77.63048553466797,85.20516204833984, 48.860313415527344
200,377186471,-0.19128825,0.6749101,-0.026603062,0.71217793,8.272403717041016,2.892425537109375,-16.20159912109375,-53.78972625732422,-14.864496231079102, 6.368559837341309
201,377203138,-0.18923238,0.68386036,-0.02000208,0.70436215,10.807604789733887,5.02606725692749,-13.090545654296875,9.468862533569336,-89.39295959472656, -31.982580184936523
202,377219805,-0.18613654,0.6971415,-0.011392962,0.6922551,12.157755851745605,2.460853099822998,-10.488485336303711,8.171553611755371,-132.7351531982422, -41.34458541870117
203,377236472,-0.18559356,0.711969,0.0015398054,0.67723924,13.528043746948242,1.9383213520050049,-8.708536148071289,38.929542541503906,-159.59661865234375, -46.2568473815918
204,377253139,-0.18803719,0.72701275,0.019085806,0.6600987,13.394694328308105,2.3861677646636963,-8.055170059204102,74.56562805175781,-176.64878845214844, -52.18015670776367
205,377269806,-0.18922296,0.74160576,0.035165105,0.64263433,15.113430976867676,-2.717186689376831,-2.0545921325683594,62.50142288208008,-174.42965698242188, -50.17759704589844
206,377286473,-0.19110821,0.7524894,0.04237045,0.628842,13.160676956176758,-15.369547843933105,14.799033164978027,30.736452102661133,-127.63829803466797, -7.57356071472168
207,377303140,-0.19450068,0.7601863,0.0511216,0.6177968,13.003198623657227,1.7522424459457397,6.73415470123291,48.474578857421875,-101.72064971923828, -13.939141273498535
208,377319807,-0.19062808,0.76999545,0.058404546,0.6060998,19.558181762695312,3.6262567043304443,-5.1648054122924805,1.6499452590942383,-114.93781280517578, -35.454200744628906
209,377336474,-0.18375847,0.7812529,0.06507301,0.59299445,15.753931045532227,-0.38132598996162415,-0.6434273719787598,-18.0560302734375,-128.8134765625, -42.12690734863281
210,377353141,-0.18074133,0.79117286,0.07371793,0.5796067,11.015341758728027,-3.9270005226135254,-2.3135740756988525,12.508400917053223,-125.73816680908203, -37.259910583496094
211,377369808,-0.18437484,0.7986475,0.08642587,0.56630266,11.400446891784668,-1.0041738748550415,-1.4266388416290283,67.87378692626953,-117.2469711303711, -34.29069137573242
212,377386475,-0.18856569,0.80435497,0.098685965,0.5547226,9.801589012145996,-1.2755275964736938,-0.535700798034668,70.40446472167969,-100.04989624023438, -32.91376495361328
213,377403142,-0.19147703,0.8088009,0.10805784,0.54543674,9.813034057617188,-2.636793851852417,-0.31312304735183716,52.370941162109375,-79.73785400390625, -25.673402786254883
214,377419809,-0.19251032,0.8125157,0.114370674,0.53821695,11.18559455871582,-1.9926639795303345,-0.5051636695861816,29.85706329345703,-62.95231628417969, -19.018524169921875
215,377436476,-0.19175866,0.81541985,0.11914837,0.53303176,10.951622009277344,-0.7494410276412964,0.002992101013660431,13.666699409484863,-48.04606246948242, -20.404977798461914
216,377453143,-0.1910338,0.81760913,0.12364245,0.528899,10.682299613952637,-1.5462307929992676,0.351652055978775,12.832269668579102,-39.22317123413086, -20.68191146850586
217,377469810,-0.19161302,0.8194408,0.12850474,0.5246787,10.7760591506958,-1.6144354343414307,0.9934775829315186,22.02884292602539,-37.891151428222656, -18.214872360229492
218,377486477,-0.19184,0.82152313,0.13332283,0.5201179,9.984518051147461,-0.702514111995697,0.37139204144477844,19.829477310180664,-41.079612731933594, -18.57904815673828
219,377503144,-0.19019777,0.824399,0.13767797,0.51501054,9.862594604492188,-0.6701297760009766,0.8893951177597046,7.069552898406982,-48.19612503051758, -21.2007999420166
220,377519811,-0.18643855,0.82850784,0.1414624,0.5087278,9.13631534576416,-1.8633332252502441,1.462722659111023,-7.476675033569336,-60.57914733886719, -22.749361038208008
221,377536478,-0.18166843,0.8338812,0.14557727,0.5004462,8.856043815612793,-2.8788630962371826,1.098097801208496,-11.768794059753418,-77.90354919433594, -24.409963607788086
222,377553145,-0.1773515,0.83993804,0.1508368,0.49020296,10.012434959411621,-3.055065155029297,1.7965030670166016,-4.153696060180664,-92.5745849609375, -26.331867218017578
223,377569812,-0.17427401,0.84615463,0.156856,0.47858882,9.704635620117188,-2.867064952850342,1.2495677471160889,6.764744281768799,-100.80107116699219, -24.755332946777344
224,377586479,-0.17204197,0.8525484,0.1637703,0.46555588,9.869117736816406,-1.5369946956634521,0.7300568222999573,15.910856246948242,-109.9113998413086, -25.327226638793945
225,377603146,-0.16906646,0.85908145,0.17027786,0.45210755,9.900053977966309,-0.5780190229415894,0.36786413192749023,10.533538818359375,-113.25032043457031, -24.673349380493164
226,377619813,-0.16552743,0.8658109,0.17634457,0.43803537,10.221807479858398,-0.8275908827781677,-0.28568267822265625,6.345272541046143,-117.79337310791016, -22.853872299194336
227,377636480,-0.1627265,0.87239,0.18260384,0.42321628,10.486492156982422,-0.7859432697296143,-0.13732773065567017,12.39556884765625,-121.2048110961914, -21.098472595214844
228,377653147,-0.15972982,0.878822,0.18912545,0.40790927,10.953461647033691,0.07741913199424744,-0.6979585886001587,12.771248817443848,-124.3521728515625, -22.87332534790039
229,377669814,-0.15501606,0.885376,0.19496293,0.39251623,11.638480186462402,0.09072849154472351,-0.9580148458480835,0.46688923239707947,-126.80501556396484, -23.26932144165039
230,377686481,-0.1478765,0.892035,0.1997238,0.377514,12.089532852172852,-0.08956538885831833,-0.5119069218635559,-17.819257736206055,-126.9394760131836, -23.517539978027344
231,377703148,-0.13870369,0.89882267,0.20342548,0.36262572,11.933357238769531,-0.648957371711731,-0.24637186527252197,-33.31448745727539,-128.44386291503906, -22.229373931884766
232,377719815,-0.12786494,0.90568227,0.2062879,0.3476142,12.325335502624512,-0.67397141456604,-0.2603175938129425,-45.600860595703125,-131.08102416992188, -20.991653442382812
233,377736482,-0.11485527,0.91237646,0.20850162,0.3330236,13.409576416015625,0.8823899626731873,0.32755738496780396,-61.1167106628418,-130.75718688964844, -22.78162384033203
234,377753149,-0.09794136,0.91896677,0.20925237,0.31956378,14.400654792785645,1.6722304821014404,0.7980656027793884,-90.4683837890625,-128.09677124023438, -23.608190536499023
235,377769816,-0.07784477,0.92525464,0.20840414,0.3072651,15.032488822937012,1.2539499998092651,2.5027897357940674,-115.52496337890625,-123.86579895019531, -21.745431900024414
236,377786483,-0.055858806,0.9307695,0.20684043,0.29625195,15.473160743713379,1.1102142333984375,3.2637743949890137,-130.45164489746094,-116.70108795166016, -23.06967544555664
237,377803150,-0.03327805,0.9354195,0.20573352,0.28558204,15.550516128540039,-0.2167883813381195,3.7664639949798584,-133.45523071289062,-114.1090316772461, -28.687641143798828
238,377819817,-0.012078117,0.9397145,0.20594347,0.27272397,16.018404006958008,-4.658483028411865,3.2780818939208984,-118.80875396728516,-126.18490600585938, -34.611610412597656
239,377836484,0.0032671588,0.9434891,0.208137,0.25786966,16.789934158325195,-8.697720527648926,5.711791038513184,-74.4968032836914,-130.33299255371094, -37.24448776245117
240,377853151,0.013119586,0.94643426,0.21283081,0.24247286,16.950576782226562,-8.855443954467773,5.945743083953857,-33.875038146972656,-124.85535430908203, -45.16459655761719
241,377869818,0.027651953,0.94813895,0.21654339,0.23103495,15.854023933410645,-8.933515548706055,6.147073268890381,-72.05964660644531,-104.2952651977539, -48.25983428955078
242,377886485,0.047395613,0.9495591,0.21958245,0.2188032,14.583024024963379,-9.603500366210938,-3.7474989891052246,-106.14520263671875,-117.13543701171875, -52.975284576416016
243,377903152,0.06389397,0.95096403,0.22123684,0.20649278,13.77546215057373,-7.741549015045166,-8.131501197814941,-87.148193359375,-113.16976165771484, -39.323604583740234
244,377919819,0.07848718,0.9508465,0.22297658,0.20003122,15.310169219970703,-2.993847131729126,-2.862513780593872,-84.32294464111328,-69.72286224365234, -37.07128143310547
245,377936486,0.08517525,0.9495859,0.22498305,0.20103376,8.383935928344727,-8.973923683166504,11.039656639099121,-44.331764221191406,-7.08249044418335, -25.76829719543457
246,377953153,0.09074479,0.9470387,0.22445838,0.21095408,5.169478416442871,0.2533870339393616,9.00866985321045,-55.12547302246094,53.2307243347168, -4.555953025817871
247,377969820,0.10682194,0.9422489,0.21932709,0.2294597,6.718045234680176,-0.3720853924751282,3.559758186340332,-144.70208740234375,93.52336120605469, 12.064714431762695
248,377986487,0.11648301,0.93728155,0.2104413,0.25228924,7.281047344207764,-5.429848670959473,1.4258180856704712,-115.60737609863281,128.9761962890625, 49.34731674194336
249,378003154,0.11032885,0.9329864,0.20074841,0.27760446,6.719905376434326,-4.581793785095215,2.0382447242736816,-18.190921783447266,166.28045654296875, 84.87247467041016
250,378019821,0.09612393,0.9279314,0.18944758,0.30628946,7.160633087158203,-2.7756173610687256,2.7881526947021484,25.132997512817383,199.42579650878906, 112.08157348632812
251,378036488,0.08054956,0.92124337,0.17420815,0.33834037,7.317264080047607,-3.3922741413116455,2.273881673812866,20.11944007873535,223.667724609375, 140.2468719482422
252,378053155,0.05883284,0.91302305,0.15717475,0.37178493,8.873295783996582,-3.5125489234924316,0.32950684428215027,52.32431411743164,242.5655059814453, 164.88327026367188
253,378069822,0.0313484,0.9022635,0.13974397,0.4067059,11.15873908996582,-1.5870782136917114,-1.008111596107483,84.86833953857422,264.5252685546875, 180.0321502685547
254,378086489,0.00007941667,0.88846517,0.121843636,0.44247484,12.533879280090332,-0.2422248274087906,-2.016806125640869,105.5683364868164,281.9189453125, 190.8863983154297
255,378103156,-0.032318264,0.8710642,0.103844784,0.4789769,14.998828887939453,2.3368453979492188,-1.7406268119812012,111.55935668945312,298.4025573730469, 192.0287628173828
256,378119823,-0.060519204,0.8505055,0.084500365,0.51559466,16.526002883911133,2.6208388805389404,-2.2727386951446533,82.6407241821289,306.8578186035156, 184.142822265625
257,378136490,-0.087083176,0.827075,0.065093026,0.5514766,17.25722885131836,1.1385033130645752,-2.7655835151672363,74.50794982910156,311.8973388671875, 177.50331115722656
258,378153157,-0.11305201,0.80048716,0.04682063,0.58672607,19.01506805419922,0.8076217174530029,-2.293475866317749,77.61015319824219,319.450927734375, 167.89834594726562
259,378169824,-0.13519415,0.7720599,0.02700387,0.62041694,20.305686950683594,-0.7047957181930542,-2.897873878479004,52.262420654296875,318.377197265625, 161.707275390625
260,378186491,-0.1572951,0.74293596,0.00789066,0.65057075,21.051921844482422,-2.2771170139312744,-5.1960577964782715,56.328407287597656,302.0682067871094, 161.06324768066406
261,378203158,-0.18532133,0.7123557,-0.004530425,0.67689365,21.2003116607666,-1.1338261365890503,-6.059552192687988,118.36847686767578,282.34234619140625, 157.55833435058594
262,378219825,-0.2092367,0.6807811,-0.009164415,0.7019069,19.742496490478516,10.666486740112305,-6.034276962280273,135.6708221435547,271.0663146972656, 102.13855743408203
263,378236492,-0.22158432,0.6574006,-0.020327557,0.71993864,13.945931434631348,3.3286848068237305,-13.49847412109375,37.70599365234375,209.28756713867188, 86.8133544921875
264,378253159,-0.22341268,0.64601874,-0.033408426,0.72912985,7.906369209289551,9.297499656677246,-17.271574020385742,-38.5695915222168,114.76631927490234, 55.40031814575195
265,378269826,-0.2175943,0.6485242,-0.042583514,0.72818667,6.6297197341918945,1.3234457969665527,-17.96857261657715,-76.42562866210938,-3.5684242248535156, 12.390080451965332
266,378286493,-0.21769433,0.6571993,-0.03468456,0.72076035,10.147645950317383,3.4128293991088867,-14.52371597290039,24.579845428466797,-90.143798828125, -26.120914459228516
267,378303160,-0.21763952,0.669957,-0.02168527,0.70945084,12.067031860351562,4.318055152893066,-9.89981746673584,42.20976257324219,-135.07289123535156, -44.95813751220703
268,378319827,-0.21792725,0.6847218,-0.006471373,0.69542927,13.63757038116455,2.706540584564209,-7.65134859085083,51.18391036987305,-160.4010772705078, -49.5814323425293
269,378336494,-0.21929054,0.6998818,0.011005595,0.6796735,13.79581356048584,2.058917760848999,-6.476042747497559,66.64564514160156,-173.7339324951172, -52.39779281616211
270,378353161,-0.22084214,0.71454126,0.029130299,0.6631825,13.444670677185059,1.0148121118545532,-6.024531841278076,71.33853912353516,-175.69659423828125, -53.499671936035156
271,378369828,-0.21876262,0.7283269,0.03821443,0.64824593,14.955896377563477,-11.659259796142578,6.314509391784668,13.414166450500488,-150.9672393798828, -28.137569427490234
272,378386495,-0.22286355,0.7363877,0.047844633,0.6370053,11.841005325317383,-5.772885799407959,11.987580299377441,54.35828399658203,-106.40398406982422, -10.66655158996582
273,378403162,-0.22042443,0.74633586,0.05444817,0.62564474,17.14952850341797,3.8031845092773438,-2.588400363922119,5.042398452758789,-113.21588134765625, -23.31884765625
274,378419829,-0.2172195,0.7573322,0.063944735,0.61251515,18.99112319946289,1.6001338958740234,-2.2955260276794434,12.713946342468262,-131.48622131347656, -38.22330093383789
275,378436496,-0.2118587,0.76867735,0.07239118,0.5991751,11.9662446975708,-1.8210060596466064,-0.002705976366996765,-3.340907573699951,-133.46058654785156, -41.25483322143555
276,378453163,-0.21144179,0.77754164,0.083294734,0.58633053,10.815689086914062,-2.3522837162017822,-2.102379083633423,36.28053283691406,-121.82363891601562, -35.86497497558594
277,378469830,-0.21351512,0.78441674,0.09477321,0.57456076,10.245269775390625,-1.6814230680465698,-1.4760799407958984,54.190818786621094,-107.48617553710938, -31.65634536743164
278,378486497,-0.21605109,0.7895425,0.104812175,0.5647646,9.292914390563965,-3.0680630207061768,-1.449925184249878,52.28699493408203,-87.55664825439453, -26.14268684387207
279,378503164,-0.21927765,0.79299927,0.113480814,0.5569486,10.556062698364258,-2.717846632003784,-1.0533313751220703,51.746036529541016,-67.83487701416016, -20.240318298339844
280,378519831,-0.22175802,0.7953916,0.12127585,0.550879,11.798535346984863,-0.4108192026615143,-0.9034108519554138,44.55253219604492,-53.57024002075195, -21.849735260009766
281,378536498,-0.22065344,0.7977354,0.12677135,0.54668045,11.659043312072754,0.26266393065452576,-0.40562355518341064,14.750975608825684,-42.7241325378418, -25.72661590576172
282,378553165,-0.21958977,0.7997061,0.1312349,0.5431647,10.410947799682617,-2.2356224060058594,0.3128393888473511,11.057605743408203,-36.07623291015625, -21.23424530029297
283,378569832,-0.21967939,0.80134207,0.13672891,0.53934884,9.822173118591309,-1.2776678800582886,1.0491981506347656,21.998937606811523,-37.1042366027832, -22.4796199798584
284,378586499,-0.21960188,0.80335903,0.14268798,0.5348173,10.028216361999512,-0.7911998629570007,0.3417801260948181,22.874589920043945,-43.44568634033203, -24.235708236694336
285,378603166,-0.21845798,0.8061509,0.1486063,0.5294461,10.211321830749512,-0.48586490750312805,0.642427921295166,16.47553825378418,-52.02080535888672, -25.902122497558594
286,378619833,-0.21395953,0.8105705,0.15310848,0.523216,9.48820972442627,-1.0742173194885254,1.0194103717803955,-8.856398582458496,-64.1242446899414, -27.298606872558594
287,378636500,-0.20585647,0.8167999,0.15618695,0.5158166,9.484137535095215,-1.9679532051086426,0.6836439967155457,-35.50123977661133,-78.98222351074219, -28.726354598999023
288,378653167,-0.19691521,0.8235689,0.15898845,0.50762343,10.409907341003418,-2.5807173252105713,2.2050836086273193,-41.130855560302734,-85.98295593261719, -28.480302810668945
289,378669834,-0.18894337,0.83055484,0.16221997,0.49816063,10.186379432678223,-2.7033944129943848,1.38673996925354,-33.07732391357422,-93.63684844970703, -25.636329650878906
290,378686501,-0.18226995,0.8374861,0.16667412,0.48745728,9.80346965789795,-1.5250968933105469,1.0647002458572388,-20.05388832092285,-100.83164978027344, -26.680627822875977
291,378703168,-0.17700729,0.84438694,0.17197011,0.4755057,9.660805702209473,-0.9938430786132812,0.22589321434497833,-7.652790069580078,-107.49864959716797, -25.29948616027832
292,378719835,-0.17236896,0.85143864,0.17784429,0.46229064,10.129125595092773,-0.37268581986427307,0.38990694284439087,-0.8289318084716797,-115.4126968383789, -24.909730911254883
293,378736502,-0.16791867,0.85854155,0.18410319,0.44812483,10.837806701660156,0.06582576781511307,0.11805559694766998,2.609954595565796,-121.50629425048828, -25.371950149536133
294,378753169,-0.16325557,0.8658131,0.19055936,0.43290022,11.658086776733398,-0.23771370947360992,-0.7235473394393921,3.1222691535949707,-128.9232635498047, -25.734926223754883
295,378769836,-0.15804605,0.8730574,0.1973802,0.4169334,12.490736961364746,0.042772334069013596,-0.37001606822013855,1.9692293405532837,-134.53518676757812, -28.718671798706055
296,378786503,-0.15067066,0.8803792,0.20313194,0.40120873,12.456856727600098,0.36951252818107605,-0.12632548809051514,-14.483291625976562,-135.2709197998047, -28.656763076782227
297,378803170,-0.13968335,0.8880669,0.20708308,0.38593072,12.901856422424316,0.7864538431167603,-0.03713236749172211,-42.290061950683594,-136.9647674560547, -27.669721603393555
298,378819837,-0.1244044,0.89583004,0.20916823,0.3718344,13.956480979919434,1.4123375415802002,1.1580300331115723,-75.16334533691406,-134.5049285888672, -28.704853057861328
299,378836504,-0.104943305,0.9034759,0.20914945,0.3591307,14.7996187210083,1.2456704378128052,1.6702555418014526,-108.16842651367188,-130.15109252929688, -27.82727813720703
300,378853171,-0.08347783,0.91066223,0.2079138,0.34712753,15.513446807861328,0.9259359836578369,3.733743906021118,-124.2604751586914,-127.00840759277344, -26.464332580566406
301,378869838,-0.06189188,0.9169882,0.20673329,0.33550465,15.84907341003418,0.4657052159309387,4.385740280151367,-124.91223907470703,-123.159912109375, -28.668441772460938
302,378886505,-0.04111576,0.92270976,0.20677984,0.3227358,15.80421257019043,-1.5296523571014404,4.0875067710876465,-115.07682800292969,-128.7334442138672, -35.06253433227539
303,378903172,-0.023151401,0.92819685,0.20874563,0.30714828,16.76445960998535,-5.566727638244629,3.827014207839966,-88.93070220947266,-142.9656219482422, -40.741172790527344
304,378919839,-0.008753648,0.933079,0.2120848,0.29035738,17.00682830810547,-7.301764488220215,6.8043904304504395,-61.58027648925781,-144.7834930419922, -42.90241241455078
305,378936506,0.008305094,0.93667847,0.21333356,0.27758542,15.808998107910156,-10.150233268737793,9.081149101257324,-88.78484344482422,-120.54444122314453, -37.18950653076172
306,378953173,0.029173885,0.9393044,0.21519841,0.26560524,13.536914825439453,-9.422223091125488,-1.4941092729568481,-113.59314727783203,-119.45751190185547, -50.15810012817383
307,378969840,0.047214806,0.94186723,0.21769029,0.25153154,16.39357566833496,-10.650212287902832,-7.153262138366699,-91.32218170166016,-128.56842041015625, -49.84484100341797
308,378986507,0.06029868,0.9438161,0.2186424,0.24035609,13.290404319763184,-5.829633712768555,-5.91464900970459,-66.71929931640625,-101.82890319824219, -31.530488967895508
309,379003174,0.07792142,0.94313604,0.21932475,0.23731723,12.404747009277344,-5.59305477142334,0.7576154470443726,-110.07661437988281,-51.549224853515625, -38.02946472167969
310,379019841,0.08173231,0.94144607,0.22054602,0.24157579,7.533737659454346,-6.553338527679443,9.771821975708008,-31.234270095825195,18.527259826660156, -16.750823974609375
311,379036508,0.08825406,0.9380026,0.21880352,0.25394392,4.302297592163086,-0.024024510756134987,5.111307144165039,-66.9886474609375,68.1675796508789, -0.27633151412010193
312,379053175,0.09841701,0.9327947,0.212779,0.27373937,6.236867427825928,-2.8032636642456055,1.6001865863800049,-110.06217193603516,111.28070831298828, 22.801605224609375
313,379069842,0.10017237,0.9270876,0.20393819,0.29813313,5.153768539428711,-5.101868152618408,1.0525341033935547,-68.48405456542969,152.3000030517578, 58.9719352722168
314,379086509,0.092290014,0.92071277,0.19357373,0.32603663,5.577642917633057,-3.725447654724121,1.4793742895126343,-15.59824275970459,188.7093505859375, 89.85882568359375
315,379103176,0.078635946,0.91299206,0.18093911,0.3571038,6.743245601654053,-2.843766212463379,1.6880022287368774,10.775914192199707,218.15728759765625, 117.38189697265625
316,379119843,0.062205967,0.90381104,0.1646994,0.39003888,8.058876991271973,-3.7086658477783203,0.7748310565948486,16.234750747680664,235.08995056152344, 146.02871704101562
317,379136510,0.038155835,0.8931029,0.14804372,0.42307746,10.14261245727539,-2.769876718521118,-1.3941693305969238,61.6778450012207,248.37254333496094, 167.37046813964844
318,379153177,0.007864407,0.8801627,0.1318606,0.45592174,11.598987579345703,-1.8324997425079346,-2.450381278991699,100.97039031982422,260.22900390625, 180.3533935546875
319,379169844,-0.026889574,0.8649973,0.11582661,0.48748428,12.401065826416016,-0.2867393493652344,-2.721827507019043,129.46609497070312,263.5729064941406, 191.4597625732422
320,379186511,-0.062548496,0.8466553,0.099834606,0.5189371,14.361884117126465,2.5901548862457275,-2.473818063735962,135.66404724121094,274.3616027832031, 191.8864288330078
321,379203178,-0.09342721,0.8254606,0.08226915,0.55056167,15.10344409942627,2.5601134300231934,-2.050438404083252,103.33965301513672,283.0045471191406, 182.1703338623047
322,379219845,-0.12162333,0.8023294,0.06321311,0.5809301,15.652276992797852,-0.37833788990974426,-2.549119472503662,84.44845581054688,282.73431396484375, 180.3839111328125
323,379236512,-0.15061079,0.7765184,0.045812085,0.6101121,17.30239486694336,-0.3035849630832672,-1.988267183303833,98.17830657958984,285.9881286621094, 174.3738555908203
324,379253179,-0.1765159,0.74889344,0.02834518,0.63812035,18.93733787536621,0.3732251524925232,-1.856036901473999,83.68323516845703,286.5588684082031, 162.58384704589844
325,379269846,-0.20070696,0.7201769,0.011662256,0.6640226,19.314970016479492,-1.1036489009857178,-2.6979875564575195,80.03849792480469,279.3734130859375, 153.548828125
326,379286513,-0.229233,0.689656,0.0009161122,0.68689597,19.011367797851562,-1.6333227157592773,-4.014130115509033,131.3433837890625,264.9954833984375, 148.15965270996094
327,379303180,-0.25640982,0.65736943,-0.0025330503,0.7085995,18.55229377746582,8.773510932922363,-3.5241446495056152,162.2085418701172,256.5760498046875, 109.20245361328125
328,379319847,-0.26853678,0.63198805,-0.01448553,0.7268215,15.570327758789062,1.3787729740142822,-8.186017036437988,40.267417907714844,222.81878662109375, 80.71527862548828
329,379336514,-0.27627578,0.61414057,-0.027399808,0.7387506,11.388045310974121,6.135625839233398,-13.19580078125,2.2209999561309814,160.36729431152344, 74.0608139038086
330,379353181,-0.2715769,0.61012244,-0.042848986,0.74307525,7.657928466796875,3.7038607597351074,-15.625965118408203,-90.8140869140625,65.75146484375, 33.66944885253906
331,379369848,-0.26803917,0.6148993,-0.045081664,0.74028486,9.50318431854248,1.9954729080200195,-15.324325561523438,-36.56211471557617,-33.571754455566406, -4.922611236572266
332,379386515,-0.26660174,0.62524486,-0.036942746,0.7325488,11.457992553710938,3.2611196041107178,-12.378875732421875,13.476700782775879,-102.03827667236328, -30.55042839050293
333,379403182,-0.2661313,0.6392657,-0.023936817,0.7210692,12.694573402404785,2.8297417163848877,-9.853023529052734,34.79838943481445,-145.4473876953125, -40.45315933227539
334,379419849,-0.2681197,0.6546246,-0.0055667874,0.70678675,13.997307777404785,3.050647258758545,-8.210756301879883,69.16930389404297,-174.1683807373047, -46.836177825927734
335,379436516,-0.26941583,0.67098945,0.013266033,0.69066095,15.81915283203125,-2.0624945163726807,-2.850717544555664,66.511962890625,-187.90536499023438, -48.784000396728516
336,379453183,-0.27006304,0.6847062,0.024054157,0.67650926,16.252796173095703,-10.725237846374512,16.15481185913086,30.071977615356445,-151.26560974121094, -18.646453857421875
337,379469850,-0.26858944,0.6983713,0.034856465,0.6625122,13.14809799194336,3.0692944526672363,2.877528667449951,20.16353988647461,-151.21145629882812, -29.102691650390625
338,379486517,-0.26096457,0.7141135,0.04515742,0.6479971,19.81479263305664,4.910286903381348,-5.724825859069824,-15.347810745239258,-163.8256072998047, -53.1343994140625
339,379503184,-0.2505182,0.7310085,0.0542576,0.63239485,13.424982070922852,-1.7153548002243042,0.8655068874359131,-36.18525695800781,-172.891357421875, -57.2689094543457
340,379519851,-0.2441605,0.74499595,0.06470215,0.6173981,9.228058815002441,-4.164309024810791,-1.2568540573120117,-4.981817722320557,-158.08749389648438, -48.40134811401367
341,379536518,-0.24342446,0.7557407,0.077508025,0.6029868,9.41191291809082,-4.490398406982422,-3.3778181076049805,39.06135559082031,-142.8142547607422, -39.19142150878906
342,379553185,-0.2456099,0.76386565,0.0895443,0.5900567,8.471284866333008,-3.286165475845337,-4.1153388023376465,54.67582702636719,-121.37918090820312, -27.091651916503906
343,379569852,-0.24794987,0.7703188,0.10005727,0.57889426,10.717530250549316,-2.1845481395721436,-2.84413480758667,51.05754852294922,-102.59371948242188, -22.580549240112305
344,379586519,-0.2486006,0.7757728,0.10942037,0.5695628,12.435070991516113,0.07201679050922394,-0.6139490604400635,37.971458435058594,-88.13045501708984, -27.071365356445312
345,379603186,-0.24569663,0.78120327,0.11622315,0.5620027,12.474937438964844,1.3971397876739502,-0.6234878897666931,7.6961822509765625,-76.98545837402344, -30.35674285888672
346,379619853,-0.24068126,0.7863656,0.12042068,0.55605793,11.290803909301758,-0.5279670357704163,-1.3568731546401978,-14.550700187683105,-64.66264343261719, -27.402400970458984
347,379636520,-0.23738247,0.79032713,0.12460189,0.55091465,10.616756439208984,-2.193662405014038,-0.14418035745620728,-4.0124711990356445,-54.36741638183594, -23.069873809814453
348,379653187,-0.23566924,0.79347646,0.12989399,0.54587793,10.283711433410645,-1.0067498683929443,-0.2898743450641632,10.012971878051758,-51.27176284790039, -24.01578140258789
349,379669854,-0.23591441,0.79585546,0.13704741,0.54053366,9.93680191040039,-1.2703220844268799,-0.4757450819015503,29.189470291137695,-51.41866683959961, -27.026695251464844
350,379686521,-0.23628204,0.79880255,0.14562023,0.5337417,9.420181274414062,-1.1794623136520386,-0.5593873858451843,35.55958557128906,-63.718936920166016, -31.480167388916016
351,379703188,-0.2346146,0.80285823,0.15355921,0.52611256,9.758589744567871,-1.2599776983261108,0.0746237263083458,21.080322265625,-73.46566772460938, -33.02216720581055
352,379719855,-0.22962408,0.80814517,0.15909527,0.51851976,10.059449195861816,-2.253256320953369,0.7316896319389343,-7.995022296905518,-77.45161437988281, -30.56227684020996
353,379736522,-0.22409205,0.8134581,0.1629543,0.51138496,10.0799560546875,-3.3474178314208984,0.36441144347190857,-17.55442237854004,-73.072509765625, -23.916168212890625
354,379753189,-0.2193188,0.8182772,0.16677487,0.50448763,10.59183120727539,-2.6047403812408447,0.3344820439815521,-12.996991157531738,-69.21659088134766, -22.0212345123291
355,379769856,-0.21451302,0.82279253,0.17061765,0.49788204,10.607603073120117,-2.027060031890869,0.3876790404319763,-13.007516860961914,-66.716552734375, -23.095645904541016
356,379786523,-0.21041743,0.8272915,0.17484389,0.49065575,10.474261283874512,-1.304675579071045,-0.5529967546463013,-6.943467140197754,-70.03145599365234, -21.97458267211914
357,379803190,-0.20598447,0.8320539,0.17920657,0.48284778,10.101239204406738,-0.33137747645378113,-0.09163051843643188,-8.093853950500488,-74.92782592773438, -22.74500846862793
358,379819857,-0.20095712,0.8374114,0.18337932,0.47405744,9.962903022766113,0.020269237458705902,-0.5949855446815491,-11.764954566955566,-83.0920181274414, -21.497201919555664
359,379836524,-0.19554472,0.84328717,0.18780579,0.46406668,10.621206283569336,0.02069798856973648,-0.36459869146347046,-12.339715003967285,-92.62420654296875, -21.894882202148438
360,379853191,-0.19002576,0.84941405,0.19283488,0.4529912,11.526890754699707,-0.039507221430540085,-0.8317039012908936,-9.966178894042969,-100.77422332763672, -23.93240737915039
361,379869858,-0.18389824,0.8557339,0.19825558,0.4411302,12.230216026306152,0.4642190933227539,-1.3021116256713867,-11.496148109436035,-107.40215301513672, -26.823047637939453
362,379886525,-0.17543697,0.86263466,0.20283873,0.4288822,11.96451187133789,0.22404520213603973,-0.6692278385162354,-27.9518985748291,-113.6885986328125, -27.672517776489258
363,379903192,-0.1650135,0.8699221,0.20651793,0.41636103,11.881935119628906,-0.4938887059688568,-0.20883020758628845,-42.31983947753906,-118.243896484375, -27.22989273071289
364,379919859,-0.15265687,0.87731415,0.20960425,0.4038342,12.864803314208984,0.3141077160835266,-0.23137858510017395,-55.68510437011719,-120.81796264648438, -29.091960906982422
365,379936526,-0.13750575,0.88465124,0.21179463,0.39195332,14.272358894348145,0.9672014713287354,1.1210724115371704,-75.88834381103516,-120.04975891113281, -32.223976135253906
366,379953193,-0.1188957,0.891824,0.21231815,0.38135925,15.1962890625,1.3200783729553223,1.9827183485031128,-103.11060333251953,-115.50849914550781, -32.895851135253906
367,379969860,-0.09732233,0.898727,0.2115684,0.37156022,15.668075561523438,0.7109537124633789,3.2994027137756348,-125.53427124023438,-113.525146484375, -33.9553337097168
368,379986527,-0.07478604,0.9051079,0.21062437,0.36169648,15.414545059204102,-0.7481674551963806,3.3803443908691406,-131.51666259765625,-114.21808624267578, -36.03603744506836
369,380003194,-0.05376143,0.9112334,0.2114334,0.34936976,15.213233947753906,-4.370452404022217,2.7829551696777344,-114.0555648803711,-127.9697036743164, -42.4442138671875
370,380019861,-0.037491854,0.9170643,0.21465252,0.33393404,16.375598907470703,-8.575983047485352,4.778544902801514,-73.9207763671875,-141.04075622558594, -45.624412536621094
371,380036528,-0.025965257,0.92123187,0.21923093,0.32030544,17.31047248840332,-9.352664947509766,8.81827163696289,-43.30841827392578,-119.57281494140625, -46.499324798583984
372,380053195,-0.009636945,0.9246703,0.22388223,0.30784562,15.113540649414062,-7.877166271209717,2.29423189163208,-75.37943267822266,-118.32341003417969, -59.135929107666016
373,380069862,0.01063966,0.92822427,0.22852513,0.2933648,15.594160079956055,-10.415777206420898,-5.253157615661621,-97.5438232421875,-137.79360961914062, -67.41898345947266
374,380086529,0.023701282,0.9315753,0.23268615,0.27832198,15.711769104003906,-8.090116500854492,-6.418230056762695,-51.842384338378906,-129.8326873779297, -50.45627975463867
375,380103196,0.03513555,0.9331335,0.23546961,0.26940936,12.932153701782227,-4.561756610870361,-0.6969404816627502,-54.36924743652344,-84.92200469970703, -40.615150451660156
376,380119863,0.042790134,0.9325081,0.23705043,0.2690812,10.922831535339355,-7.165410995483398,11.861440658569336,-46.86083984375,-20.163244247436523, -27.516672134399414
377,380136530,0.052346952,0.9297357,0.2360172,0.27775362,5.215832233428955,-0.3900601267814636,7.3511176109313965,-79.26174926757812,37.31504821777344, -15.371224403381348
378,380153197,0.06516708,0.9249748,0.2318726,0.29395556,6.85788631439209,-2.17683744430542,2.451531171798706,-118.8942642211914,82.78892517089844, -2.3869729042053223
379,380169864,0.06800003,0.9198238,0.22545324,0.313801,7.030951023101807,-5.467990398406982,1.131783366203308,-65.93840026855469,121.6475830078125, 33.084266662597656
380,380186531,0.057484094,0.9141774,0.21854252,0.33647332,7.263306140899658,-4.0177202224731445,1.4640288352966309,12.722830772399902,161.04147338867188, 65.38269805908203
381,380203198,0.04017693,0.9072092,0.20990185,0.36235127,7.3607683181762695,-3.1795294284820557,1.8280842304229736,45.99940872192383,193.71847534179688, 91.19902038574219
382,380219865,0.01884003,0.8986796,0.19806512,0.39088395,7.735476970672607,-4.680675506591797,1.5189306735992432,58.86189651489258,219.04132080078125, 119.62793731689453
383,380236532,-0.009495686,0.88815695,0.18489134,0.42059788,9.627800941467285,-3.7717928886413574,-0.23746806383132935,96.54313659667969,240.9916229248047, 144.12042236328125
384,380253199,-0.043101583,0.87457037,0.17132041,0.4515732,11.113113403320312,-1.3960226774215698,-1.4548956155776978,126.06705474853516,264.2145080566406, 157.84893798828125
385,380269866,-0.078283325,0.8582511,0.15610005,0.48260707,11.881502151489258,-0.550724983215332,-2.037745237350464,131.0867919921875,275.3399658203125, 169.53619384765625
386,380286533,-0.113283426,0.8388985,0.13967021,0.5137204,13.685775756835938,1.7176076173782349,-2.119438886642456,127.47175598144531,286.3114929199219, 172.91116333007812
387,380303200,-0.1447344,0.8169557,0.1211185,0.5449459,15.06908130645752,2.1794328689575195,-2.3478615283966064,101.34683227539062,294.3486633300781, 170.23165893554688
388,380319867,-0.1729079,0.7928747,0.10086255,0.5755689,15.58375358581543,1.396010398864746,-2.4183688163757324,79.13053894042969,297.9833679199219, 166.52549743652344
389,380336534,-0.19905037,0.7662951,0.08017896,0.6055926,16.7861385345459,0.8964180946350098,-2.2263565063476562,69.68445587158203,303.8055114746094, 159.95587158203125
390,380353201,-0.22075048,0.7383775,0.056761816,0.6347014,18.056425094604492,0.27010560035705566,-2.368805408477783,37.168174743652344,306.00250244140625, 156.50857543945312
391,380369868,-0.24070309,0.70956534,0.03213616,0.66147286,18.77027130126953,-0.9509904384613037,-3.65974497795105,25.238420486450195,299.4352722167969, 158.33526611328125
392,380386535,-0.2628594,0.67911077,0.011869537,0.6852539,18.967147827148438,-0.3983222544193268,-4.436506748199463,59.21923065185547,285.93023681640625, 151.807861328125
393,380403202,-0.28893515,0.64564425,0.0007350398,0.70686597,19.018733978271484,2.7395169734954834,-4.460101127624512,126.17864990234375,274.25628662109375, 131.54737854003906
394,380419869,-0.30929646,0.6119208,-0.006531894,0.7279053,18.60594940185547,5.833708763122559,-5.469059467315674,120.09650421142578,265.74749755859375, 88.09996795654297
395,380436536,-0.32507327,0.584298,-0.015059242,0.7434357,14.49949836730957,1.293684959411621,-11.520445823669434,81.15947723388672,215.51889038085938, 82.29421997070312
396,380453203,-0.3320599,0.567935,-0.02568777,0.7526796,10.380468368530273,6.1282525062561035,-15.686012268066406,9.53603744506836,138.98805236816406, 58.925113677978516
397,380469870,-0.3316702,0.56457394,-0.033011638,0.75509036,7.537766456604004,3.4700536727905273,-17.303476333618164,-32.555572509765625,39.412235260009766, 21.578929901123047
398,380486537,-0.3310483,0.5695002,-0.027793318,0.75186723,10.203847885131836,3.6241390705108643,-15.913370132446289,11.670221328735352,-53.24224090576172, -17.172500610351562
399,380503204,-0.3290624,0.58094084,-0.016368002,0.7442835,11.982423782348633,2.959995746612549,-12.810147285461426,23.05455207824707,-117.1861343383789, -39.58485412597656
400,380519871,-0.3270985,0.5961083,-0.001166889,0.7332532,13.48904800415039,1.1965223550796509,-10.255792617797852,33.82487487792969,-157.97239685058594, -46.96693801879883
401,380536538,-0.32586557,0.61289924,0.01732067,0.7196292,15.018854141235352,0.5732294321060181,-8.514103889465332,49.94818115234375,-183.72084045410156, -50.76454544067383
402,380553205,-0.322298,0.62972933,0.029148309,0.7061979,17.70071792602539,-9.625350952148438,8.482135772705078,7.15775728225708,-168.030517578125, -34.557701110839844
403,380569872,-0.31941062,0.64386314,0.03505295,0.69439805,13.192604064941406,-7.047728538513184,13.801881790161133,-12.974956512451172,-134.82928466796875, -9.915448188781738
404,380586539,-0.31255054,0.65971476,0.042530257,0.6821143,17.000123977661133,5.1898112297058105,-6.584829330444336,-26.76187515258789,-150.04788208007812, -34.499202728271484
405,380603206,-0.30463612,0.67589676,0.0529586,0.6689963,19.476696014404297,1.605276107788086,-1.300633192062378,-18.098979949951172,-161.73965454101562, -50.649662017822266
406,380619873,-0.2944271,0.6923845,0.060340323,0.6559541,9.781169891357422,-1.5558866262435913,0.4796088635921478,-43.31610870361328,-157.20848083496094, -46.90045166015625
407,380636540,-0.28880173,0.70516247,0.0699927,0.64377075,10.10693645477295,-3.312501907348633,-2.6164698600769043,-4.064638614654541,-139.13307189941406, -40.35055160522461
408,380653207,-0.28756815,0.71483177,0.08089359,0.63227874,8.676816940307617,-4.242577075958252,-2.562014579772949,28.679018020629883,-122.33988952636719, -29.92683219909668
409,380669874,-0.28895712,0.722129,0.09080299,0.6219233,9.143965721130371,-3.922421932220459,-2.965240478515625,41.359474182128906,-102.97895050048828, -17.359739303588867
410,380686541,-0.29045177,0.7279376,0.10028856,0.6129329,11.893226623535156,-1.569852352142334,-0.8928526639938354,42.20659255981445,-88.87925720214844, -18.565698623657227
411,380703208,-0.2892074,0.73356193,0.10855955,0.6053603,12.41083812713623,0.6804540753364563,-0.4170546531677246,22.78508186340332,-80.5131607055664, -27.00694465637207
412,380719875,-0.28443682,0.73938936,0.11447657,0.59941167,11.81926155090332,0.3072287142276764,-0.7009570002555847,-6.414149284362793,-71.18555450439453, -32.828285217285156
413,380736542,-0.27979857,0.7443635,0.1196657,0.5944041,10.287562370300293,-2.533799648284912,-0.4454885423183441,-7.802695274353027,-61.42702102661133, -31.05231475830078
414,380753209,-0.2773253,0.7479059,0.12602003,0.589785,9.832242965698242,-2.658822774887085,0.7211335301399231,10.454718589782715,-54.11907958984375, -30.150959014892578
415,380769876,-0.27674016,0.75028175,0.13361266,0.5853546,10.00139331817627,-1.965323567390442,0.7384702563285828,27.21573257446289,-49.248687744140625, -30.30190658569336
416,380786543,-0.27835947,0.75156224,0.14235565,0.58086586,9.765223503112793,-1.9875816106796265,0.04877098277211189,45.315452575683594,-45.4010124206543, -28.302635192871094
417,380803210,-0.28092015,0.7522524,0.15164219,0.57637227,9.911569595336914,-1.4040307998657227,-0.2005993127822876,53.47401428222656,-43.26011276245117, -27.970365524291992
418,380819877,-0.28186488,0.7534045,0.15984176,0.5721752,10.174457550048828,-1.1224021911621094,0.4972728192806244,39.58769989013672,-43.20269775390625, -28.86806869506836
419,380836544,-0.28017622,0.75588393,0.16568315,0.568058,9.81481647491455,-1.97452974319458,0.5990427732467651,14.000707626342773,-46.430328369140625, -25.722936630249023
420,380853211,-0.27686906,0.7600114,0.17020306,0.5628119,9.600245475769043,-2.4991743564605713,0.18538975715637207,-1.5008091926574707,-58.12807846069336, -21.159957885742188
421,380869878,-0.2725194,0.76547843,0.1742637,0.5562446,9.6705961227417,-2.4251418113708496,0.9930229783058167,-9.731385231018066,-70.65634155273438, -18.77302360534668
422,380886545,-0.26663265,0.7723188,0.1776629,0.5485131,10.268110275268555,-2.0404551029205322,0.514837920665741,-21.56215476989746,-82.75701141357422, -17.397480010986328
423,380903212,-0.26017836,0.7797026,0.18120398,0.5399411,10.80237865447998,-0.7496447563171387,0.16176068782806396,-24.019563674926758,-90.33573913574219, -18.12883949279785
424,380919879,-0.25247872,0.7875554,0.18438196,0.53105056,10.634170532226562,-0.1274566352367401,0.17764364182949066,-32.49777603149414,-94.79290771484375, -19.650745391845703
425,380936546,-0.24481903,0.7953642,0.18766141,0.5217689,10.933463096618652,0.710286021232605,-0.35099321603775024,-31.322050094604492,-96.98897552490234, -19.42677879333496
426,380953213,-0.23690706,0.80316997,0.19155444,0.5119572,11.28251838684082,1.4406870603561401,-0.26093989610671997,-29.798551559448242,-101.33545684814453, -22.76834487915039
427,380969880,-0.22921248,0.81093353,0.19606285,0.5014059,11.335993766784668,0.3085162341594696,0.013318002223968506,-25.356151580810547,-106.09903717041016, -24.21063804626465
428,380986547,-0.22255914,0.8185065,0.20175014,0.48970595,11.599352836608887,-0.13741853833198547,-0.47575950622558594,-13.625349044799805,-112.42308807373047, -25.631319046020508
429,381003214,-0.2157122,0.8261056,0.20783803,0.4773064,11.703144073486328,-0.18262909352779388,-0.5344091653823853,-12.420342445373535,-117.44499206542969, -27.43985366821289
430,381019881,-0.2073907,0.8340568,0.2134518,0.46451783,11.983061790466309,-0.5106361508369446,-0.46922382712364197,-22.308504104614258,-122.33328247070312, -28.517505645751953
431,381036548,-0.19641955,0.8424006,0.21780892,0.4520398,12.870403289794922,-0.3910845220088959,0.04811228811740875,-42.52097702026367,-124.03937530517578, -29.667463302612305
432,381053215,-0.18201558,0.8510528,0.2205605,0.44037798,13.796821594238281,-0.1355094015598297,0.7253085970878601,-69.0283203125,-123.41929626464844, -31.711212158203125
433,381069882,-0.1640023,0.85986567,0.2212497,0.429864,14.717306137084961,0.09413160383701324,1.8378911018371582,-98.32965850830078,-120.3036880493164, -31.809206008911133
434,381086549,-0.14266007,0.86856985,0.21985734,0.42059186,15.284579277038574,0.3066023886203766,3.2322819232940674,-125.92826843261719,-115.63455963134766, -30.96831703186035
435,381103216,-0.1191326,0.8769763,0.21707213,0.4118248,15.501341819763184,-0.9219317436218262,3.65822172164917,-143.47869873046875,-114.01910400390625, -30.00276756286621
436,381119883,-0.09596191,0.8850747,0.21483958,0.40159482,15.081387519836426,-3.028209924697876,3.570075273513794,-137.35107421875,-122.21914672851562, -31.72344970703125
437,381136550,-0.075009614,0.8932548,0.21408673,0.38811937,15.554971694946289,-6.39542293548584,3.4453837871551514,-115.07722473144531,-140.2040252685547, -32.540897369384766
438,381153217,-0.0579121,0.90052325,0.21567981,0.3730771,16.4384765625,-6.879373073577881,5.990464210510254,-82.47908782958984,-143.2347869873047, -37.45840835571289
439,381169884,-0.042606384,0.90603745,0.21834381,0.36000994,16.885637283325195,-8.952987670898438,7.97579288482666,-70.99906921386719,-124.6511459350586, -43.13077926635742
440,381186551,-0.024487179,0.91037995,0.22015627,0.34948573,14.930290222167969,-8.075793266296387,2.985299587249756,-94.27717590332031,-110.30625915527344, -47.5941162109375
441,381203218,-0.0026025122,0.9149049,0.22093129,0.33783415,15.770881652832031,-7.481095790863037,-5.027125358581543,-118.81443786621094,-123.5748291015625, -49.98339080810547
442,381219885,0.01369106,0.91827035,0.22126235,0.32807824,14.470990180969238,-5.922021865844727,-5.117120742797852,-87.69246673583984,-100.54212188720703, -36.271175384521484
443,381236552,0.027179146,0.91905653,0.22310638,0.32375908,12.302587509155273,-6.591892242431641,1.6474201679229736,-75.20370483398438,-56.0519905090332, -43.124656677246094
444,381253219,0.026069378,0.91794336,0.22570975,0.3252009,7.471765518188477,-5.369517803192139,8.103093147277832,9.434779167175293,6.947564125061035, -17.43178939819336
445,381269886,0.025862042,0.9147697,0.22526112,0.33434266,6.576894760131836,0.4778258204460144,4.757620811462402,-15.432998657226562,58.03868103027344, -2.1025218963623047
446,381286553,0.03043231,0.90984046,0.22037412,0.35028493,7.304143905639648,-2.0541231632232666,2.053433895111084,-66.44593811035156,96.61161041259766, 13.289510726928711
447,381303220,0.028612332,0.90353847,0.2128875,0.3707814,6.916995048522949,-4.210028648376465,2.159177780151367,-39.91814422607422,137.54356384277344, 43.71299743652344
448,381319887,0.019673955,0.8959642,0.20331542,0.39436582,6.6833882331848145,-4.334568023681641,1.5395203828811646,-5.835611343383789,169.9809112548828, 73.4499282836914
449,381336554,0.0037983344,0.88669795,0.19197828,0.42059115,7.068432807922363,-3.859279155731201,1.316623330116272,28.139829635620117,200.3140869140625, 101.03889465332031
450,381353221,-0.016972011,0.875532,0.1783002,0.44873706,7.876524925231934,-2.9835548400878906,1.2006115913391113,48.557456970214844,223.93038940429688, 126.97847747802734
451,381369888,-0.042625517,0.86182916,0.16357797,0.4782009,9.758482933044434,-1.7635462284088135,-0.3984684646129608,73.35726928710938,245.81581115722656, 145.08010864257812
452,381386555,-0.072605506,0.84513324,0.14835027,0.5084002,10.915266990661621,-0.7120093107223511,-1.6456189155578613,97.35197448730469,265.0673828125, 158.78143310546875
453,381403222,-0.104636416,0.8257625,0.1319973,0.5382791,11.851101875305176,-0.1105087548494339,-2.0965073108673096,106.96796417236328,275.27880859375, 170.0336151123047
454,381419889,-0.13722609,0.80348325,0.11454636,0.56785804,13.643877029418945,1.4247198104858398,-2.034576892852783,108.40017700195312,285.74029541015625, 176.0575408935547
455,381436556,-0.16698673,0.7787695,0.09514436,0.5971442,15.063065528869629,1.6762349605560303,-2.0959997177124023,87.64453887939453,293.3575744628906, 174.32568359375
456,381453223,-0.19453105,0.75172067,0.07437468,0.62573326,16.37428092956543,0.9480693340301514,-2.5202832221984863,73.26771545410156,299.4875793457031, 171.99862670898438
457,381469890,-0.21987727,0.7223736,0.05309584,0.6534609,17.97736358642578,0.6578013896942139,-2.567115306854248,63.21017837524414,304.6837463378906, 165.30577087402344
458,381486557,-0.24248902,0.691475,0.030719345,0.6797925,19.15386962890625,-0.3989983797073364,-2.905735492706299,47.53593444824219,305.62335205078125, 160.17189025878906
459,381503224,-0.265656,0.6591796,0.010013705,0.7034265,19.637874603271484,-1.8969521522521973,-3.682529926300049,60.85716247558594,296.9580993652344, 159.1754608154297
460,381519891,-0.29104942,0.6252948,-0.005747717,0.7240606,20.16098403930664,-1.8597474098205566,-4.351428508758545,97.99008178710938,282.5262451171875, 153.05221557617188
461,381536558,-0.31978738,0.5883883,-0.012412788,0.7425505,20.208961486816406,3.6461846828460693,-5.490056991577148,163.65057373046875,270.4416809082031, 135.20050048828125
462,381553225,-0.33489618,0.55673105,-0.02229902,0.75986713,17.896615982055664,6.075480937957764,-6.843637466430664,80.28255462646484,247.64170837402344, 81.03799438476562
463,381569892,-0.3456809,0.53377235,-0.034540135,0.7709728,12.182343482971191,3.2804319858551025,-13.798759460449219,30.43467140197754,185.00424194335938, 80.7353744506836
464,381586559,-0.34531534,0.52559006,-0.049268834,0.7759416,8.281807899475098,6.097405910491943,-16.487213134765625,-59.83665084838867,93.16849517822266, 42.15846633911133
465,381603226,-0.341492,0.5291768,-0.055384878,0.77478236,8.79401969909668,1.7220067977905273,-16.751523971557617,-56.20772171020508,-10.482379913330078, 3.3986523151397705
466,381619893,-0.33842012,0.5386436,-0.049338147,0.7700006,10.871492385864258,4.522800445556641,-13.451385498046875,-3.5949954986572266,-83.29179382324219, -30.414579391479492
467,381636560,-0.33420494,0.5530186,-0.04012281,0.7621468,12.120016098022461,3.5687813758850098,-10.681841850280762,-3.3708319664001465,-127.14550018310547, -42.500789642333984
468,381653227,-0.330702,0.5694448,-0.027164655,0.7520846,13.51690673828125,2.8251760005950928,-9.404134750366211,13.871627807617188,-154.7340850830078, -48.24635696411133
469,381669894,-0.32884014,0.586292,-0.010064349,0.740287,13.695878028869629,2.675577402114868,-9.297188758850098,40.45469665527344,-172.9954833984375, -51.98936462402344
470,381686561,-0.32816866,0.6026352,0.01001226,0.72734857,14.1152925491333,1.40042245388031,-7.135500907897949,61.71091079711914,-181.52371215820312, -55.14362716674805
471,381703228,-0.3268178,0.61598486,0.021299189,0.7164489,16.599937438964844,-13.670197486877441,17.218603134155273,21.512184143066406,-137.95884704589844, -26.875823974609375
472,381719895,-0.33266547,0.6218701,0.03387555,0.70814097,9.467411041259766,-6.898007869720459,17.10944175720215,74.80076599121094,-92.54959869384766, -4.054666519165039
473,381736562,-0.32994577,0.63173705,0.04315825,0.7001297,18.24394989013672,5.593626022338867,-6.358732223510742,12.817156791687012,-105.6226577758789, -31.617467880249023
474,381753229,-0.32357025,0.64436597,0.05218862,0.69092065,19.030715942382812,1.3096338510513306,-1.8489900827407837,-10.124005317687988,-124.36277770996094, -44.29892349243164
475,381769896,-0.31749192,0.6568096,0.06113888,0.6812211,10.63840389251709,-2.7470779418945312,-0.380391001701355,-8.546075820922852,-125.26485443115234, -41.344303131103516
476,381786563,-0.31670564,0.6660967,0.074261665,0.67119133,10.51870346069336,-2.951449155807495,-1.2546474933624268,41.958465576171875,-118.84606170654297, -36.063941955566406
477,381803230,-0.3171656,0.6733404,0.08773703,0.66205835,9.538883209228516,-1.8847943544387817,-0.25723007321357727,53.34925842285156,-105.41204071044922, -35.000484466552734
478,381819897,-0.3173717,0.679363,0.09898637,0.6541733,9.31262493133545,-3.4021637439727783,-1.4724578857421875,43.96986770629883,-89.38308715820312, -29.367830276489258
479,381836564,-0.3176397,0.6842438,0.108579785,0.64739937,10.706459999084473,-2.8465535640716553,-0.7829166650772095,38.575355529785156,-75.38290405273438, -24.65333366394043
480,381853231,-0.31599545,0.68871814,0.11638112,0.64208233,11.289916038513184,-0.26917174458503723,-0.3301244080066681,21.408226013183594,-64.24539947509766, -28.283065795898438
481,381869898,-0.3123475,0.6931309,0.12219285,0.6380263,10.8994722366333,-0.8396567702293396,0.7086495161056519,2.251445770263672,-55.32140350341797, -30.47444725036621
482,381886565,-0.31037384,0.6964999,0.12821582,0.6341267,10.840182304382324,-2.3946168422698975,1.524967074394226,13.23842716217041,-49.12084197998047, -25.349729537963867
483,381903232,-0.3106346,0.6986476,0.1355815,0.6300916,10.157503128051758,-0.7258214950561523,1.4254056215286255,32.49452209472656,-45.449893951416016, -22.879234313964844
484,381919899,-0.31192613,0.70007384,0.14372078,0.62605375,10.05064582824707,-0.44745609164237976,0.32400238513946533,42.313148498535156,-43.1247444152832, -22.814485549926758
485,381936566,-0.31391117,0.7010295,0.15214963,0.621987,9.995433807373047,-0.747029721736908,0.5553153157234192,47.929317474365234,-41.23624801635742, -21.63998794555664
486,381953233,-0.3139564,0.70285577,0.15917481,0.6181332,9.849102020263672,-0.8036156296730042,0.6858038902282715,30.456830978393555,-43.002532958984375, -22.73969268798828
487,381969900,-0.31077975,0.70660037,0.16412146,0.614163,9.42313003540039,-1.8575780391693115,1.8574451208114624,2.0178096294403076,-50.8366813659668, -24.053340911865234
488,381986567,-0.3061309,0.71191484,0.16798575,0.6092962,9.093501091003418,-2.9455068111419678,1.4437295198440552,-12.068634033203125,-61.298866271972656, -21.369583129882812
489,382003234,-0.30102646,0.71892095,0.17230435,0.6023679,9.45218276977539,-2.5696942806243896,0.8424453139305115,-13.584579467773438,-80.07598876953125, -19.284862518310547
490,382019901,-0.29543072,0.72731906,0.17808358,0.59330773,9.829614639282227,-1.5814200639724731,1.069281816482544,-10.329950332641602,-100.08130645751953, -22.540313720703125
491,382036568,-0.28954247,0.73685485,0.18513308,0.5821822,9.99040699005127,-0.23008939623832703,0.2964828610420227,-6.408062934875488,-118.09471130371094, -24.530132293701172
492,382053235,-0.28293073,0.7473221,0.19218083,0.56967247,10.436554908752441,0.09483733028173447,0.46700209379196167,-10.150452613830566,-129.845947265625, -23.47507667541504
493,382069902,-0.27589464,0.75795,0.19905744,0.5565702,10.938247680664062,0.3215281367301941,0.5081580877304077,-12.520806312561035,-133.85055541992188, -22.880924224853516
494,382086569,-0.2690229,0.7684412,0.20606673,0.5428271,11.721556663513184,0.18129314482212067,-0.5587885975837708,-10.005191802978516,-136.80853271484375, -21.896949768066406
495,382103236,-0.261902,0.77854455,0.21356581,0.52883404,12.330296516418457,0.7281190752983093,-0.10606561601161957,-8.402575492858887,-138.03668212890625, -25.48843765258789
496,382119903,-0.25378186,0.78865045,0.2208023,0.5146571,12.214951515197754,0.13021519780158997,-0.5626477003097534,-14.413273811340332,-140.1508026123047, -27.354122161865234
497,382136570,-0.24497336,0.7987547,0.22782241,0.50007606,12.471766471862793,-0.6812617778778076,-0.05094580352306366,-18.271644592285156,-143.1267547607422, -27.909038543701172
498,382153237,-0.23449875,0.80884266,0.23376423,0.48594084,13.329322814941406,-0.17630010843276978,0.055483341217041016,-31.79054832458496,-141.56747436523438, -28.5103702545166
499,382169904,-0.22001107,0.81937504,0.23739007,0.47314453,14.550992965698242,0.37660741806030273,0.7249141931533813,-64.70162200927734,-138.50558471679688, -30.491849899291992
500,382186571,-0.20129046,0.83020294,0.2378237,0.46226126,15.642962455749512,0.6864299774169922,1.9877241849899292,-102.49919891357422,-131.00665283203125, -28.685876846313477
501,382203238,-0.17893471,0.84090966,0.23529124,0.45331174,15.890278816223145,0.5099589824676514,3.1998403072357178,-135.65850830078125,-121.73277282714844, -26.199251174926758
502,382219905,-0.15566023,0.8509208,0.2318237,0.44492894,15.679241180419922,-0.826855480670929,4.197976112365723,-143.94493103027344,-116.97657012939453, -25.523893356323242
503,382236572,-0.13315618,0.86006695,0.22941157,0.43580344,15.443955421447754,-2.581770420074463,3.6151371002197266,-134.11630249023438,-118.95124053955078, -30.02935028076172
504,382253239,-0.112313285,0.8688561,0.22921355,0.42418876,16.11025047302246,-5.031651973724365,3.1309738159179688,-113.4348373413086,-132.35365295410156, -36.59396743774414
505,382269906,-0.09267023,0.87695676,0.23027211,0.41150188,16.820110321044922,-6.384754180908203,6.580915451049805,-100.45807647705078,-136.16603088378906, -41.0807991027832
506,382286573,-0.0734954,0.8835367,0.23153068,0.40044367,15.925268173217773,-9.335395812988281,7.922117710113525,-98.78045654296875,-121.8603286743164, -44.670963287353516
507,382303240,-0.056980886,0.88855904,0.23189,0.3917182,14.262057304382324,-11.208057403564453,5.915014743804932,-88.18292999267578,-99.14595794677734, -35.872718811035156
508,382319907,-0.037354242,0.8942697,0.22954504,0.3823555,13.816268920898438,-8.842937469482422,-3.8519058227539062,-113.9432601928711,-109.13733673095703, -26.758106231689453
509,382336574,-0.019227454,0.8988406,0.22566466,0.37522173,12.550227165222168,-4.750660419464111,-6.725435733795166,-112.17378234863281,-89.75508117675781, -16.060321807861328
510,382353241,0.0005200072,0.90067554,0.22196239,0.3735182,15.805316925048828,-6.729429244995117,-0.6923658847808838,-129.90443420410156,-51.6547966003418, -26.5344295501709
511,382369908,-0.0065125576,0.8994331,0.22409599,0.37517843,6.353394031524658,-9.36009407043457,7.4808030128479,45.65199279785156,17.754636764526367, 1.1950026750564575
512,382386575,-0.018374048,0.89567804,0.22548056,0.38285995,5.26976203918457,1.1572551727294922,5.3712992668151855,64.28507995605469,68.74945068359375, 14.011433601379395
513,382403242,-0.020645149,0.8898535,0.22034046,0.3989797,6.82127571105957,-0.39063796401023865,2.6404531002044678,-24.6978816986084,112.03258514404297, 24.736597061157227
514,382419909,-0.02516944,0.8819964,0.21150622,0.4203738,6.754439830780029,-3.6964824199676514,0.8900080919265747,-28.71592903137207,153.7913360595703, 49.65263366699219
515,382436576,-0.03403303,0.87204266,0.19994342,0.44542804,6.4789323806762695,-3.852806329727173,1.9830944538116455,-15.29543399810791,188.85964965820312, 74.95549011230469
516,382453243,-0.045980435,0.8600386,0.18492988,0.47330785,6.848202705383301,-3.0242221355438232,1.8010841608047485,-10.823908805847168,217.1502685546875, 101.50524139404297
517,382469910,-0.06073143,0.8463026,0.16651237,0.5023518,8.454336166381836,-3.2491164207458496,1.4180209636688232,-6.301643371582031,234.3434600830078, 128.11195373535156
518,382486577,-0.081233665,0.8302658,0.14751278,0.5313191,10.183194160461426,-2.4042491912841797,0.11170801520347595,26.16373062133789,248.6973876953125, 148.69210815429688
519,382503244,-0.10793064,0.81172836,0.12953725,0.5591676,11.4835844039917,-1.667796015739441,-1.1909801959991455,67.7535629272461,257.19573974609375, 163.5705108642578
520,382519911,-0.14068413,0.7901115,0.11329135,0.58574504,12.447420120239258,-0.9336951375007629,-1.7654167413711548,111.59597778320312,266.1242370605469, 175.48223876953125
521,382536578,-0.17595366,0.7649475,0.09791739,0.6118073,14.11703872680664,1.7729548215866089,-1.3244810104370117,132.5752716064453,278.8293762207031, 178.75491333007812
522,382553245,-0.20723414,0.73724306,0.079729795,0.6380988,15.544621467590332,2.48323655128479,-1.3564196825027466,102.64269256591797,291.5438232421875, 174.99575805664062
523,382569912,-0.23648638,0.7074677,0.060516924,0.66325074,16.37014389038086,0.08735822141170502,-1.9663801193237305,91.41944885253906,295.349609375, 172.00587463378906
524,382586579,-0.2655052,0.6751027,0.04232063,0.686988,18.114910125732422,0.06326551735401154,-2.0686821937561035,99.67694091796875,298.7410583496094, 167.3871307373047
525,382603246,-0.29215494,0.6413331,0.02373779,0.7090656,19.417015075683594,-0.316154420375824,-2.291543960571289,89.88797760009766,297.9347229003906, 160.79640197753906
526,382619913,-0.31854945,0.60585356,0.0072417213,0.72898257,20.216554641723633,-0.9189765453338623,-3.4117488861083984,102.67827606201172,292.8350524902344, 154.59683227539062
527,382636580,-0.34653303,0.5681623,-0.0036702463,0.74638677,20.3319034576416,0.3836256265640259,-4.185953617095947,142.25250244140625,281.70684814453125, 144.89134216308594
528,382653247,-0.36791685,0.5303208,-0.011796106,0.76371336,19.853612899780273,6.805270195007324,-4.876406192779541,130.98269653320312,276.2168884277344, 100.47716522216797
529,382669914,-0.38265875,0.50022304,-0.024140092,0.7763805,16.09739875793457,1.4175540208816528,-11.315555572509766,64.58812713623047,230.2388458251953, 92.47216033935547
530,382686581,-0.3883481,0.48318422,-0.038990006,0.7837082,10.79690933227539,8.507109642028809,-16.03160285949707,-14.84354305267334,150.7251739501953, 64.94383239746094
531,382703248,-0.38491508,0.4830101,-0.05216296,0.78474236,7.1301589012146,3.6764285564422607,-18.420747756958008,-82.57876586914062,37.40654373168945, 22.89914321899414
532,382719915,-0.3815691,0.49118647,-0.049606394,0.78146017,10.480598449707031,3.4000298976898193,-16.11699676513672,-20.900650024414062,-63.05644226074219, -20.31528663635254
533,382736582,-0.37835902,0.5046275,-0.038223922,0.77507055,12.535345077514648,2.992638349533081,-12.33605670928955,12.377159118652344,-124.53582763671875, -42.79798126220703
534,382753249,-0.37581825,0.5212824,-0.02272539,0.76583874,14.3823881149292,1.659355878829956,-9.306660652160645,27.648494720458984,-161.90664672851562, -46.8048095703125
535,382769916,-0.37469625,0.5386499,-0.0025936298,0.7546208,14.701064109802246,1.8305844068527222,-7.776578426361084,55.24397659301758,-184.609375, -50.709407806396484
536,382786583,-0.375269,0.55500764,0.021420471,0.7420788,13.822417259216309,2.056666135787964,-6.833861351013184,84.39753723144531,-193.93194580078125, -52.744903564453125
537,382803250,-0.37686402,0.56912744,0.047081854,0.7292811,14.060041427612305,1.0315505266189575,-2.949465274810791,102.3525619506836,-187.1273651123047, -53.53288269042969
538,382819917,-0.3782503,0.5794636,0.060430415,0.7193726,14.184700965881348,-15.313180923461914,20.138504028320312,48.877418518066406,-124.85640716552734, -14.993139266967773
539,382836584,-0.3831999,0.58510846,0.07011873,0.71125907,7.7297043800354,-3.9260265827178955,12.307734489440918,56.43175506591797,-84.02188873291016, 10.256574630737305
540,382853251,-0.37824255,0.5952288,0.07585204,0.70489854,18.502904891967773,4.565495014190674,-6.5020318031311035,-15.451767921447754,-93.57390594482422, -24.82900047302246
541,382869918,-0.3713476,0.60788417,0.083496414,0.69685453,18.084930419921875,-0.8012353777885437,-0.7764393091201782,-19.797420501708984,-118.42672729492188, -36.0806770324707
542,382886585,-0.36355194,0.6216446,0.090062395,0.68795127,11.00393295288086,-4.693495273590088,-1.460093379020691,-31.028047561645508,-124.97669982910156, -32.9533805847168
543,382903252,-0.3616295,0.63156,0.1027479,0.67808473,11.377983093261719,-3.009510040283203,-0.7055805921554565,33.316837310791016,-122.51918029785156, -31.386219024658203
544,382919919,-0.36021283,0.63979924,0.11568129,0.6689707,9.469012260437012,-0.8618203997612,-0.1542740762233734,40.361106872558594,-111.6629409790039, -33.222896575927734
545,382936586,-0.35965833,0.6464939,0.12753692,0.6606253,9.574472427368164,-3.5951714515686035,-2.1286892890930176,42.42719650268555,-97.82147979736328, -27.676483154296875
546,382953253,-0.36044055,0.65145934,0.13868213,0.6530321,10.437854766845703,-2.4833273887634277,-0.6649113297462463,48.79587936401367,-83.63681030273438, -21.929445266723633
547,382969920,-0.35922757,0.65614474,0.14743015,0.6470656,11.11081314086914,0.8166298270225525,-0.16707316040992737,28.25603675842285,-71.05394744873047, -24.50819206237793
548,382986587,-0.3539267,0.6620941,0.15177378,0.6429091,11.400591850280762,-0.19614437222480774,-0.014221519231796265,-14.753890037536621,-61.80106735229492, -25.95457649230957
549,383003254,-0.34979206,0.66729015,0.15552838,0.6388901,10.918645858764648,-1.7778480052947998,1.0496766567230225,-10.365870475769043,-55.23969650268555, -19.192434310913086
550,383019921,-0.34625357,0.6719382,0.15926385,0.635014,10.082539558410645,-0.1600852906703949,1.079035997390747,-6.566525936126709,-51.575740814208984, -17.423250198364258
551,383036588,-0.3437307,0.67595,0.1638008,0.6309598,10.443696022033691,-0.7619735598564148,0.0323157012462616,3.3166279792785645,-50.500797271728516, -16.937990188598633
552,383053255,-0.3419603,0.67931646,0.16932003,0.6268359,9.956068992614746,-1.176645040512085,0.3987588584423065,12.672432899475098,-49.54582977294922, -18.794553756713867
553,383069922,-0.33924812,0.6829926,0.17444174,0.62289804,9.488280296325684,-1.789406180381775,0.74748295545578,5.608068466186523,-50.23700714111328, -21.08498191833496
554,383086589,-0.33481637,0.68794996,0.17883955,0.61857843,9.37069320678711,-2.7297279834747314,0.4217461943626404,-8.118736267089844,-57.967952728271484, -22.65004539489746
555,383103256,-0.32987517,0.69416374,0.18418276,0.61269575,9.498318672180176,-2.6348633766174316,0.7352201342582703,-7.471165657043457,-73.583251953125, -24.199199676513672
556,383119923,-0.32475367,0.7018819,0.19129243,0.60440403,9.657546997070312,-2.4082441329956055,1.304671287536621,-1.2607777118682861,-95.7402114868164, -26.075414657592773
557,383136590,-0.32034498,0.71013045,0.2001538,0.59416544,9.8814697265625,-1.0975438356399536,0.48577016592025757,10.831280708312988,-110.42115783691406, -26.576366424560547
558,383153257,-0.31622812,0.7188314,0.20969793,0.5825014,10.302129745483398,-0.43837061524391174,-0.3282659649848938,16.017467498779297,-120.41342163085938, -24.975025177001953
559,383169924,-0.3120139,0.72749233,0.21887258,0.5705238,10.5198335647583,0.8636347651481628,0.004984870553016663,14.608016014099121,-121.2032241821289, -22.91341781616211
560,383186591,-0.30679068,0.7364428,0.22726102,0.5584657,10.58828353881836,0.646733283996582,-0.426799476146698,6.001339912414551,-122.66155242919922, -22.290355682373047
561,383203258,-0.30142227,0.74542344,0.2356219,0.5458673,11.57483196258545,-0.42970991134643555,-0.7541015148162842,5.951382637023926,-125.762939453125, -21.483976364135742
562,383219925,-0.29590124,0.7541763,0.24350241,0.533261,11.87552261352539,-0.4955001175403595,-0.7398063540458679,3.8776657581329346,-124.29205322265625, -19.94221305847168
563,383236592,-0.288919,0.7633859,0.2500074,0.5208304,11.58444881439209,-0.5353971719741821,-1.318924903869629,-9.943498611450195,-124.8134994506836, -17.75363540649414
564,383253259,-0.27984396,0.7733357,0.25473914,0.5086724,11.88671588897705,-0.8471105694770813,-0.7551316022872925,-29.18994140625,-126.21302032470703, -15.203774452209473
565,383269926,-0.26826826,0.7838328,0.25769883,0.4972221,12.692231178283691,-0.20023499429225922,-0.2875362038612366,-50.96672821044922,-125.48057556152344, -14.925238609313965
566,383286593,-0.2539405,0.79457766,0.25893715,0.48694187,13.617142677307129,0.6703094244003296,-0.40520769357681274,-74.19789123535156,-121.91613006591797, -16.750028610229492
567,383303260,-0.23744552,0.8054361,0.2584484,0.47759512,14.639717102050781,0.554912269115448,0.8289099931716919,-93.65696716308594,-118.26177978515625, -15.945428848266602
568,383319927,-0.2192926,0.81600916,0.25647968,0.46931657,15.623374938964844,0.684291422367096,1.9104270935058594,-109.1146011352539,-112.23706817626953, -15.404986381530762
569,383336594,-0.19915774,0.8264626,0.25301847,0.4618199,15.498869895935059,0.4959605038166046,2.18963623046875,-126.23735809326172,-109.07698822021484, -14.790002822875977
570,383353261,-0.17704144,0.83715063,0.24881762,0.45378944,15.431600570678711,-1.3385688066482544,3.041080951690674,-139.22677612304688,-115.68109893798828, -15.745599746704102
571,383369928,-0.15409407,0.84803873,0.24444243,0.44422194,16.093324661254883,-4.829098701477051,4.37073278427124,-142.1953125,-126.78773498535156, -15.204361915588379
572,383386595,-0.13247493,0.8584569,0.24058172,0.43315443,17.073543548583984,-8.260200500488281,6.093215465545654,-129.92822265625,-132.89234924316406, -13.568284034729004
573,383403262,-0.115212835,0.86728615,0.23895456,0.42123824,17.008771896362305,-9.869280815124512,5.458195686340332,-94.86536407470703,-128.53729248046875, -15.94418716430664
574,383419929,-0.09882113,0.8739698,0.23869473,0.41162622,15.394164085388184,-8.006914138793945,7.192402362823486,-87.98876190185547,-108.7500228881836, -27.29298973083496
575,383436596,-0.07406444,0.8795377,0.23309673,0.4081592,12.803908348083496,-6.88593053817749,5.950718879699707,-162.86463928222656,-79.29729461669922, -25.244293212890625
576,383453263,-0.040269364,0.88479406,0.2235486,0.40687123,11.762530326843262,-4.4660749435424805,-5.537141799926758,-232.1140899658203,-78.13542175292969, -28.73311996459961
577,383469930,-0.007419803,0.88849664,0.21173702,0.40704545,16.6520938873291,-7.587339878082275,-7.614577770233154,-234.61500549316406,-62.84262466430664, -15.487070083618164
578,383486597,-0.0016027527,0.88814837,0.2129185,0.40725386,7.733964443206787,-9.8660249710083,1.672946572303772,-33.10831069946289,-12.703780174255371, -25.501968383789062
579,383503264,-0.01022803,0.8850409,0.21778068,0.41130248,6.202056407928467,-1.0335075855255127,5.806416034698486,59.619327545166016,39.38626480102539, -11.895936965942383
580,383519931,-0.012079446,0.87953866,0.2153975,0.4241106,7.685559272766113,1.457421064376831,6.0194292068481445,-14.998327255249023,89.57678985595703, 8.803694725036621
581,383536598,-0.0101134665,0.87219036,0.20660394,0.44327953,7.250943183898926,-1.9363069534301758,3.081068277359009,-65.98099517822266,128.0473175048828, 33.13849639892578
582,383553265,-0.016072983,0.8634216,0.19559504,0.4647445,7.489266395568848,-5.2479681968688965,0.027968011796474457,-28.396404266357422,157.4088897705078, 68.255615234375
583,383569932,-0.03490128,0.8524516,0.18633519,0.48722446,7.756870269775391,-4.996567249298096,0.06605470180511475,52.35934829711914,187.5088348388672, 95.7488784790039
584,383586599,-0.0605586,0.8392599,0.17669946,0.51063967,7.809969902038574,-3.467257022857666,0.23311001062393188,90.36203002929688,209.18496704101562, 117.66182708740234
585,383603266,-0.09119657,0.82301587,0.16610932,0.53547704,8.91646957397461,-2.25040340423584,-0.7363508939743042,115.2029037475586,234.47036743164062, 136.3569793701172
586,383619933,-0.12530133,0.80290115,0.15494446,0.5618199,10.78334903717041,-0.6980501413345337,-1.2888672351837158,133.34120178222656,261.5108337402344, 147.0740966796875
587,383636600,-0.15949282,0.7801175,0.14110957,0.58827436,11.414112091064453,-0.4793437123298645,-1.9758691787719727,125.61161804199219,274.7917785644531, 159.33468627929688
588,383653267,-0.19315936,0.7551541,0.124579646,0.6139312,12.70921516418457,0.3880646228790283,-1.9297518730163574,114.96739959716797,281.8042907714844, 170.5568389892578
589,383669934,-0.22530878,0.7274764,0.106611975,0.63925564,15.126811981201172,2.1252715587615967,-2.9726080894470215,104.81104278564453,292.21533203125, 169.8907928466797
590,383686601,-0.25464085,0.6975677,0.087470666,0.66400766,16.70330238342285,1.5201994180679321,-2.9325623512268066,89.36503601074219,299.0630187988281, 162.84912109375
591,383703268,-0.2812871,0.6661904,0.06721369,0.68742305,17.284685134887695,0.07848478853702545,-2.6647205352783203,74.66641998291016,299.907470703125, 157.5970916748047
592,383719935,-0.30533066,0.63393664,0.046363667,0.70904726,18.17856216430664,-0.515379786491394,-3.107138156890869,62.39209747314453,296.0476989746094, 151.2234344482422
593,383736602,-0.32753462,0.60164523,0.025679905,0.7280691,18.749296188354492,-2.104294538497925,-4.228025913238525,56.03987121582031,284.2930908203125, 147.131103515625
594,383753269,-0.35150322,0.56832933,0.008779919,0.7438888,18.62653350830078,-2.992008686065674,-4.110429763793945,85.16498565673828,268.40478515625, 147.4866180419922
595,383769936,-0.37878022,0.5323437,-0.0011461349,0.75705665,18.137897491455078,-0.45688876509666443,-4.351102352142334,140.3489227294922,255.56980895996094, 143.5425262451172
596,383786603,-0.3994566,0.4966168,-0.008081115,0.7705459,17.495281219482422,10.070995330810547,-3.4795265197753906,131.13551330566406,248.1726837158203, 97.64541625976562
597,383803270,-0.4098684,0.47118434,-0.023774996,0.78065884,13.860245704650879,1.6736764907836914,-8.416704177856445,21.007518768310547,207.2484130859375, 82.35655975341797
598,383819937,-0.41547728,0.45482996,-0.03972834,0.7867212,10.2625150680542,6.639618873596191,-11.318737030029297,-22.14638328552246,147.54383850097656, 67.51310729980469
599,383836604,-0.4133332,0.45221603,-0.056034315,0.7883632,7.061773300170898,1.7061644792556763,-13.228242874145508,-88.7799301147461,63.1658821105957, 35.79345703125
600,383853271,-0.41209158,0.4552841,-0.057119694,0.7871686,8.565196990966797,1.450121521949768,-12.884781837463379,-20.152189254760742,-19.728439331054688, -0.3177519738674164
601,383869938,-0.4108455,0.46276307,-0.04854371,0.78402793,10.051645278930664,4.0681233406066895,-9.7339448928833,19.033855438232422,-76.44012451171875, -26.654621124267578
602,383886605,-0.40848306,0.47486886,-0.037304156,0.77862036,11.555370330810547,2.9255707263946533,-8.051698684692383,16.214332580566406,-115.25687408447266, -35.951290130615234
603,383903272,-0.40676618,0.4888652,-0.020931166,0.7714363,12.721997261047363,1.7572383880615234,-7.573678016662598,40.12943649291992,-145.21205139160156, -44.52154541015625
604,383919939,-0.40676984,0.5032037,0.001111041,0.7624455,13.272172927856445,0.9452149271965027,-7.506628513336182,74.99901580810547,-168.69276428222656, -49.1839485168457
605,383936606,-0.4074129,0.51801246,0.026009982,0.75166583,12.976727485656738,1.489935278892517,-7.33912992477417,91.01996612548828,-184.73590087890625, -50.58236312866211
606,383953273,-0.40755513,0.53289765,0.05175122,0.7397574,13.353492736816406,2.2141199111938477,-6.002203941345215,93.6803207397461,-191.01104736328125, -52.8975830078125
607,383969940,-0.40496695,0.5465215,0.06754087,0.7299002,15.764492988586426,-10.366377830505371,14.872069358825684,36.109230041503906,-149.7122344970703, -36.292362213134766
608,383986607,-0.4068762,0.5539193,0.07747477,0.72223485,8.013153076171875,-10.935233116149902,18.12981605529785,40.02191162109375,-92.15951538085938, -0.8946962356567383
609,384003274,-0.40154287,0.5656802,0.08222816,0.7155472,17.78350830078125,3.663205862045288,-4.230188369750977,-26.092735290527344,-100.06462097167969, -17.87314796447754
610,384019941,-0.39546046,0.57894355,0.093480386,0.7068925,20.0615177154541,-0.6974668502807617,-2.9202966690063477,0.01496523804962635,-133.07749938964844, -40.19536209106445
611,384036608,-0.3905906,0.5914377,0.10638128,0.69736916,10.789981842041016,-3.691319465637207,-0.3180907964706421,15.631349563598633,-136.1247100830078, -38.795448303222656
612,384053275,-0.39019912,0.6002371,0.12314819,0.6872371,11.29642391204834,-2.537961483001709,-1.9827032089233398,62.86266326904297,-127.85411071777344, -34.19523620605469
613,384069942,-0.39110675,0.6070587,0.14009549,0.6774133,9.647916793823242,-2.129262685775757,-2.3888964653015137,74.23157501220703,-116.40143585205078, -31.380952835083008
614,384086609,-0.39263836,0.61200815,0.1552832,0.66870666,9.257699012756348,-3.02668833732605,-2.616481304168701,72.6820068359375,-97.47643280029297, -26.04000473022461
615,384103276,-0.3941344,0.6155897,0.1681137,0.6613966,10.411356925964355,-1.9791311025619507,-1.0298668146133423,63.99060821533203,-78.7917251586914, -21.653451919555664
616,384119943,-0.3941837,0.6186927,0.17858617,0.6557023,11.846654891967773,0.20301038026809692,0.22715531289577484,46.61009979248047,-64.94084167480469, -23.257320404052734
617,384136610,-0.39261878,0.6214926,0.18695207,0.6516491,11.809920310974121,0.12314058840274811,-0.19452910125255585,29.039474487304688,-52.81114196777344, -26.344573974609375
618,384153277,-0.3924089,0.6231215,0.19535686,0.6477428,11.040209770202637,-1.997187614440918,0.2772814631462097,37.95730209350586,-45.237510681152344, -22.292465209960938
619,384169944,-0.39417663,0.6235016,0.20448713,0.6434716,10.29440689086914,-0.24241229891777039,0.7981464266777039,53.52900695800781,-40.50558090209961, -17.348133087158203
620,384186611,-0.39511788,0.6245689,0.21250595,0.6392472,10.709482192993164,-0.28386592864990234,0.432212769985199,43.115966796875,-41.493499755859375, -15.405835151672363
621,384203278,-0.39521664,0.62658834,0.21925949,0.63491446,10.21148681640625,-0.8816425800323486,0.9537063241004944,31.501188278198242,-43.927303314208984, -11.97942066192627
622,384219945,-0.39237562,0.63109916,0.22289184,0.63093174,9.872014999389648,-1.5647251605987549,0.1930880844593048,-2.093869209289551,-49.283058166503906, -8.552603721618652
623,384236612,-0.3865154,0.6382432,0.2245772,0.62675095,9.87643051147461,-2.080118179321289,0.5301914811134338,-30.426136016845703,-60.96858596801758, -8.61685562133789
624,384253279,-0.3790263,0.6470458,0.22585201,0.62182146,10.19720458984375,-1.8732606172561646,0.9700595736503601,-42.56230545043945,-72.89511108398438, -9.265782356262207
625,384269946,-0.37138245,0.6567047,0.22825779,0.61539614,10.733182907104492,-1.341220736503601,0.7377978563308716,-38.30503845214844,-86.49378967285156, -9.703360557556152
626,384286613,-0.36430123,0.6662127,0.23242041,0.6078045,10.448467254638672,-0.4542940855026245,0.9034717679023743,-26.0941219329834,-94.81605529785156, -12.475237846374512
627,384303280,-0.3581448,0.67556196,0.23821433,0.5988341,10.05233383178711,-0.263103723526001,0.4869336485862732,-12.405900001525879,-103.18338012695312, -12.82931900024414
628,384319947,-0.35266793,0.6847821,0.24500142,0.58878976,10.338878631591797,0.06832003593444824,0.3806864023208618,-3.0508580207824707,-109.064453125, -12.171516418457031
629,384336614,-0.34688962,0.694166,0.25209516,0.578143,10.454249382019043,0.32479730248451233,0.40075480937957764,-2.5747339725494385,-113.91251373291016, -13.051365852355957
630,384353281,-0.34031856,0.70405406,0.25915676,0.56685895,10.48237419128418,-0.11447802931070328,-0.4041682183742523,-6.546421051025391,-120.37898254394531, -13.602380752563477
631,384369948,-0.33287588,0.7143174,0.26596153,0.55516565,10.80716609954834,-0.8922330737113953,0.14779745042324066,-11.86830997467041,-124.88927459716797, -14.104181289672852
632,384386615,-0.3249252,0.72467107,0.2718708,0.5434721,11.160494804382324,-1.3128235340118408,-0.713306188583374,-17.950321197509766,-124.29060363769531, -11.491230010986328
633,384403282,-0.31535864,0.7355815,0.27663377,0.5319233,11.690876007080078,-1.2581048011779785,-0.5215482711791992,-31.76371955871582,-126.28015899658203, -11.128029823303223
634,384419949,-0.3040004,0.74704903,0.2795142,0.520935,11.566896438598633,-1.3535606861114502,-0.4441941976547241,-49.95480728149414,-125.02970123291016, -8.331615447998047
635,384436616,-0.29110664,0.75880104,0.28098238,0.5104185,11.841288566589355,-0.7732585668563843,-0.6883784532546997,-64.37338256835938,-123.88249206542969, -7.037304878234863
636,384453283,-0.27646258,0.7706905,0.28084263,0.5007314,12.415234565734863,-0.2942020893096924,-0.3496708273887634,-81.0009536743164,-120.48095703125, -6.178191184997559
637,384469950,-0.2609429,0.7822295,0.27949083,0.49184427,12.906265258789062,0.46201103925704956,0.7131735682487488,-90.67693328857422,-114.75260162353516, -4.940831661224365
638,384486617,-0.24385978,0.79339856,0.27702433,0.4840545,13.578084945678711,1.05388605594635,1.2685612440109253,-104.2875747680664,-109.01476287841797, -6.86521577835083
639,384503284,-0.22469772,0.80442804,0.27369383,0.47696802,14.317392349243164,1.5069235563278198,1.3500266075134277,-119.590087890625,-107.69146728515625, -10.464822769165039
640,384519951,-0.20393123,0.81525016,0.26977143,0.47010922,14.772865295410156,0.5665650367736816,2.3614885807037354,-130.50022888183594,-108.35369873046875, -13.144062042236328
641,384536618,-0.18178008,0.8257856,0.26574284,0.46304974,15.677483558654785,-1.034419059753418,3.3583245277404785,-137.8363494873047,-111.5252456665039, -17.300048828125
642,384553285,-0.16038208,0.83577496,0.26208076,0.45505133,15.499783515930176,-5.9793524742126465,4.729928493499756,-130.01158142089844,-114.80268096923828, -16.944026947021484
643,384569952,-0.14206006,0.844448,0.26002216,0.4462232,14.961935043334961,-10.230677604675293,5.898364543914795,-104.51020812988281,-112.29767608642578, -18.33635711669922
644,384586619,-0.12425839,0.851455,0.25867218,0.43894565,14.472654342651367,-10.40561294555664,5.939587593078613,-100.6980209350586,-98.55933380126953, -25.854917526245117
645,384603286,-0.10058135,0.8582656,0.25533503,0.43366787,14.663070678710938,-8.176697731018066,0.04772627353668213,-144.73486328125,-95.59049224853516, -34.53358840942383
646,384619953,-0.07429466,0.8650264,0.2507372,0.42818278,14.367912292480469,-6.406383037567139,-7.8198089599609375,-163.68289184570312,-100.71121215820312, -35.28120040893555
647,384636620,-0.049716488,0.86975867,0.24720977,0.42418838,19.292236328125,-1.763365626335144,-5.197013854980469,-152.05445861816406,-83.4970932006836, -41.269371032714844
648,384653287,-0.035009608,0.8701083,0.24817541,0.42437604,8.028788566589355,-8.630939483642578,4.5866875648498535,-85.58396911621094,-30.714004516601562, -48.455833435058594
649,384669954,-0.033458248,0.86729413,0.250974,0.42859477,6.265863418579102,-2.4042160511016846,5.112833499908447,-7.813653469085693,24.381635665893555, -27.770296096801758
650,384686621,-0.030833418,0.86259896,0.24846154,0.43958998,7.699573040008545,-1.4836777448654175,3.2439262866973877,-41.142906188964844,69.49080657958984, -4.186850070953369
651,384703288,-0.030986326,0.8559267,0.24221812,0.45580697,7.7881598472595215,-3.5244107246398926,2.2384893894195557,-44.47422409057617,111.8019027709961, 21.74906349182129
652,384719955,-0.035558194,0.8472644,0.2327496,0.476137,7.076809883117676,-4.420200824737549,1.645020842552185,-35.06913375854492,150.17947387695312, 50.20582962036133
653,384736622,-0.046192482,0.83677137,0.22077225,0.49893868,6.8358025550842285,-4.885087013244629,0.5872082710266113,-11.568351745605469,180.82896423339844, 80.9537353515625
654,384753289,-0.06510404,0.8241206,0.20865463,0.5225418,7.562703609466553,-3.746249198913574,0.4732193350791931,34.934749603271484,205.4470977783203, 106.47447204589844
655,384769956,-0.09044257,0.8090157,0.19590303,0.5467503,9.116317749023438,-2.209040880203247,0.1954818069934845,69.24259185791016,227.1951141357422, 129.28713989257812
656,384786623,-0.119239725,0.79119545,0.18229572,0.5714544,10.000147819519043,-0.1297450065612793,-0.8986057043075562,86.23100280761719,245.33987426757812, 143.08824157714844
657,384803290,-0.1491721,0.7711085,0.16710867,0.59599835,10.971087455749512,-0.08083698153495789,-2.2190215587615967,88.19338989257812,256.1339111328125, 153.53565979003906
658,384819957,-0.18111685,0.7487255,0.15139873,0.6194234,12.449992179870605,0.23314344882965088,-2.9596450328826904,100.34771728515625,262.5703430175781, 163.1683349609375
659,384836624,-0.21263672,0.7238385,0.13465363,0.64242667,14.208401679992676,1.0561023950576782,-2.7837541103363037,97.25301361083984,272.07159423828125, 164.74490356445312
660,384853291,-0.24083452,0.697995,0.11400558,0.6646838,14.828094482421875,-1.01656174659729,-2.790264129638672,65.51923370361328,275.3985290527344, 169.86415100097656
661,384869958,-0.26865664,0.6705043,0.0921392,0.685389,15.89245891571045,-1.264977216720581,-3.486361026763916,62.06795120239258,277.4364013671875, 175.36532592773438
662,384886625,-0.29530182,0.6409715,0.07079321,0.7049402,17.148258209228516,-0.03976475074887276,-3.132688045501709,63.57391357421875,280.3379821777344, 168.3590087890625
663,384903292,-0.3197786,0.61089385,0.04880955,0.72261196,17.593637466430664,-0.8491519689559937,-3.021141767501831,52.945228576660156,275.2601318359375, 164.37826538085938
664,384919959,-0.34385496,0.5798858,0.028237361,0.7380374,18.093799591064453,-0.08110471069812775,-3.231564998626709,61.07999801635742,267.5744934082031, 161.24319458007812
665,384936626,-0.36814544,0.5475611,0.0101794675,0.75136024,18.388025283813477,0.12806503474712372,-3.7022786140441895,78.21559143066406,260.3885803222656, 157.2202606201172
666,384953293,-0.3934823,0.5135606,-0.0026340587,0.76250917,17.768583297729492,2.181288957595825,-3.894503355026245,113.6708984375,248.1217041015625, 148.4847869873047
667,384969960,-0.41072828,0.48129916,-0.01509258,0.77422595,16.93745994567871,9.23310375213623,-3.4475183486938477,82.27974700927734,240.64418029785156, 103.50243377685547
668,384986627,-0.42338327,0.4556448,-0.028997196,0.78249204,13.217645645141602,0.15531927347183228,-10.197224617004395,40.12480545043945,199.1094207763672, 93.22093963623047
669,385003294,-0.4337389,0.4367538,-0.03744147,0.7872198,10.473212242126465,6.299289226531982,-12.741107940673828,41.83461380004883,136.87217712402344, 72.62281799316406
670,385019961,-0.4369103,0.4320204,-0.04429393,0.787722,7.126971244812012,4.161056041717529,-15.91342544555664,-14.017603874206543,44.95515823364258, 38.428428649902344
671,385036628,-0.43754944,0.43593857,-0.039588813,0.7854558,9.072863578796387,5.237956523895264,-15.328317642211914,14.537422180175781,-43.6854362487793, -3.6685984134674072
672,385053295,-0.43548092,0.4471447,-0.027409121,0.7808116,10.917655944824219,5.194179534912109,-12.72140884399414,24.273481369018555,-111.37877655029297, -35.433502197265625
673,385069962,-0.43171164,0.46337044,-0.011611975,0.77380747,12.996012687683105,3.0736992359161377,-10.576147079467773,23.076377868652344,-155.63949584960938, -49.40860366821289
674,385086629,-0.42767736,0.4817263,0.007869624,0.7648332,14.02544116973877,1.9746859073638916,-9.089126586914062,35.73121643066406,-183.88685607910156, -56.5643310546875
675,385103296,-0.4240315,0.5006282,0.029922046,0.7541043,14.030516624450684,2.233147621154785,-7.760843276977539,48.891807556152344,-199.58847045898438, -57.9378662109375
676,385119963,-0.41904038,0.51777315,0.04752506,0.74435055,17.319751739501953,-6.123337745666504,8.465352058410645,26.26194190979004,-174.12173461914062, -52.67618179321289
677,385136630,-0.42002985,0.5281187,0.05828868,0.7357093,9.308160781860352,-17.323047637939453,20.24208641052246,31.86326026916504,-113.80952453613281, -3.1982483863830566
678,385153297,-0.42006966,0.53649986,0.069164254,0.7286465,15.38197135925293,3.386810302734375,-0.44753819704055786,34.05599594116211,-99.40328979492188, -14.213613510131836
679,385169964,-0.4156135,0.548943,0.08192407,0.7205663,23.135196685791016,2.3628997802734375,-5.552831649780273,15.67006778717041,-130.99169921875, -38.65098571777344
680,385186631,-0.40853187,0.5637022,0.093613826,0.71174276,12.396222114562988,-2.1033968925476074,1.1026554107666016,-5.682487487792969,-143.37115478515625, -43.97300338745117
681,385203298,-0.40558216,0.5745635,0.107951686,0.7026567,10.398273468017578,-4.728553771972656,-2.9674031734466553,34.40583419799805,-130.09788513183594, -35.83836364746094
682,385219965,-0.40472552,0.5828272,0.123904675,0.693655,10.321393013000488,-1.5229952335357666,-1.28020179271698,57.78107833862305,-120.09721374511719, -34.421024322509766
683,385236632,-0.40282628,0.5902043,0.13679999,0.6860583,8.898641586303711,-3.365457057952881,-1.8874666690826416,40.30720138549805,-102.5972671508789, -31.8848934173584
684,385253299,-0.40220988,0.5955372,0.14849311,0.6793473,9.887088775634766,-3.3362395763397217,-1.5940004587173462,44.70845413208008,-84.81241607666016, -25.462797164916992
685,385269966,-0.40150914,0.5997446,0.15912496,0.673629,11.710833549499512,-0.695146381855011,-0.5081137418746948,41.52880096435547,-72.63818359375, -25.52389907836914
686,385286633,-0.39840806,0.6040931,0.16738021,0.66957194,11.388298988342285,0.7303807139396667,0.5829464197158813,18.38459014892578,-62.5258674621582, -31.293420791625977
687,385303300,-0.39589354,0.6076033,0.17451513,0.66605633,10.938276290893555,-2.500093698501587,0.6607601046562195,17.292959213256836,-52.738861083984375, -26.35666275024414
688,385319967,-0.39651883,0.60886866,0.1834337,0.6621208,10.324117660522461,-1.4193698167800903,0.7864121198654175,45.179996490478516,-45.37079620361328, -21.053850173950195
689,385336634,-0.3973743,0.6095525,0.19224788,0.6584682,10.387983322143555,-0.23633982241153717,-0.33662858605384827,46.86763381958008,-41.03560256958008, -21.13435935974121
690,385353301,-0.39913216,0.6093777,0.2017009,0.65472835,10.533761024475098,-0.5527459383010864,0.08099347352981567,55.9699592590332,-38.10325241088867, -20.655996322631836
691,385369968,-0.3990926,0.6106125,0.20902611,0.65129536,9.952218055725098,-0.41349101066589355,0.8527576327323914,34.538612365722656,-39.87092208862305, -18.756502151489258
692,385386635,-0.3952969,0.614752,0.21304086,0.6484088,9.888916969299316,-1.248798131942749,0.9431267380714417,-4.839423179626465,-46.992496490478516, -19.01185417175293
693,385403302,-0.38884425,0.6218197,0.21522874,0.6448389,9.271248817443848,-2.115506887435913,0.5849187970161438,-31.196916580200195,-61.969017028808594, -16.996994018554688
