PacketCounter,SampleTimeFine,Quat_W,Quat_X,Quat_Y,Quat_Z,Acc_X,Acc_Y,Acc_Z,Gyr_X,Gyr_Y,Gyr_Z 
1,3193866107,0.40698725,-0.57096416,-0.45693275,-0.5473333,-0.03953617811203003,0.8708837032318115,0.7485895752906799,2.3198647499084473,-2.5082650184631348, -0.27155038714408875
2,3193882774,0.39549303,-0.56474626,-0.46631357,-0.55425483,11.766919136047363,1.9563484191894531,2.1957569122314453,-1.8024698495864868,-121.44779968261719, -40.76688766479492
3,3193899441,0.38609743,-0.552432,-0.4712735,-0.56890166,12.950510025024414,1.5567128658294678,2.929110050201416,-10.007516860961914,-123.32786560058594, -44.63669204711914
4,3193916108,0.38193604,-0.54161394,-0.47236064,-0.58108073,14.278879165649414,-0.43571141362190247,2.3350069522857666,7.336032390594482,-122.13569641113281, -42.1972541809082
5,3193932775,0.38451618,-0.5377654,-0.47222435,-0.5830607,14.812878608703613,-1.3051660060882568,2.4203295707702637,37.497798919677734,-121.60441589355469, -38.73782730102539
6,3193949442,0.3901664,-0.5380204,-0.47251064,-0.5788247,14.344367980957031,-1.3174023628234863,2.02374529838562,57.957244873046875,-122.25533294677734, -37.9912223815918
7,3193966109,0.3955347,-0.54019064,-0.4756456,-0.57053304,14.197562217712402,-1.3632948398590088,2.9963486194610596,68.58230590820312,-128.39881896972656, -39.63991165161133
8,3193982776,0.4005631,-0.54225636,-0.48040968,-0.5609937,14.855676651000977,-0.8989930748939514,5.12554407119751,77.10623931884766,-132.16000366210938, -40.474578857421875
9,3193999443,0.40576133,-0.5427204,-0.48558292,-0.5522877,15.069791793823242,-0.050235502421855927,7.034106731414795,79.9668960571289,-134.36422729492188, -38.519554138183594
10,3194016110,0.4101376,-0.54271185,-0.48735496,-0.5474816,15.837242126464844,2.192479372024536,10.449580192565918,52.497276306152344,-125.3853759765625, -27.193843841552734
11,3194032777,0.416026,-0.53892714,-0.4842743,-0.5495074,12.559486389160156,3.759377956390381,7.925515651702881,28.437788009643555,-88.3196792602539, -14.372808456420898
12,3194049444,0.42066842,-0.5326409,-0.4910656,-0.5460643,13.284833908081055,10.217692375183105,-3.9885623455047607,89.98357391357422,-127.7319564819336, -26.71182632446289
13,3194066111,0.42190665,-0.52638316,-0.5049041,-0.538505,15.784174919128418,9.349117279052734,-5.547363758087158,109.9008560180664,-126.26581573486328, -16.275636672973633
14,3194082778,0.41393194,-0.52396274,-0.5128372,-0.53955674,13.755785942077637,5.766002655029297,3.9596738815307617,12.606205940246582,-87.50326538085938, -23.329425811767578
15,3194099445,0.41395074,-0.51767707,-0.5132961,-0.54514456,4.346462726593018,-4.62295389175415,13.097944259643555,9.612626075744629,-8.44823932647705, 7.013101577758789
16,3194116112,0.4282401,-0.5028473,-0.5164321,-0.5450256,6.397850036621094,0.34979188442230225,3.22027850151062,115.8187255859375,27.01884651184082, 16.42118263244629
17,3194132779,0.44112977,-0.48594084,-0.5141271,-0.55221313,7.394874572753906,6.035650730133057,3.9237143993377686,69.07488250732422,78.84758758544922, -3.4416346549987793
18,3194149446,0.45215115,-0.4689529,-0.5035383,-0.5675312,5.950345516204834,0.5593425035476685,5.192408084869385,1.4910361766815186,129.95217895507812, -2.2617361545562744
19,3194166113,0.4665517,-0.44881114,-0.4888041,-0.584781,6.49437141418457,0.31698447465896606,5.654306411743164,-1.8258461952209473,175.61419677734375, 2.2215991020202637
20,3194182780,0.47956043,-0.42886576,-0.46708053,-0.6065739,7.82615852355957,1.775733470916748,4.924264907836914,-51.01995849609375,208.82839965820312, -0.5573975443840027
21,3194199447,0.49021775,-0.41041803,-0.43694642,-0.6327098,8.453015327453613,1.2102348804473877,2.205328941345215,-113.18714904785156,239.33316040039062, 1.9175267219543457
22,3194216114,0.5015505,-0.39167863,-0.4019948,-0.6583579,9.788009643554688,-0.3188766539096832,-0.4643210470676422,-131.319091796875,264.6302185058594, 15.617019653320312
23,3194232781,0.51567125,-0.37099925,-0.36613336,-0.6799921,10.895245552062988,-1.1014444828033447,-0.5254192352294922,-111.23915100097656,283.20623779296875, 34.85700988769531
24,3194249448,0.53271466,-0.34720528,-0.3305585,-0.69742,12.148711204528809,-0.16991300880908966,-0.7432485222816467,-81.14154052734375,302.5774230957031, 51.225074768066406
25,3194266115,0.5515407,-0.32083154,-0.29555005,-0.7109995,13.601344108581543,0.346221923828125,-1.6775271892547607,-56.4105339050293,316.6350402832031, 64.90690612792969
26,3194282782,0.57110405,-0.2924645,-0.2622187,-0.7207956,15.179421424865723,1.247497797012329,-2.034571647644043,-31.768238067626953,322.3562316894531, 74.36676025390625
27,3194299449,0.5898423,-0.26329216,-0.2299135,-0.72794455,16.48838996887207,1.786449670791626,-1.9043028354644775,-21.025432586669922,324.5410461425781, 77.24996185302734
28,3194316116,0.6067937,-0.23444028,-0.1985192,-0.7330959,17.398752212524414,2.089082956314087,-2.0525670051574707,-18.48354721069336,321.2900390625, 75.70478820800781
29,3194332783,0.62084323,-0.20815112,-0.16664459,-0.7371952,17.86579704284668,2.47440505027771,-2.165015459060669,-35.44140625,312.6412658691406, 70.3578872680664
30,3194349450,0.6324571,-0.18544802,-0.13303363,-0.74020886,18.57868766784668,2.276393175125122,-2.4964263439178467,-64.45992279052734,304.7709655761719, 66.45759582519531
31,3194366117,0.6410985,-0.1675779,-0.09706933,-0.74262244,18.327564239501953,1.2179155349731445,-3.0019121170043945,-99.07939147949219,293.3577880859375, 66.3041000366211
32,3194382784,0.648421,-0.15542865,-0.06044674,-0.7427911,17.281219482421875,-1.113570213317871,-4.748364448547363,-127.41532135009766,269.070556640625, 75.60619354248047
33,3194399451,0.6543286,-0.14835438,-0.024953218,-0.74109554,16.85035514831543,2.7794816493988037,-5.196995258331299,-143.4822998046875,239.8479461669922, 79.37022399902344
34,3194416118,0.6585717,-0.14238483,0.0027103843,-0.73892,14.04900074005127,2.3553829193115234,-9.236742973327637,-110.47666931152344,201.50469970703125, 67.6937026977539
35,3194432785,0.66171455,-0.13397667,0.012468158,-0.737583,10.685420989990234,5.904485702514648,-13.540268898010254,-9.39912223815918,135.6447296142578, 42.065185546875
36,3194449452,0.66105014,-0.135693,0.013016652,-0.7378555,9.256030082702637,7.17705774307251,-15.78169059753418,-13.216538429260254,44.874481201171875, 6.57257080078125
37,3194466119,0.657688,-0.14753762,0.0055500134,-0.7386801,11.068817138671875,5.218232154846191,-13.817337989807129,-22.429960250854492,-42.17245864868164, -17.481992721557617
38,3194482786,0.65206724,-0.1634695,-0.009774539,-0.7402638,11.919625282287598,5.521035671234131,-10.367390632629395,-3.988859176635742,-97.15889739990234, -40.02366638183594
39,3194499453,0.64428616,-0.18269761,-0.028327422,-0.7421016,12.572999000549316,5.260075569152832,-7.140450477600098,-5.853209018707275,-127.84573364257812, -55.03935241699219
40,3194516120,0.6339769,-0.20598792,-0.04657605,-0.74395764,13.146668434143066,5.0153374671936035,-5.618470191955566,-29.725587844848633,-147.47869873046875, -66.03541564941406
41,3194532787,0.62044626,-0.23230949,-0.06463195,-0.7462585,13.48294448852539,7.872076034545898,-1.7238601446151733,-49.73272705078125,-162.52621459960938, -82.00753784179688
42,3194549454,0.606377,-0.25563884,-0.07925154,-0.7487824,13.304474830627441,-1.2789822816848755,12.408819198608398,-57.515323638916016,-132.94619750976562, -79.75894927978516
43,3194566121,0.5932711,-0.27622068,-0.09043146,-0.75070214,15.036194801330566,-0.7543908953666687,2.44982647895813,-61.8785514831543,-107.54792785644531, -67.22122955322266
44,3194582788,0.5778914,-0.29946622,-0.1000784,-0.7525596,18.279802322387695,-3.002532720565796,-4.497116565704346,-84.64598846435547,-117.46458435058594, -73.38037109375
45,3194599455,0.5670333,-0.31602088,-0.120639406,-0.751033,14.398900985717773,-3.5188350677490234,-1.693028450012207,11.192465782165527,-129.17337036132812, -63.58079147338867
46,3194616122,0.5573292,-0.3299957,-0.14336753,-0.7482867,12.505287170410156,3.2892251014709473,-0.6779816746711731,36.990718841552734,-126.1862564086914, -60.869102478027344
47,3194632789,0.54541117,-0.3461143,-0.16050872,-0.7463032,10.58078670501709,4.634041786193848,1.1628918647766113,-6.1115899085998535,-117.08048248291016, -60.45756912231445
48,3194649456,0.53463686,-0.36102358,-0.17530525,-0.7437026,9.65433120727539,2.1422507762908936,1.4641292095184326,-10.873159408569336,-103.82247924804688, -47.816287994384766
49,3194666123,0.52714294,-0.37292984,-0.18976197,-0.7396177,10.34292221069336,2.8420257568359375,1.7263190746307373,2.0179786682128906,-87.5645751953125, -34.32865905761719
50,3194682790,0.5210518,-0.38345528,-0.20209618,-0.7352715,10.628044128417969,1.7034269571304321,1.0773082971572876,-1.3836140632629395,-73.03153991699219, -23.807498931884766
51,3194699457,0.516385,-0.39152104,-0.21507834,-0.7306156,10.745216369628906,0.5867312550544739,-0.8113127946853638,23.52083396911621,-64.1139144897461, -14.251970291137695
52,3194716124,0.51328385,-0.3975897,-0.22879303,-0.72533864,10.739591598510742,1.0164917707443237,0.17602264881134033,39.90419006347656,-56.817161560058594, -9.984130859375
53,3194732791,0.5102875,-0.4032989,-0.24120659,-0.72026116,10.2518892288208,0.4628717601299286,1.2112178802490234,35.03435134887695,-50.6108283996582, -8.01785659790039
54,3194749458,0.50797766,-0.40844586,-0.25319216,-0.71485984,10.055408477783203,-0.022498758509755135,1.051490068435669,37.729225158691406,-47.16088104248047, -4.11516809463501
55,3194766125,0.506287,-0.41283283,-0.26491162,-0.7092705,10.255533218383789,0.4665720760822296,0.6156291365623474,42.45804214477539,-48.88677978515625, -3.865935802459717
56,3194782792,0.50624603,-0.41567376,-0.27769127,-0.7027219,10.027589797973633,-0.026776988059282303,0.9377056360244751,61.30930709838867,-56.33648681640625, -2.432074546813965
57,3194799459,0.50676495,-0.41748822,-0.29211,-0.6953882,9.38631820678711,1.0682251453399658,0.9611783623695374,77.23271179199219,-66.96983337402344, -6.581427097320557
58,3194816126,0.50633335,-0.41991633,-0.30756593,-0.6875319,9.83211898803711,1.0315930843353271,1.5132454633712769,79.04338073730469,-81.8140640258789, -12.519501686096191
59,3194832793,0.50532967,-0.42263937,-0.32298195,-0.67948574,10.147148132324219,0.45457032322883606,2.8207268714904785,76.90218353271484,-87.28765106201172, -14.509068489074707
60,3194849460,0.5025229,-0.42651236,-0.33740884,-0.6720962,10.123106956481934,1.5689024925231934,1.8942638635635376,61.74919509887695,-92.55143737792969, -20.109922409057617
61,3194866127,0.49774903,-0.43181244,-0.35022056,-0.6656798,10.164517402648926,1.1519054174423218,1.4949997663497925,41.39524459838867,-95.86436462402344, -24.639549255371094
62,3194882794,0.49149996,-0.43825197,-0.3610561,-0.66030425,10.532631874084473,0.901635468006134,1.271155834197998,21.602685928344727,-95.07610321044922, -26.410537719726562
63,3194899461,0.48407632,-0.44549903,-0.37069696,-0.6555796,11.011147499084473,0.6815994381904602,0.543070912361145,8.31661605834961,-95.8158187866211, -28.376455307006836
64,3194916128,0.47602603,-0.45315865,-0.37999725,-0.650883,11.358704566955566,0.01368724275380373,0.07179316878318787,3.4303014278411865,-98.13264465332031, -29.224159240722656
65,3194932795,0.46887788,-0.4602328,-0.39058337,-0.64481324,11.456889152526855,0.5680705308914185,-0.31746602058410645,3.117736339569092,-102.7152328491211, -30.483230590820312
66,3194949462,0.4605212,-0.4678872,-0.40075848,-0.63905764,11.200113296508789,0.5973178148269653,0.1086045652627945,0.1729380041360855,-105.92951965332031, -32.11888885498047
67,3194966129,0.45116892,-0.47604972,-0.4104457,-0.63352793,11.190082550048828,0.5880833268165588,0.4902544617652893,-2.733395576477051,-108.3187026977539, -32.8867301940918
68,3194982796,0.44146168,-0.48438138,-0.42049682,-0.6274304,11.444877624511719,0.5949183702468872,0.27412545680999756,1.3195089101791382,-112.8531494140625, -32.75483703613281
69,3194999463,0.43190578,-0.49249554,-0.43140247,-0.62032074,12.085827827453613,0.1736559122800827,1.3289523124694824,10.967787742614746,-117.27056884765625, -32.15524673461914
70,3195016130,0.42189357,-0.5004549,-0.4432151,-0.61246324,12.411301612854004,1.0672626495361328,2.6234774589538574,19.059537887573242,-122.84490203857422, -35.05730438232422
71,3195032797,0.41127786,-0.5081137,-0.4556618,-0.6041884,12.697807312011719,0.9314636588096619,3.1386067867279053,22.342622756958008,-126.6183090209961, -39.56459426879883
72,3195049464,0.40187168,-0.5145316,-0.47021997,-0.5938433,13.488495826721191,-0.4789261221885681,2.6314194202423096,41.57370376586914,-131.3988800048828, -40.25592041015625
73,3195066131,0.39472133,-0.5189211,-0.48767984,-0.5805898,14.315760612487793,-0.9628769159317017,1.673360824584961,76.41609954833984,-134.1558380126953, -39.850582122802734
74,3195082798,0.38861895,-0.52193534,-0.5077806,-0.564551,14.793500900268555,-0.8738563656806946,1.8386526107788086,103.77433776855469,-142.27650451660156, -42.16288375854492
75,3195099465,0.38241294,-0.52451855,-0.5280967,-0.54749864,14.743997573852539,-1.2666195631027222,4.476757049560547,116.98030853271484,-143.76846313476562, -42.940391540527344
76,3195116132,0.37660614,-0.5272458,-0.54732496,-0.52973133,14.646233558654785,-1.4112465381622314,6.776993751525879,116.83787536621094,-142.50486755371094, -35.57182312011719
77,3195132799,0.37151515,-0.5318848,-0.56275254,-0.51223516,15.163043975830078,0.2501470744609833,9.757838249206543,99.42743682861328,-136.02597045898438, -13.076035499572754
78,3195149466,0.36561853,-0.53630203,-0.57330656,-0.50002277,13.574016571044922,6.936594486236572,5.366358757019043,58.86882019042969,-106.7828598022461, -12.651911735534668
79,3195166133,0.35517016,-0.5420206,-0.5850447,-0.48763815,14.28510856628418,9.456353187561035,-5.450562477111816,43.52128601074219,-132.82875061035156, -27.341781616210938
80,3195182800,0.3439678,-0.5486697,-0.5935675,-0.47783414,16.573322296142578,6.928286075592041,-4.64246129989624,9.84429931640625,-122.88587188720703, -18.24219512939453
81,3195199467,0.33263105,-0.55661726,-0.5943547,-0.47568515,13.392071723937988,1.97165048122406,9.74693775177002,-50.38788986206055,-80.48956298828125, -2.281446933746338
82,3195216134,0.32691,-0.5619326,-0.58722556,-0.48221132,6.158758640289307,-2.6211471557617188,10.547282218933105,-84.20381927490234,2.262434482574463, 15.757448196411133
83,3195232801,0.32878205,-0.5627514,-0.5808861,-0.4876317,6.410250186920166,1.669542670249939,3.8843131065368652,-37.675445556640625,41.70380783081055, 22.1623592376709
84,3195249468,0.33333415,-0.56108224,-0.5712287,-0.4977682,6.531518936157227,2.696094274520874,3.7354884147644043,-51.64376449584961,86.50082397460938, 23.390697479248047
85,3195266135,0.34330612,-0.556171,-0.5593484,-0.50984734,5.3212504386901855,-0.061935290694236755,5.27097225189209,-38.5425910949707,131.47671508789062, 33.342315673828125
86,3195282802,0.35884848,-0.5473287,-0.54556227,-0.52347034,6.089344024658203,0.9704400300979614,5.013088703155518,-20.584562301635742,177.07864379882812, 41.38533401489258
87,3195299469,0.37701464,-0.53524536,-0.5295661,-0.53938127,7.545421600341797,1.4002786874771118,4.592617511749268,-19.25344467163086,212.6504364013672, 41.34638214111328
88,3195316136,0.39540705,-0.52093893,-0.51000583,-0.5587217,8.566919326782227,1.672484278678894,2.897125005722046,-38.369239807128906,243.58859252929688, 38.320518493652344
89,3195332803,0.41414073,-0.50504476,-0.48661476,-0.5801927,9.91612434387207,-0.2588284909725189,0.482548326253891,-55.029170989990234,268.96392822265625, 41.99919509887695
90,3195349470,0.43424958,-0.48668712,-0.46150443,-0.60131246,11.086203575134277,0.4622892439365387,-0.25244903564453125,-48.930030822753906,287.12841796875, 46.196929931640625
91,3195366137,0.4541727,-0.46681103,-0.4332318,-0.62299675,12.331024169921875,1.3703736066818237,-0.5873569846153259,-59.895389556884766,304.2220764160156, 49.50279998779297
92,3195382804,0.47399163,-0.44549906,-0.4023729,-0.64417285,13.60157299041748,1.6391053199768066,-0.7453843355178833,-65.32247924804688,316.58697509765625, 54.67427444458008
93,3195399471,0.49316323,-0.42339945,-0.36940196,-0.6641274,14.698569297790527,2.3359224796295166,-0.9417466521263123,-70.72511291503906,321.5076904296875, 60.08891677856445
94,3195416138,0.51185876,-0.4006455,-0.33479172,-0.6822012,16.17339324951172,2.309051752090454,-1.510675311088562,-72.61579895019531,323.45947265625, 67.4232177734375
95,3195432805,0.5305031,-0.37677497,-0.30020085,-0.6974861,17.26575469970703,1.8596678972244263,-2.2776191234588623,-62.3255729675293,320.93212890625, 74.3947525024414
96,3195449472,0.5482365,-0.35239798,-0.26576748,-0.71036625,17.90443229675293,2.2259514331817627,-2.4113242626190186,-57.12728500366211,314.79632568359375, 77.36114501953125
97,3195466139,0.56476855,-0.32897773,-0.23068655,-0.7208287,18.383272171020508,2.0072662830352783,-3.2865490913391113,-66.87633514404297,304.71563720703125, 80.51243591308594
98,3195482806,0.5796997,-0.30752525,-0.19592004,-0.72869205,18.020809173583984,1.0614129304885864,-4.471397399902344,-70.7845687866211,285.5486755371094, 86.00516510009766
99,3195499473,0.59348553,-0.28840348,-0.16363212,-0.73336416,17.868072509765625,1.5342071056365967,-4.542951583862305,-63.0060920715332,255.6654815673828, 93.44440460205078
100,3195516140,0.604828,-0.2727231,-0.13213833,-0.7364408,16.746891021728516,2.681478977203369,-7.510475158691406,-76.09288024902344,229.29493713378906, 89.9681167602539
101,3195532807,0.6154004,-0.2553637,-0.11394297,-0.7369456,13.738040924072266,4.266457557678223,-11.900863647460938,-0.8742220401763916,177.10406494140625, 70.33246612548828
102,3195549474,0.6221206,-0.2416793,-0.10970249,-0.7365613,10.173890113830566,7.994716644287109,-15.2027587890625,48.20061492919922,94.99562072753906, 32.97883605957031
103,3195566141,0.621411,-0.2416585,-0.110281356,-0.7370805,10.77138614654541,7.901149272918701,-14.30923080444336,1.0735114812850952,1.2040852308273315, -6.1740827560424805
104,3195582808,0.61546254,-0.25101432,-0.11540981,-0.73815876,12.28602409362793,6.176853656768799,-11.604226112365723,-25.12213706970215,-68.6840591430664, -35.506675720214844
105,3195599475,0.60604817,-0.26420867,-0.124369286,-0.73988646,12.724692344665527,5.890002727508545,-8.683311462402344,-28.466222763061523,-105.90485382080078, -59.358245849609375
106,3195616142,0.5933466,-0.28110942,-0.13328783,-0.74239594,13.437915802001953,6.303737163543701,-7.317992210388184,-50.81001663208008,-125.90277862548828, -76.0367660522461
107,3195632809,0.57656825,-0.30264983,-0.14050563,-0.74580854,13.270916938781738,8.505302429199219,-6.0707502365112305,-87.1878433227539,-144.57208251953125, -92.91578674316406
108,3195649476,0.5612586,-0.3219527,-0.14561407,-0.7484196,16.348495483398438,-4.6904096603393555,9.115811347961426,-85.37569427490234,-124.92582702636719, -79.86557006835938
109,3195666143,0.5493385,-0.3368756,-0.15381938,-0.7490539,15.135039329528809,-2.4219415187835693,0.982364296913147,-42.992210388183594,-115.38031005859375, -66.05953216552734
110,3195682810,0.5372517,-0.35228136,-0.16166806,-0.7490809,17.906143188476562,-3.618529796600342,-4.259860992431641,-46.35308074951172,-118.08689880371094, -63.29887390136719
111,3195699477,0.52977,-0.36107284,-0.17851332,-0.74639344,14.662267684936523,-0.5918672680854797,-1.1916018724441528,38.64878845214844,-118.59231567382812, -58.73021697998047
112,3195716144,0.5217343,-0.36995685,-0.19401114,-0.74383134,11.773155212402344,3.5634522438049316,-0.825530469417572,29.88046646118164,-114.4849853515625, -58.601165771484375
113,3195732811,0.51211214,-0.3806575,-0.20475078,-0.74223864,10.554621696472168,1.9725993871688843,1.3994237184524536,-5.091293811798096,-106.48782348632812, -54.66533279418945
114,3195749478,0.50434995,-0.38987607,-0.2145422,-0.7399997,9.773666381835938,2.5247788429260254,1.731946349143982,-0.34030333161354065,-94.54915618896484, -43.58909225463867
115,3195766145,0.4983082,-0.39767528,-0.22342968,-0.7373075,10.676972389221191,3.382594585418701,1.5215771198272705,3.219050168991089,-82.80426025390625, -34.35823059082031
116,3195782812,0.49476457,-0.40394193,-0.2323169,-0.73353106,10.989455223083496,0.6969915628433228,1.4047061204910278,19.15998077392578,-74.4700698852539, -18.824657440185547
117,3195799479,0.49349776,-0.4083208,-0.24196152,-0.72882706,10.65526294708252,0.7013670206069946,1.027525544166565,37.2454948425293,-66.61226654052734, -9.375250816345215
118,3195816146,0.49226224,-0.41199487,-0.25045535,-0.724714,10.040872573852539,1.9479351043701172,1.1787551641464233,33.00963592529297,-57.60322570800781, -9.23243522644043
119,3195832813,0.49037096,-0.41587716,-0.25685155,-0.72153306,10.14545726776123,0.6105460524559021,1.7299716472625732,18.409236907958984,-50.159358978271484, -9.395374298095703
120,3195849480,0.48839945,-0.41963643,-0.26231956,-0.718721,9.931900978088379,0.01812409795820713,0.9116711616516113,13.36427116394043,-45.622894287109375, -8.646892547607422
121,3195866147,0.48675424,-0.4231246,-0.26821017,-0.7156112,9.858095169067383,-0.22397172451019287,0.609197199344635,17.86394691467285,-46.059364318847656, -7.787482261657715
122,3195882814,0.487306,-0.42495933,-0.27717125,-0.71071696,9.567147254943848,-0.37887465953826904,1.5061452388763428,48.208091735839844,-49.40640640258789, -3.0278687477111816
123,3195899481,0.48984438,-0.4250526,-0.29062074,-0.70350736,10.091032981872559,0.9054741263389587,1.6867504119873047,86.2113265991211,-58.97941589355469, -2.0357887744903564
124,3195916148,0.49264783,-0.4247486,-0.3073119,-0.6945834,9.84870433807373,0.2658669650554657,2.9120025634765625,107.43875885009766,-72.50578308105469, -5.270125865936279
125,3195932815,0.49446422,-0.42536554,-0.3259028,-0.68436605,9.499032974243164,0.8983900547027588,2.2383997440338135,113.25257873535156,-89.260009765625, -9.232867240905762
126,3195949482,0.49348375,-0.42804107,-0.3435513,-0.6747052,9.75352954864502,1.5284695625305176,1.6556051969528198,92.39505004882812,-100.42400360107422, -16.930675506591797
127,3195966149,0.49003103,-0.43279058,-0.358941,-0.6661257,10.267304420471191,0.7333213686943054,1.5388578176498413,65.04756927490234,-105.06559753417969, -20.52530860900879
128,3195982816,0.4849355,-0.43920794,-0.37201986,-0.6584341,10.789496421813965,0.0811469554901123,1.2669677734375,41.76706314086914,-106.35337829589844, -20.05779457092285
129,3195999483,0.4795722,-0.44574326,-0.3848596,-0.65054345,11.229665756225586,0.5116631984710693,1.141922116279602,31.710126876831055,-107.97992706298828, -22.157087326049805
130,3196016150,0.4726548,-0.4531336,-0.39682937,-0.6432683,11.086161613464355,0.8386281728744507,1.3175348043441772,19.63803482055664,-111.16305541992188, -25.643569946289062
131,3196032817,0.4638869,-0.4617734,-0.40751556,-0.6367933,10.92194652557373,1.260267972946167,0.6354795694351196,2.995265245437622,-115.05912780761719, -28.51993751525879
132,3196049484,0.45402223,-0.4711181,-0.41778597,-0.6303703,11.018782615661621,0.7510555386543274,0.9563334584236145,-3.674940586090088,-119.68722534179688, -29.763795852661133
133,3196066151,0.44324782,-0.4806192,-0.42838928,-0.6237142,10.771944046020508,0.878608226776123,0.7263402342796326,-3.691775321960449,-124.69602966308594, -33.2149543762207
134,3196082818,0.43158424,-0.49018294,-0.43957028,-0.6166311,11.248514175415039,0.5126417279243469,0.9937194585800171,0.6750600934028625,-130.3770294189453, -36.85758972167969
135,3196099485,0.4189103,-0.49976006,-0.45104918,-0.60935104,12.233049392700195,0.902922511100769,1.8818296194076538,-0.9103137254714966,-135.0565948486328, -41.531192779541016
136,3196116152,0.40609363,-0.50882834,-0.46295395,-0.60154426,12.861430168151855,0.3703783452510834,3.2849526405334473,3.485980749130249,-136.4381103515625, -43.66141891479492
137,3196132819,0.39374408,-0.5169946,-0.4755466,-0.5929063,13.560064315795898,0.26859405636787415,2.97745680809021,13.136771202087402,-136.10459899902344, -44.703529357910156
138,3196149486,0.38322544,-0.5235701,-0.49011764,-0.5820631,14.45142936706543,-0.8637558221817017,3.0282466411590576,39.235443115234375,-136.8805694580078, -43.52378845214844
139,3196166153,0.37468913,-0.5284335,-0.50729424,-0.5683475,14.945796012878418,-1.0495604276657104,2.3648886680603027,70.9986572265625,-140.61109924316406, -43.2089958190918
140,3196182820,0.3661563,-0.53300035,-0.52597666,-0.5524391,15.132286071777344,-0.6488985419273376,3.0144219398498535,90.15355682373047,-150.41107177734375, -44.80005645751953
141,3196199487,0.35728326,-0.53748435,-0.54477024,-0.5354296,15.247369766235352,-1.151667594909668,5.880814552307129,94.02936553955078,-155.5572967529297, -44.41431427001953
142,3196216154,0.3483015,-0.54235697,-0.5616554,-0.5187278,15.96937370300293,-0.09655574709177017,9.239782333374023,84.52845764160156,-151.63023376464844, -37.39136505126953
143,3196232821,0.3391495,-0.54874605,-0.5711646,-0.50756943,15.902178764343262,2.4696502685546875,10.663180351257324,32.63434600830078,-119.46805572509766, -18.213375091552734
144,3196249488,0.3309435,-0.55368686,-0.5834917,-0.49340153,13.001046180725098,8.092066764831543,0.42700454592704773,60.42372512817383,-128.96791076660156, -24.147031784057617
145,3196266155,0.31963107,-0.55953336,-0.5958267,-0.47932157,16.802499771118164,9.923152923583984,-7.333361625671387,41.761314392089844,-145.19993591308594, -29.570781707763672
146,3196282822,0.30547786,-0.5677676,-0.6003237,-0.47321773,13.899117469787598,5.779355049133301,-0.892175555229187,-32.91476821899414,-116.70943450927734, -16.439762115478516
147,3196299489,0.2965325,-0.57418865,-0.5977582,-0.47440615,10.914511680603027,-1.1059596538543701,15.376614570617676,-61.83899688720703,-46.02851104736328, 5.296670436859131
148,3196316156,0.29959905,-0.57503206,-0.59600693,-0.47366062,4.834646224975586,-0.12499327957630157,4.522902011871338,7.592935085296631,11.990762710571289, 22.216312408447266
149,3196332823,0.30527717,-0.5727492,-0.59162736,-0.47826934,7.116924285888672,4.4030303955078125,2.466400623321533,-6.145479202270508,59.42844009399414, 17.259986877441406
150,3196349490,0.31362936,-0.5685505,-0.5826948,-0.48872674,5.893204212188721,1.3202804327011108,3.957212448120117,-30.345468521118164,109.18690490722656, 23.952878952026367
151,3196366157,0.3274847,-0.5606801,-0.57223475,-0.50093836,5.152560234069824,1.325110673904419,3.7937777042388916,-13.076855659484863,153.70343017578125, 29.92511749267578
152,3196382824,0.3440493,-0.55001295,-0.5585664,-0.51683587,6.212456703186035,1.9500763416290283,4.852793216705322,-21.89181900024414,195.42196655273438, 32.32950210571289
153,3196399491,0.3610683,-0.53726065,-0.54091334,-0.53702295,7.110413074493408,1.3040738105773926,4.319408893585205,-45.877220153808594,230.20297241210938, 30.867916107177734
154,3196416158,0.37892783,-0.52265555,-0.5188796,-0.560365,8.573500633239746,0.5297710299491882,2.214515209197998,-66.09146881103516,262.6944274902344, 35.4262809753418
155,3196432825,0.39928687,-0.50550264,-0.49425888,-0.583734,10.022867202758789,-0.04885350167751312,0.004664242267608643,-60.546199798583984,288.2974548339844, 45.177520751953125
156,3196449492,0.42212325,-0.48541704,-0.46819434,-0.6057858,11.364097595214844,0.3970496356487274,-0.5673421621322632,-45.21613311767578,307.9501953125, 53.7667350769043
157,3196466159,0.44608137,-0.46289337,-0.43982264,-0.627134,12.68073844909668,0.39848801493644714,-0.8888019323348999,-41.75613784790039,326.16485595703125, 60.32252883911133
158,3196482826,0.47092113,-0.43824506,-0.40971005,-0.64677066,14.287088394165039,0.703068733215332,-1.5610586404800415,-34.77510070800781,338.0008239746094, 68.48336029052734
159,3196499493,0.4954115,-0.41223776,-0.37818336,-0.6645336,15.74056339263916,1.6270549297332764,-1.6026606559753418,-32.4512939453125,342.13397216796875, 73.42882537841797
160,3196516160,0.5188888,-0.38569856,-0.34515387,-0.6803381,17.032663345336914,1.5233745574951172,-1.5952941179275513,-35.304317474365234,341.659912109375, 78.36338806152344
161,3196532827,0.54071987,-0.3591002,-0.31045717,-0.6944678,18.653573989868164,2.6251730918884277,-1.8413480520248413,-43.303428649902344,339.7240905761719, 80.9354019165039
162,3196549494,0.56028515,-0.33396956,-0.27371964,-0.7068399,19.478755950927734,2.111729621887207,-3.0663304328918457,-64.3184814453125,331.1374816894531, 82.61636352539062
163,3196566161,0.57754904,-0.31183565,-0.23547082,-0.71676314,19.281625747680664,0.1288173496723175,-4.670201301574707,-82.86438751220703,312.85699462890625, 90.23750305175781
164,3196582828,0.5932412,-0.2929181,-0.19838788,-0.7231227,19.445825576782227,2.0801122188568115,-4.275543212890625,-84.62845611572266,282.5149841308594, 101.39404296875
165,3196599495,0.6035413,-0.28129637,-0.1568695,-0.7293849,18.60032081604004,3.8233745098114014,-6.542737007141113,-147.19825744628906,257.0760192871094, 93.94690704345703
166,3196616162,0.61421734,-0.26656145,-0.12904125,-0.7314579,15.553458213806152,2.982854127883911,-12.342647552490234,-60.378414154052734,208.4568328857422, 83.47856903076172
167,3196632829,0.62190574,-0.25080073,-0.12109421,-0.7318937,10.09839916229248,9.07313346862793,-17.47795295715332,39.91748046875,124.31298065185547, 38.0778923034668
168,3196649496,0.6210839,-0.2498388,-0.11959605,-0.73316586,9.623882293701172,9.0652494430542,-16.83619499206543,-6.386125564575195,16.909032821655273, -7.028582572937012
169,3196666163,0.6134239,-0.26234874,-0.12172555,-0.73489267,11.84223461151123,5.39713191986084,-14.024665832519531,-57.86227035522461,-71.08448791503906, -38.474334716796875
170,3196682830,0.6026738,-0.27794048,-0.13109474,-0.7364427,12.276773452758789,4.6663007736206055,-9.41215705871582,-39.768680572509766,-119.85490417480469, -63.71243667602539
171,3196699497,0.5897716,-0.29548007,-0.14268295,-0.7379043,13.498979568481445,3.616875648498535,-6.596978187561035,-40.70280838012695,-140.83547973632812, -76.62747192382812
172,3196716164,0.5748687,-0.3152688,-0.15341584,-0.7393209,14.274236679077148,2.966157913208008,-5.9790191650390625,-58.24068832397461,-150.6678924560547, -82.54621887207031
173,3196732831,0.5589811,-0.3348002,-0.16444735,-0.74054444,14.131965637207031,3.584237575531006,2.0295543670654297,-57.68193817138672,-151.83367919921875, -87.59574890136719
174,3196749498,0.5485523,-0.34664795,-0.17759301,-0.7398557,13.542038917541504,-4.546599388122559,12.157844543457031,-2.7174668312072754,-119.01700592041016, -65.91116333007812
175,3196766165,0.5348945,-0.361608,-0.1842719,-0.741061,14.193666458129883,2.9497480392456055,0.5857163667678833,-57.31313705444336,-110.07811737060547, -70.3283462524414
176,3196782832,0.52138174,-0.376829,-0.19162866,-0.74124193,17.13037109375,-0.9176220893859863,-2.5362050533294678,-53.186283111572266,-116.30638885498047, -67.11714935302734
177,3196799499,0.51137644,-0.38784385,-0.20475061,-0.7390186,13.241689682006836,-0.41171470284461975,-1.1023889780044556,3.578237295150757,-117.13103485107422, -61.13218688964844
178,3196816166,0.5027207,-0.39772338,-0.2173196,-0.7361116,11.701045036315918,3.143723726272583,-1.0762869119644165,9.364803314208984,-109.43960571289062, -52.067832946777344
179,3196832833,0.4934916,-0.4081772,-0.22590734,-0.73404604,10.628411293029785,3.222078800201416,0.8523764610290527,-16.934906005859375,-97.17635345458984, -46.98883056640625
180,3196849500,0.4861853,-0.4168701,-0.233659,-0.73160565,10.632342338562012,2.5057411193847656,1.022601842880249,-10.735282897949219,-83.61822509765625, -37.277687072753906
181,3196866167,0.48184365,-0.4232827,-0.24226649,-0.7279872,11.40325927734375,1.531874656677246,-0.08507679402828217,10.262226104736328,-73.74801635742188, -25.243553161621094
182,3196882834,0.48031333,-0.4278525,-0.25221646,-0.7229304,11.369918823242188,-0.6681919693946838,0.09666931629180908,37.87922668457031,-68.81736755371094, -11.126160621643066
183,3196899501,0.48042354,-0.43067056,-0.26265708,-0.71744514,10.453669548034668,0.8704938888549805,1.3792568445205688,51.726654052734375,-60.25905227661133, -6.143125534057617
184,3196916168,0.47986984,-0.4334067,-0.2706418,-0.7131878,10.044084548950195,1.7416890859603882,1.7287235260009766,35.730018615722656,-49.43608856201172, -6.420663833618164
185,3196932835,0.47903413,-0.43623364,-0.27689195,-0.7096179,10.115367889404297,0.28954944014549255,1.0245596170425415,24.82325553894043,-42.75917434692383, -4.777975082397461
186,3196949502,0.478896,-0.4385482,-0.2836017,-0.70562327,10.148295402526855,0.05506814271211624,0.35226306319236755,31.682048797607422,-41.818031311035156, -2.387190580368042
187,3196966169,0.47998747,-0.44010934,-0.29181257,-0.70054364,9.805279731750488,-0.2562490403652191,0.7946344017982483,47.295291900634766,-44.052940368652344, 1.0977957248687744
188,3196982836,0.48308873,-0.44031253,-0.30309182,-0.6934591,9.749154090881348,-0.2211947739124298,1.9879019260406494,76.68751525878906,-49.74570846557617, 5.3223419189453125
189,3196999503,0.48693833,-0.43969995,-0.3177322,-0.6845447,9.60101318359375,1.117262363433838,2.3028218746185303,101.52627563476562,-61.08454132080078, 3.028653383255005
190,3197016170,0.489294,-0.43994185,-0.33422816,-0.67478454,10.021997451782227,1.5012446641921997,3.9975452423095703,104.74102020263672,-77.21841430664062, -4.953752517700195
191,3197032837,0.4894703,-0.44163015,-0.35067105,-0.66514033,9.329607963562012,1.6203701496124268,2.9265949726104736,92.77571105957031,-88.50584411621094, -11.99849796295166
192,3197049504,0.4865849,-0.4456885,-0.36563572,-0.6564355,9.391814231872559,1.463940978050232,1.8507211208343506,66.47917938232422,-98.97639465332031, -18.97496223449707
193,3197066171,0.48151058,-0.45125514,-0.37950838,-0.64845175,9.539713859558105,0.6953614354133606,2.059530258178711,47.98618698120117,-105.47856140136719, -24.139570236206055
194,3197082838,0.47500303,-0.45787585,-0.3916621,-0.6413444,10.431269645690918,0.7940557599067688,1.5691444873809814,21.562658309936523,-106.0978012084961, -27.474565505981445
195,3197099505,0.46744055,-0.46523097,-0.40316924,-0.6344399,11.471774101257324,-0.14210735261440277,0.3110027313232422,12.570616722106934,-109.53865814208984, -28.475107192993164
196,3197116172,0.4596361,-0.4726842,-0.41497344,-0.62697804,11.710272789001465,-0.44615989923477173,-0.27268093824386597,14.091994285583496,-113.48173522949219, -28.198396682739258
197,3197132839,0.4511623,-0.4804827,-0.42704898,-0.61904615,11.526369094848633,-0.10314713418483734,0.11640436947345734,14.170406341552734,-119.27442169189453, -29.105188369750977
198,3197149506,0.4414917,-0.4891293,-0.43841335,-0.6112541,11.105218887329102,-0.3022482991218567,0.41526877880096436,4.872140407562256,-123.74718475341797, -29.46043586730957
199,3197166173,0.43086824,-0.49833313,-0.44954276,-0.6032646,11.21951961517334,-0.6443848013877869,0.5362606644630432,6.495937824249268,-128.26254272460938, -29.733627319335938
200,3197182840,0.41957396,-0.5076523,-0.460938,-0.5947969,12.455826759338379,0.24077405035495758,0.9745527505874634,6.440004348754883,-133.27978515625, -31.6850643157959
201,3197199507,0.40731907,-0.51724404,-0.47188866,-0.58640516,13.187566757202148,0.1376839578151703,2.7564659118652344,0.24356156587600708,-135.94119262695312, -33.43510055541992
202,3197216174,0.3949544,-0.52625436,-0.48322925,-0.57754385,13.580379486083984,0.4591110050678253,3.18442702293396,4.585541248321533,-136.8031768798828, -35.860435485839844
203,3197232841,0.3838425,-0.533999,-0.49613383,-0.5668873,14.173726081848145,-0.5277056694030762,3.207186698913574,24.738422393798828,-138.45938110351562, -35.8974609375
204,3197249508,0.37445986,-0.54008144,-0.5114078,-0.55367327,14.476299285888672,-0.10025867819786072,2.7946650981903076,53.44447708129883,-141.8328094482422, -36.8223876953125
205,3197266175,0.36492062,-0.54549617,-0.5282278,-0.5387417,14.546794891357422,0.569675087928772,2.6277167797088623,66.51485443115234,-150.30673217773438, -41.12254333496094
206,3197282842,0.35555348,-0.54995686,-0.54596263,-0.522546,14.773447036743164,0.6648053526878357,5.052138328552246,77.54293823242188,-153.29379272460938, -44.234683990478516
207,3197299509,0.3469759,-0.55418366,-0.562428,-0.5061256,15.16468620300293,0.05755393207073212,7.53653621673584,80.46691131591797,-146.81655883789062, -37.94025421142578
208,3197316176,0.33939996,-0.5594643,-0.5737973,-0.49250802,15.816375732421875,1.0589139461517334,10.939737319946289,54.61982727050781,-123.70272064208984, -18.365869522094727
209,3197332843,0.33253166,-0.564226,-0.582173,-0.48181593,13.22775936126709,5.587773323059082,4.058272838592529,36.11128616333008,-101.3548812866211, -13.203471183776855
210,3197349510,0.32247624,-0.5684997,-0.5953321,-0.46732965,14.565938949584961,10.687439918518066,-4.989203453063965,56.331443786621094,-138.18663024902344, -35.89244079589844
211,3197366177,0.3122454,-0.5730612,-0.6051064,-0.45601526,15.962213516235352,5.698338985443115,-2.65048885345459,27.219139099121094,-120.67802429199219, -27.00991439819336
212,3197382844,0.3061772,-0.5770323,-0.6109474,-0.4472502,11.812997817993164,0.5879359841346741,6.881986141204834,21.97249984741211,-83.04454040527344, -6.348824501037598
213,3197399511,0.30863354,-0.5781572,-0.61052233,-0.44468206,6.709434509277344,-3.0841116905212402,13.652538299560547,16.50739288330078,-0.906435489654541, 19.683500289916992
214,3197416178,0.31662124,-0.5751172,-0.6101941,-0.4434576,5.497557640075684,1.712930679321289,4.326934337615967,42.00666809082031,39.89690017700195, 15.800155639648438
215,3197432845,0.3244372,-0.5706329,-0.6050718,-0.45056283,7.411584854125977,4.263041973114014,3.094249963760376,-5.0768303871154785,86.8892822265625, 10.065301895141602
216,3197449512,0.33525702,-0.56468934,-0.59559786,-0.46259278,6.1018476486206055,-1.0757513046264648,5.419829368591309,-23.980693817138672,132.88467407226562, 19.441858291625977
217,3197466179,0.35279673,-0.55460674,-0.58476436,-0.47539088,6.146510601043701,-0.3703296482563019,6.017393112182617,4.176630020141602,179.6039581298828, 27.335689544677734
218,3197482846,0.3710767,-0.5424517,-0.5696439,-0.4935121,7.446694374084473,1.7135345935821533,5.132631778717041,-23.38886260986328,219.96725463867188, 24.83895492553711
219,3197499513,0.38703576,-0.52986073,-0.54855335,-0.5182086,8.408546447753906,1.4472525119781494,2.443711042404175,-76.94808959960938,252.05557250976562, 20.749752044677734
220,3197516180,0.40311086,-0.5163086,-0.5228621,-0.54547465,9.475666999816895,-0.24670706689357758,0.15314233303070068,-100.0650863647461,277.5362854003906, 27.444656372070312
221,3197532847,0.42152995,-0.5008634,-0.49395397,-0.57223934,11.311997413635254,-1.1310383081436157,-0.675312340259552,-96.77672576904297,300.278076171875, 42.188175201416016
222,3197549514,0.44373533,-0.48230156,-0.46440637,-0.59566027,12.68363094329834,-1.107338309288025,-1.2669494152069092,-65.86973571777344,315.8418884277344, 58.33491134643555
223,3197566181,0.4679675,-0.46081716,-0.43408722,-0.6166217,14.172351837158203,1.2716978788375854,-0.9272245764732361,-45.542640686035156,328.6201171875, 67.3228988647461
224,3197582848,0.4908914,-0.43856034,-0.4008423,-0.63719386,15.592134475708008,2.3622665405273438,-1.931742787361145,-58.46764373779297,336.33001708984375, 70.00475311279297
225,3197599515,0.5139148,-0.41530526,-0.36720127,-0.6546575,17.03392219543457,0.41202276945114136,-2.805277109146118,-47.99197769165039,333.1477355957031, 79.41645812988281
226,3197616182,0.5366603,-0.39067665,-0.3352097,-0.66858214,17.68231773376465,1.5030391216278076,-2.2237350940704346,-27.578819274902344,322.9505310058594, 82.4999771118164
227,3197632849,0.55687463,-0.36694008,-0.301832,-0.6812806,18.628572463989258,2.2363219261169434,-2.3223047256469727,-45.8792610168457,314.9825439453125, 79.41448974609375
228,3197649516,0.5738138,-0.34558398,-0.26561597,-0.69336694,19.576810836791992,2.374800205230713,-3.146956443786621,-74.77088165283203,306.8218688964844, 78.34744262695312
229,3197666183,0.58685917,-0.32836795,-0.22710416,-0.7044108,18.714357376098633,1.2497007846832275,-4.726822853088379,-105.40487670898438,286.9260559082031, 79.0047836303711
230,3197682850,0.59836775,-0.31479165,-0.1894428,-0.7120208,17.814802169799805,1.0395811796188354,-6.192448139190674,-114.09033203125,256.11505126953125, 89.26542663574219
231,3197699517,0.6086347,-0.30160874,-0.1587774,-0.7165095,15.33370590209961,2.981116771697998,-9.826883316040039,-80.06202697753906,217.4417724609375, 81.49573516845703
232,3197716184,0.61713177,-0.28698376,-0.14419754,-0.7183286,11.052549362182617,6.421540260314941,-14.229655265808105,4.452090740203857,150.1917266845703, 49.128448486328125
233,3197732851,0.6191947,-0.2806753,-0.14070399,-0.71973735,9.38010311126709,9.177477836608887,-15.060041427612305,11.54577922821045,55.31418991088867, 5.591143608093262
234,3197749518,0.6136313,-0.28829134,-0.14030047,-0.7215682,11.437326431274414,7.0622148513793945,-13.608388900756836,-47.715782165527344,-32.91585922241211, -26.263084411621094
235,3197766185,0.604198,-0.3012206,-0.14544533,-0.7232266,12.357640266418457,5.484092712402344,-10.284048080444336,-50.225685119628906,-86.36553955078125, -50.42380905151367
236,3197782852,0.5923454,-0.31573558,-0.15479489,-0.72489786,13.111525535583496,5.283376693725586,-7.1254096031188965,-41.026817321777344,-113.76681518554688, -69.45980834960938
237,3197799519,0.57629645,-0.33433247,-0.16415106,-0.7274331,13.444687843322754,6.511257171630859,-7.8215742111206055,-67.76365661621094,-136.44407653808594, -89.37886810302734
238,3197816186,0.5572313,-0.35619348,-0.17226312,-0.7300307,16.51792335510254,2.6207003593444824,0.725542426109314,-94.06401062011719,-150.81851196289062, -97.91746520996094
239,3197832853,0.54267764,-0.3731207,-0.18297456,-0.7299332,16.650991439819336,-6.782337188720703,5.989857196807861,-47.9372444152832,-137.10012817382812, -76.96484375
240,3197849520,0.52578,-0.3921768,-0.19103414,-0.73024565,16.002567291259766,-0.07587258517742157,-3.3959922790527344,-75.62796020507812,-139.77073669433594, -80.80050659179688
241,3197866187,0.51260155,-0.40653574,-0.20463817,-0.728074,16.08653450012207,-2.0309669971466064,-1.0928447246551514,-17.514495849609375,-137.81092834472656, -74.16220092773438
242,3197882854,0.50166476,-0.41763982,-0.22019626,-0.72486085,11.579973220825195,2.709702253341675,-1.2580229043960571,11.497679710388184,-127.98268127441406, -69.31370544433594
243,3197899521,0.49071997,-0.42888993,-0.23171891,-0.7221869,10.715015411376953,3.9782509803771973,-0.6721462607383728,-10.005989074707031,-113.1565933227539, -59.33045196533203
244,3197916188,0.48142782,-0.43881613,-0.24069387,-0.7195375,9.713610649108887,3.8479695320129395,0.9515750408172607,-17.896366119384766,-94.88104248046875, -47.831356048583984
245,3197932855,0.47453147,-0.44666228,-0.2491225,-0.7164151,11.253177642822266,2.965017557144165,0.5790960192680359,-6.08583402633667,-80.27837371826172, -36.121402740478516
246,3197949522,0.47065452,-0.4526768,-0.25803444,-0.7120298,11.951213836669922,-0.3305801451206207,1.0992136001586914,13.593286514282227,-71.54174041748047, -21.609487533569336
247,3197966189,0.4690132,-0.4570242,-0.26753595,-0.7068098,11.077210426330566,-1.2231329679489136,0.48189616203308105,35.20273971557617,-64.16558837890625, -10.790721893310547
248,3197982856,0.4681585,-0.45999455,-0.2766862,-0.70190996,10.569716453552246,0.758560836315155,0.7916600108146667,39.872833251953125,-53.84989929199219, -9.533622741699219
249,3197999523,0.46625248,-0.4632745,-0.2835212,-0.69828445,10.643991470336914,0.829660952091217,0.5752808451652527,21.969980239868164,-45.84073257446289, -10.842315673828125
250,3198016190,0.46504912,-0.46609348,-0.28993362,-0.6945679,10.33775520324707,-0.4234224855899811,1.268640160560608,23.848556518554688,-41.16916275024414, -6.761052131652832
251,3198032857,0.46411726,-0.46896103,-0.29628453,-0.6905697,10.381887435913086,0.2620109021663666,1.1721464395523071,24.86348533630371,-41.57259750366211, -4.340171813964844
252,3198049524,0.46461996,-0.471195,-0.30455002,-0.68509346,9.632614135742188,0.26460137963294983,1.9018911123275757,43.63884353637695,-46.512691497802734, -0.3384510576725006
253,3198066191,0.46701944,-0.47207773,-0.31677994,-0.67726386,9.972504615783691,0.844160795211792,1.7194459438323975,77.73424530029297,-56.486263275146484, 0.34667274355888367
254,3198082858,0.4701824,-0.47217894,-0.3326415,-0.66732705,10.003005981445312,-0.2336375117301941,3.2279233932495117,104.24934387207031,-69.68605041503906, -2.932509183883667
255,3198099525,0.4719621,-0.4731209,-0.34937733,-0.65676796,9.676009178161621,0.7298961877822876,2.431487798690796,102.51022338867188,-81.61270904541016, -8.340180397033691
256,3198116192,0.47135222,-0.47542396,-0.36564785,-0.64660734,9.597102165222168,1.5859994888305664,2.7314507961273193,87.27630615234375,-90.73707580566406, -15.752177238464355
257,3198132859,0.4670239,-0.48014262,-0.37893602,-0.6385604,9.808525085449219,1.9086804389953613,1.2356308698654175,48.717315673828125,-94.31922149658203, -23.361906051635742
258,3198149526,0.46119958,-0.4860959,-0.39074606,-0.6311287,10.106524467468262,-0.0516759492456913,0.9127364158630371,23.628347396850586,-97.12142181396484, -25.08336639404297
259,3198166193,0.4550767,-0.49224615,-0.4022851,-0.62351084,10.42469596862793,-0.9374761581420898,0.2768891453742981,20.6141300201416,-98.6649398803711, -24.25473403930664
260,3198182860,0.44840363,-0.49834216,-0.41435978,-0.615545,10.861900329589844,-0.5485482215881348,0.4533732235431671,22.003793716430664,-102.9030990600586, -27.31809425354004
261,3198199527,0.4407878,-0.504788,-0.42625105,-0.60762274,11.13565731048584,-0.019599566236138344,0.3488484025001526,16.222000122070312,-106.49272155761719, -29.63685417175293
262,3198216194,0.43253323,-0.5115996,-0.43787992,-0.59953517,11.173393249511719,-0.6869770288467407,0.3044026494026184,12.084275245666504,-109.80150604248047, -29.56395149230957
263,3198232861,0.42363888,-0.51909006,-0.44894695,-0.5912041,10.907130241394043,-0.3379327952861786,0.11513103544712067,15.80201530456543,-113.13584899902344, -27.324827194213867
264,3198249528,0.41402215,-0.52665126,-0.46035713,-0.58249104,10.722766876220703,0.1489393264055252,0.677193284034729,15.588363647460938,-118.06449127197266, -30.216522216796875
265,3198266195,0.4032516,-0.53465056,-0.47139877,-0.5738643,11.409096717834473,0.5535282492637634,1.2146577835083008,8.413230895996094,-122.2249526977539, -32.40793228149414
266,3198282862,0.39119363,-0.54308146,-0.48192954,-0.5654859,12.071057319641113,0.4504624605178833,2.4926939010620117,-0.3312562108039856,-125.97311401367188, -34.93511199951172
267,3198299529,0.37862524,-0.5513434,-0.49265105,-0.5567391,12.735147476196289,0.3907783329486847,3.0334677696228027,0.19765937328338623,-129.201904296875, -37.250125885009766
268,3198316196,0.36706313,-0.5583119,-0.50493807,-0.54643404,13.54439640045166,-0.4899705946445465,3.1269607543945312,18.67620277404785,-131.18606567382812, -39.727272033691406
269,3198332863,0.35827366,-0.5631367,-0.5200961,-0.53293264,14.398191452026367,-0.6958521008491516,3.489544153213501,56.64175033569336,-133.40701293945312, -39.834068298339844
270,3198349530,0.35075164,-0.5663482,-0.5380722,-0.5164314,14.426313400268555,0.21667349338531494,3.060765504837036,86.60759735107422,-141.9324188232422, -44.63313674926758
271,3198366197,0.34315765,-0.5686733,-0.55740833,-0.4981463,14.894196510314941,0.4976235628128052,4.476004600524902,99.92276763916016,-149.6724090576172, -49.27451705932617
272,3198382864,0.33546877,-0.5707309,-0.5762374,-0.4792467,15.024542808532715,-0.023402482271194458,6.422898769378662,100.84126281738281,-150.76988220214844, -47.284210205078125
273,3198399531,0.3271271,-0.57459915,-0.59197307,-0.4608599,15.098081588745117,0.5843248963356018,7.314153671264648,85.27222442626953,-150.11851501464844, -33.100006103515625
274,3198416198,0.31913516,-0.57877225,-0.6056458,-0.44313523,14.636496543884277,5.134276866912842,7.3678998947143555,77.88494110107422,-142.72341918945312, -24.985084533691406
275,3198432865,0.309901,-0.5820074,-0.61895704,-0.42675623,14.874916076660156,8.407633781433105,-2.1193456649780273,68.85855102539062,-139.2725830078125, -34.68574142456055
276,3198449532,0.3034168,-0.5849336,-0.6311701,-0.40916425,16.25910186767578,5.465305328369141,-3.9179956912994385,82.78656768798828,-129.27488708496094, -21.276439666748047
277,3198466199,0.2994721,-0.5869499,-0.63856584,-0.39754277,14.072774887084961,3.796361207962036,9.522293090820312,50.463523864746094,-82.53861999511719, -7.433653354644775
278,3198482866,0.3015504,-0.5887228,-0.6377376,-0.39466912,6.2602434158325195,-1.9665799140930176,10.631162643432617,14.477161407470703,-3.6518170833587646, 23.158056259155273
279,3198499533,0.30779305,-0.58690095,-0.63639915,-0.39472407,6.4211506843566895,2.1418423652648926,4.322319984436035,24.562339782714844,36.95831298828125, 14.608489036560059
280,3198516200,0.31407204,-0.5840979,-0.6304571,-0.40337613,7.533274173736572,2.80729079246521,3.493619918823242,-23.300878524780273,84.10498809814453, 10.822524070739746
281,3198532867,0.32183856,-0.58013004,-0.6201564,-0.41865888,7.101585865020752,1.0413627624511719,4.753091812133789,-55.620792388916016,129.73828125, 13.106619834899902
282,3198549534,0.3325308,-0.5738148,-0.60623807,-0.43890238,7.129906177520752,0.3771912455558777,4.6149210929870605,-70.32205200195312,176.66787719726562, 14.943487167358398
283,3198566201,0.34546182,-0.5648614,-0.5895456,-0.46262717,7.914153099060059,1.004828691482544,4.416757583618164,-78.34661102294922,213.96780395507812, 13.64245319366455
284,3198582868,0.3589387,-0.5540598,-0.56894165,-0.49039415,8.671731948852539,1.3691662549972534,2.844550609588623,-100.66791534423828,246.997314453125, 13.440014839172363
285,3198599535,0.37355116,-0.5417915,-0.54416746,-0.5203876,9.81544017791748,-0.23036623001098633,0.9358733892440796,-115.50239562988281,275.16595458984375, 21.889625549316406
286,3198616202,0.39207932,-0.5269716,-0.51743174,-0.54848796,11.344307899475098,-1.6160624027252197,-0.580918550491333,-94.3111801147461,296.9972229003906, 38.45697021484375
287,3198632869,0.41528875,-0.50849015,-0.49083677,-0.57275856,12.352371215820312,-1.1377803087234497,-0.6570025086402893,-53.3323974609375,313.3181457519531, 52.81949234008789
288,3198649536,0.4401103,-0.48729447,-0.46250403,-0.59576595,13.683473587036133,0.8180001378059387,-0.5618627071380615,-42.53684997558594,330.1342468261719, 59.64138412475586
289,3198666203,0.4646489,-0.46502993,-0.43100494,-0.61812913,15.430341720581055,0.668398916721344,-1.7302018404006958,-51.18938064575195,341.1947937011719, 67.64901733398438
290,3198682870,0.49035093,-0.4410592,-0.39969578,-0.636605,17.003963470458984,-0.0641893744468689,-2.3434176445007324,-29.70123863220215,339.0655517578125, 79.35973358154297
291,3198699537,0.5153448,-0.41612044,-0.36866757,-0.6521868,17.75242805480957,1.4145119190216064,-1.6731765270233154,-19.408300399780273,331.8851623535156, 82.50587463378906
292,3198716204,0.5372335,-0.3923084,-0.33552665,-0.6670055,18.657390594482422,2.6282448768615723,-1.8428552150726318,-45.611392974853516,324.3138732910156, 78.9261245727539
293,3198732871,0.5548458,-0.3715697,-0.29884475,-0.68174356,19.330629348754883,2.85223388671875,-3.2943973541259766,-83.36153411865234,313.6925964355469, 76.14437103271484
294,3198749538,0.56853414,-0.3545205,-0.25971884,-0.69543546,18.706615447998047,1.8250703811645508,-4.384629726409912,-112.3497314453125,295.40728759765625, 77.12387084960938
295,3198766205,0.5805483,-0.3410013,-0.2213934,-0.7054552,18.284475326538086,1.4916809797286987,-5.472930431365967,-119.86629486083984,263.8431396484375, 87.91178894042969
296,3198782872,0.5907673,-0.3295328,-0.18579124,-0.7126599,16.930025100708008,2.9298503398895264,-9.31597900390625,-114.77027893066406,234.09481811523438, 87.27947235107422
297,3198799539,0.6008323,-0.31430298,-0.16805112,-0.71552306,12.503499031066895,6.079404830932617,-13.612834930419922,-6.771814346313477,170.36878967285156, 59.002140045166016
298,3198816206,0.60544217,-0.30379525,-0.16453077,-0.7169923,9.452524185180664,10.506592750549316,-15.681206703186035,33.424461364746094,79.51758575439453, 12.780240058898926
299,3198832873,0.60081303,-0.30827537,-0.1642757,-0.7190297,10.670333862304688,8.214325904846191,-14.773648262023926,-32.972740173339844,-16.82439613342285, -24.808494567871094
300,3198849540,0.59057593,-0.32120612,-0.16878647,-0.72080356,12.022106170654297,6.084472179412842,-11.920995712280273,-56.03627014160156,-84.80807495117188, -51.8154411315918
301,3198866207,0.57740027,-0.33623943,-0.17858244,-0.72226065,12.856213569641113,5.264963150024414,-9.029939651489258,-44.59825897216797,-120.47504425048828, -74.15657043457031
302,3198882874,0.56209046,-0.35279024,-0.19018055,-0.7234812,13.42763614654541,4.176944732666016,-7.120492458343506,-46.4074821472168,-138.06484985351562, -85.96138000488281
303,3198899541,0.5435922,-0.37263408,-0.19934328,-0.72519916,13.030622482299805,5.355811595916748,-6.717470169067383,-79.71259307861328,-147.7806396484375, -93.37019348144531
304,3198916208,0.5243071,-0.39271632,-0.20395377,-0.72751576,14.5903902053833,-0.3273649215698242,10.815033912658691,-106.22990417480469,-131.32034301757812, -87.324462890625
305,3198932875,0.5098475,-0.40690506,-0.20750353,-0.7289898,12.43032169342041,-5.692219257354736,7.074387550354004,-76.09154510498047,-93.72013092041016, -65.4686050415039
306,3198949542,0.49481022,-0.4226993,-0.21131247,-0.72927046,19.502655029296875,-0.7360570430755615,-7.491628646850586,-80.25072479248047,-107.00175476074219, -62.67761993408203
307,3198966209,0.48414734,-0.43316567,-0.22476211,-0.72625816,18.22889518737793,-2.548229455947876,-0.8946608304977417,3.7495813369750977,-115.97512817382812, -65.24356842041016
308,3198982876,0.47551906,-0.44134158,-0.2409299,-0.72183955,12.117203712463379,3.477510929107666,-0.8246304988861084,33.22077941894531,-114.48694610595703, -62.1017951965332
309,3198999543,0.46511135,-0.45104346,-0.2538035,-0.7182026,11.766286849975586,0.9769174456596375,0.6038036346435547,5.143458366394043,-111.82010650634766, -60.91940689086914
310,3199016210,0.45736325,-0.45906007,-0.26699367,-0.7133003,9.249539375305176,0.44561028480529785,1.910391926765442,22.549518585205078,-103.80363464355469, -47.67722702026367
311,3199032877,0.45110494,-0.4656111,-0.27857307,-0.7085957,9.731719970703125,5.330452919006348,1.6079994440078735,23.609214782714844,-88.27052307128906, -38.64812469482422
312,3199049544,0.44494304,-0.4724851,-0.28696978,-0.7045792,10.761516571044922,3.424119710922241,0.7982608675956726,6.051295757293701,-77.64236450195312, -29.426856994628906
313,3199066211,0.4413139,-0.47853544,-0.29570925,-0.6991437,10.754733085632324,-0.07304457575082779,0.543984591960907,21.253646850585938,-74.34009552001953, -15.524197578430176
314,3199082878,0.43897706,-0.48340935,-0.30451843,-0.6934575,10.170927047729492,2.257894992828369,1.6982102394104004,29.961742401123047,-67.11750030517578, -11.243042945861816
315,3199099545,0.43552765,-0.48848027,-0.31044695,-0.6894386,9.879377365112305,1.1396715641021729,2.1727287769317627,8.456267356872559,-56.21113967895508, -11.599884986877441
316,3199116212,0.43231368,-0.4930539,-0.31554565,-0.6858818,9.472738265991211,-1.1666508913040161,1.4842981100082397,5.838576316833496,-49.4015007019043, -10.16835880279541
317,3199132879,0.4294042,-0.4971684,-0.32112765,-0.68213826,9.777588844299316,-0.40845006704330444,-0.45915743708610535,10.96070384979248,-48.71867370605469, -10.899200439453125
318,3199149546,0.42825982,-0.50016165,-0.3291324,-0.6768336,9.723737716674805,-1.6024779081344604,-0.5997225046157837,35.144866943359375,-52.05602264404297, -8.842281341552734
319,3199166213,0.43000084,-0.5010379,-0.3408314,-0.66924906,9.211936950683594,-0.9168440699577332,0.5183083415031433,73.69284057617188,-54.38894271850586, -6.329227447509766
320,3199182880,0.43278173,-0.50105256,-0.35491893,-0.6600598,9.267318725585938,0.28963059186935425,0.8299763202667236,94.60862731933594,-60.605655670166016, -7.186270713806152
321,3199199547,0.43530622,-0.5012395,-0.3702601,-0.64974993,9.424397468566895,0.7207158207893372,1.2009258270263672,101.65919494628906,-69.64041900634766, -9.026284217834473
322,3199216214,0.43684232,-0.50215244,-0.38606167,-0.6387238,10.15045166015625,1.178851842880249,0.9695804119110107,99.97705841064453,-79.29608154296875, -11.135802268981934
323,3199232881,0.43655732,-0.5042694,-0.40074632,-0.62811834,10.631294250488281,0.7094008922576904,1.0672193765640259,84.0606918334961,-84.65353393554688, -13.420812606811523
324,3199249548,0.4354036,-0.50697553,-0.4148678,-0.61748207,10.75588607788086,0.4872380793094635,0.7026594281196594,76.94474792480469,-88.06263732910156, -13.582769393920898
325,3199266215,0.43459484,-0.50908417,-0.43029195,-0.60564804,11.002941131591797,0.4312295615673065,0.194386288523674,77.79088592529297,-93.30528259277344, -14.885671615600586
326,3199282882,0.43284565,-0.5112742,-0.44549042,-0.5939544,11.256258010864258,1.1574066877365112,1.5365270376205444,73.2618637084961,-95.36898803710938, -17.955413818359375
327,3199299549,0.4291184,-0.5145168,-0.45910004,-0.58340156,11.160441398620605,1.6817227602005005,1.3389410972595215,53.237796783447266,-97.1841812133789, -20.34954833984375
328,3199316216,0.4239502,-0.51859784,-0.47195604,-0.573219,10.92813491821289,1.4096797704696655,1.144154667854309,42.003631591796875,-101.74156188964844, -21.648195266723633
329,3199332883,0.4164206,-0.52380896,-0.4841198,-0.56377846,10.535897254943848,0.9933175444602966,1.4345568418502808,25.138935089111328,-109.42655181884766, -26.66226577758789
330,3199349550,0.40545014,-0.5313015,-0.49454004,-0.5556611,11.578193664550781,0.48001009225845337,0.9373472929000854,5.0746541023254395,-119.35183715820312, -31.278308868408203
331,3199366217,0.39287016,-0.53968686,-0.5046328,-0.5474825,12.80066204071045,-0.5123696327209473,1.1225911378860474,-4.327236652374268,-127.72309112548828, -33.05716323852539
332,3199382884,0.37929565,-0.5487589,-0.51483786,-0.53846115,13.200883865356445,-0.7138710021972656,1.266743779182434,-6.514242649078369,-137.3831329345703, -32.6220817565918
333,3199399551,0.36541572,-0.5576275,-0.5261131,-0.5279471,13.70560073852539,-0.9194362163543701,2.457216501235962,2.119433879852295,-146.33775329589844, -34.68994903564453
334,3199416218,0.35185704,-0.5658207,-0.53867173,-0.51563203,14.18490219116211,-1.0114896297454834,4.175200462341309,16.23565101623535,-153.1033935546875, -36.447235107421875
335,3199432885,0.33842772,-0.5730529,-0.55257267,-0.5017375,14.495223045349121,-0.07597213983535767,4.830767631530762,29.69227409362793,-158.91746520996094, -41.04167556762695
336,3199449552,0.32544538,-0.578908,-0.56790507,-0.48624563,14.833062171936035,-0.11547055840492249,4.558204174041748,45.69191360473633,-162.4204864501953, -46.72269058227539
337,3199466219,0.31266406,-0.5840707,-0.5845819,-0.46836606,16.4866886138916,1.119921326637268,3.3488657474517822,61.885860443115234,-172.1546630859375, -48.831756591796875
338,3199482886,0.2975498,-0.5905655,-0.5995283,-0.45084634,18.67060661315918,1.3571891784667969,5.516581058502197,46.27513122558594,-180.28866577148438, -47.21506118774414
339,3199499553,0.28342482,-0.5979978,-0.6104481,-0.43522656,18.495195388793945,0.09120842814445496,11.125121116638184,27.76384162902832,-163.56935119628906, -27.918193817138672
340,3199516220,0.2676699,-0.60509175,-0.6135363,-0.43103394,15.528075218200684,4.142679214477539,7.306183815002441,-49.32191848754883,-107.5503158569336, -24.850706100463867
341,3199532887,0.25181594,-0.6105327,-0.6222427,-0.42030048,12.36606502532959,7.611117839813232,-4.6207122802734375,-2.8806252479553223,-141.0150909423828, -43.23101043701172
342,3199549554,0.2371993,-0.6154223,-0.6304576,-0.40928647,15.939083099365234,6.936644077301025,-3.9464781284332275,0.14758415520191193,-135.1532745361328, -36.65193557739258
343,3199566221,0.22775316,-0.61942667,-0.6359362,-0.40003058,11.131220817565918,-0.9131816029548645,4.134566307067871,8.214865684509277,-98.420654296875, -17.163175582885742
344,3199582888,0.23092161,-0.62030673,-0.637994,-0.3935207,8.986761093139648,-4.205805778503418,16.047138214111328,45.41387176513672,-17.827136993408203, 14.067550659179688
345,3199599555,0.24391317,-0.61640877,-0.64094484,-0.3869581,5.283467769622803,2.6988003253936768,6.413514614105225,97.56673431396484,36.09306716918945, 15.86441421508789
346,3199616222,0.25274166,-0.611539,-0.6386397,-0.3927863,7.183502674102783,6.638810157775879,3.9415454864501953,13.024249076843262,81.53163146972656, 2.0836496353149414
347,3199632889,0.26114422,-0.60682255,-0.63013977,-0.4080367,6.666412830352783,-0.04140682891011238,5.747791767120361,-47.04109573364258,129.54261779785156, 11.397478103637695
348,3199649556,0.2756179,-0.5998909,-0.6191921,-0.42516696,6.311465263366699,-0.7197062373161316,5.897003650665283,-32.73908996582031,174.1875457763672, 25.630781173706055
349,3199666223,0.29336604,-0.5912693,-0.6046005,-0.44586453,7.04213285446167,0.40841400623321533,4.2357072830200195,-41.8779296875,214.58998107910156, 36.236148834228516
350,3199682890,0.31355098,-0.5802503,-0.5869372,-0.46957466,7.620819568634033,1.1221002340316772,2.8287901878356934,-49.081817626953125,250.4620819091797, 40.13130569458008
351,3199699557,0.33586156,-0.5670398,-0.5653095,-0.49607277,9.125215530395508,0.1596287041902542,1.4589390754699707,-59.93790054321289,285.7835693359375, 47.9522705078125
352,3199716224,0.36170515,-0.55107486,-0.54105484,-0.5222505,10.765507698059082,-0.9298747777938843,-0.059893012046813965,-47.53797149658203,313.7609558105469, 60.25272750854492
353,3199732891,0.3906443,-0.53175217,-0.51533765,-0.54686743,12.512542724609375,0.02556854858994484,-0.49883419275283813,-26.929546356201172,335.13458251953125, 68.25748443603516
354,3199749558,0.41967386,-0.51003057,-0.48639354,-0.5719826,14.612306594848633,0.9151753783226013,-1.080869197845459,-34.082401275634766,355.0733642578125, 70.54252624511719
355,3199766225,0.44884583,-0.48633602,-0.4553978,-0.595506,16.747089385986328,0.015603935346007347,-1.6720787286758423,-30.66065788269043,363.7935485839844, 76.3001708984375
356,3199782892,0.47743285,-0.4612817,-0.42326835,-0.61653954,18.25666618347168,0.9182248711585999,-1.4604008197784424,-25.28697967529297,362.9017028808594, 81.11275482177734
357,3199799559,0.5038787,-0.43627757,-0.38900787,-0.635957,19.548324584960938,1.9397938251495361,-1.78476083278656,-36.60478973388672,358.5689392089844, 84.26364135742188
358,3199816226,0.5276383,-0.41194776,-0.35282233,-0.65376866,20.842714309692383,2.4020915031433105,-2.648904323577881,-56.27033615112305,350.35125732421875, 85.32304382324219
359,3199832893,0.54724485,-0.39038706,-0.3145501,-0.6702084,20.238609313964844,1.7464545965194702,-3.5833945274353027,-79.09807586669922,332.1219787597656, 84.69491577148438
360,3199849560,0.56456006,-0.3725618,-0.27673775,-0.6825584,19.11183738708496,-0.05724222958087921,-4.95792818069458,-88.37278747558594,297.6481018066406, 96.42536163330078
361,3199866227,0.5764111,-0.3609377,-0.23530515,-0.69433826,19.082921981811523,4.57167387008667,-5.829477310180664,-142.36436462402344,271.1967468261719, 94.10818481445312
362,3199882894,0.58737653,-0.34955233,-0.20124155,-0.7016437,16.333293914794922,2.053903341293335,-11.875184059143066,-103.1334228515625,228.76406860351562, 89.8642578125
363,3199899561,0.59869885,-0.33271083,-0.19026566,-0.70332223,10.698518753051758,8.20755672454834,-16.195650100708008,38.945316314697266,149.328857421875, 51.3729248046875
364,3199916228,0.60131663,-0.32619545,-0.18904497,-0.7044692,9.20111083984375,10.311519622802734,-16.2393798828125,24.289588928222656,47.135520935058594, 2.8344767093658447
365,3199932895,0.59471935,-0.33427998,-0.19002676,-0.7060141,11.849103927612305,6.781247138977051,-13.803462982177734,-46.736454010009766,-43.32834243774414, -29.19912338256836
366,3199949562,0.5842429,-0.34650028,-0.197915,-0.7067019,12.620651245117188,5.492825508117676,-10.567061424255371,-38.00916290283203,-98.278076171875, -54.82390213012695
367,3199966229,0.57172644,-0.35900316,-0.21117581,-0.7068596,13.183712005615234,5.727527618408203,-7.514883518218994,-17.254894256591797,-124.94483947753906, -74.87971496582031
368,3199982896,0.55599046,-0.37417984,-0.2236142,-0.70771533,13.888806343078613,4.919218063354492,-7.000663757324219,-40.8171272277832,-137.41055297851562, -87.2116470336914
369,3199999563,0.53646004,-0.39301193,-0.23310448,-0.7095173,13.62848949432373,5.347580909729004,-7.639682292938232,-80.43746948242188,-147.113037109375, -95.92851257324219
370,3200016230,0.5173124,-0.41154715,-0.2395093,-0.71109235,15.788749694824219,-4.1083526611328125,12.054553031921387,-93.07255554199219,-134.08358764648438, -85.16575622558594
371,3200032897,0.501095,-0.4263797,-0.24436703,-0.71231234,12.140460968017578,-4.543768882751465,6.398568153381348,-78.54153442382812,-106.90630340576172, -71.32464599609375
372,3200049564,0.485178,-0.44210732,-0.24998847,-0.71179307,18.37421417236328,-1.4608776569366455,-7.621206283569336,-74.01709747314453,-118.69010925292969, -64.66045379638672
373,3200066231,0.47364238,-0.4523644,-0.2651984,-0.7076011,17.75498390197754,-0.5038478374481201,-0.7180025577545166,10.830772399902344,-127.2618179321289, -69.5105209350586
374,3200082898,0.463201,-0.46143284,-0.280935,-0.702567,11.030781745910645,3.3111040592193604,-0.25710049271583557,22.211692810058594,-123.72950744628906, -65.28519439697266
375,3200099565,0.45171854,-0.47166044,-0.29267475,-0.6984471,10.18203067779541,1.3789585828781128,-0.14155347645282745,-5.886327743530273,-115.73015594482422, -58.26707458496094
376,3200116232,0.4433575,-0.4796027,-0.3045311,-0.6933084,9.042171478271484,2.034738302230835,2.1555521488189697,13.94564437866211,-102.1830825805664, -45.0995979309082
377,3200132899,0.43599725,-0.4861081,-0.31475446,-0.68886507,9.917572975158691,4.947854995727539,0.9545096158981323,12.385297775268555,-86.0795669555664, -40.08245849609375
378,3200149566,0.43085524,-0.49199244,-0.3241856,-0.68352836,11.558050155639648,0.2107369601726532,-0.08814586699008942,19.820877075195312,-79.01373291015625, -25.537748336791992
379,3200166233,0.42913795,-0.49633336,-0.33537942,-0.6760285,11.145825386047363,-0.4204106330871582,0.030253387987613678,49.116844177246094,-76.69090270996094, -12.51286792755127
380,3200182900,0.42768344,-0.5002981,-0.3458794,-0.6686975,10.486358642578125,2.040708541870117,0.7115349173545837,47.54872131347656,-71.74266052246094, -10.38924789428711
381,3200199567,0.4256394,-0.504464,-0.35410184,-0.6625401,9.999526023864746,1.3082668781280518,1.78477144241333,31.684202194213867,-63.391517639160156, -8.269926071166992
382,3200216234,0.42324522,-0.5086154,-0.36037183,-0.65749997,9.747763633728027,0.30769047141075134,0.9655768871307373,18.920934677124023,-54.68622589111328, -6.436535358428955
383,3200232901,0.4213257,-0.5124502,-0.36656418,-0.6523114,9.874073028564453,0.05851276218891144,0.24357947707176208,21.54576873779297,-52.4495849609375, -4.428767204284668
384,3200249568,0.4210938,-0.51527023,-0.3742445,-0.6458465,10.10574722290039,0.08209284394979477,0.25198429822921753,40.349430084228516,-52.50503921508789, -1.0316057205200195
385,3200266235,0.42272356,-0.51684016,-0.38397408,-0.63776577,10.171433448791504,1.1107856035232544,0.8120060563087463,63.84897232055664,-53.873573303222656, 1.356859803199768
386,3200282902,0.4248631,-0.5177181,-0.3955408,-0.62849563,9.573639869689941,1.3303847312927246,1.1708369255065918,78.88933563232422,-59.130306243896484, -1.3725931644439697
387,3200299569,0.4273047,-0.5178772,-0.40901405,-0.617998,9.370502471923828,0.6141368746757507,1.363309621810913,93.66224670410156,-65.23046875, -5.290354251861572
388,3200316236,0.42938352,-0.5177798,-0.42355156,-0.60674375,10.052742958068848,0.4142496585845947,1.2802190780639648,99.79399108886719,-71.08289337158203, -9.207037925720215
389,3200332903,0.43092752,-0.5178156,-0.43780437,-0.5953956,10.187317848205566,-0.31522512435913086,1.8489112854003906,96.60053253173828,-72.79271697998047, -9.84861946105957
390,3200349570,0.43063813,-0.5191013,-0.45039016,-0.5850074,10.166566848754883,0.1993100792169571,0.42266547679901123,76.67357635498047,-75.19711303710938, -10.595602035522461
391,3200366237,0.4289546,-0.5210596,-0.4627478,-0.57476914,10.422953605651855,0.03461433947086334,0.4222051501274109,58.419822692871094,-81.79212188720703, -12.212281227111816
392,3200382904,0.42480886,-0.5243469,-0.473699,-0.5658685,10.721171379089355,0.4774915277957916,0.9999361634254456,35.440391540527344,-86.09066009521484, -16.3201961517334
393,3200399571,0.41897738,-0.52867246,-0.4837283,-0.5576474,10.718986511230469,0.2522650361061096,0.5271415114402771,20.901901245117188,-90.60826873779297, -17.97069549560547
394,3200416238,0.41218123,-0.5336388,-0.49351376,-0.5493458,11.399524688720703,-0.10503572225570679,0.41179776191711426,15.035317420959473,-96.00570678710938, -18.179611206054688
395,3200432905,0.4044696,-0.53942966,-0.5030829,-0.54067343,11.440445899963379,0.22896036505699158,0.5170589089393616,19.482858657836914,-102.2870101928711, -19.538881301879883
396,3200449572,0.39564705,-0.5455353,-0.5131014,-0.53158414,11.727862358093262,1.0298713445663452,0.9730833768844604,17.605714797973633,-110.21099090576172, -23.12056541442871
397,3200466239,0.3845799,-0.5529124,-0.52227974,-0.52307755,11.852056503295898,0.6684287786483765,0.6754410266876221,0.6090182662010193,-118.43730163574219, -25.283782958984375
398,3200482906,0.37176427,-0.5611851,-0.53120625,-0.51447314,12.35329532623291,0.04454364255070686,0.9563078880310059,-8.953330993652344,-127.77172088623047, -27.15797996520996
399,3200499573,0.35745788,-0.56974584,-0.5403555,-0.50559825,12.851819038391113,-0.38321617245674133,2.125847816467285,-13.661224365234375,-135.99363708496094, -31.583709716796875
400,3200516240,0.3432115,-0.5778345,-0.55027366,-0.49549195,13.566308975219727,-1.022721767425537,2.7567849159240723,-5.009830474853516,-141.03070068359375, -33.167057037353516
401,3200532907,0.32989773,-0.5845703,-0.56204224,-0.4832739,14.305947303771973,-1.1445624828338623,4.137597560882568,16.188926696777344,-145.86558532714844, -37.55158996582031
402,3200549574,0.31754446,-0.5899775,-0.5756095,-0.4687921,14.352374076843262,-0.7267758846282959,4.512367248535156,37.79792785644531,-151.18402099609375, -41.67089080810547
403,3200566241,0.30491295,-0.59431106,-0.59074354,-0.45259774,14.856099128723145,0.864831805229187,5.214730739593506,50.857200622558594,-159.4744873046875, -49.50508117675781
404,3200582908,0.2903869,-0.5987115,-0.60619235,-0.4356042,17.322586059570312,2.784510374069214,4.176793098449707,47.23520278930664,-171.61354064941406, -54.77128601074219
405,3200599575,0.27434644,-0.6038002,-0.6200761,-0.41912398,18.959640502929688,0.4936671257019043,6.271217346191406,32.85270690917969,-175.0605926513672, -51.021751403808594
406,3200616242,0.2619187,-0.6098614,-0.6315513,-0.40076274,17.49237060546875,-1.4268298149108887,9.573640823364258,52.47233200073242,-164.9754180908203, -28.75151824951172
407,3200632909,0.25187385,-0.6148132,-0.6366491,-0.3914619,15.901941299438477,3.4612836837768555,10.241122245788574,7.133492946624756,-102.59715270996094, -16.718713760375977
408,3200649576,0.242757,-0.61704236,-0.6478411,-0.37500635,11.708390235900879,8.849592208862305,-7.28484582901001,63.20758819580078,-132.50933837890625, -39.514163970947266
409,3200666243,0.23212712,-0.61967087,-0.655625,-0.3637047,15.017974853515625,8.749885559082031,-4.359543323516846,24.56270980834961,-112.60659790039062, -36.341304779052734
410,3200682910,0.22343397,-0.6226787,-0.6582643,-0.35921693,11.704535484313965,-0.913792610168457,8.575946807861328,-15.759610176086426,-68.73143005371094, -12.071110725402832
411,3200699577,0.2246736,-0.62404877,-0.65628064,-0.35969546,6.461058139801025,-3.8880343437194824,12.24599552154541,-4.597702980041504,8.305971145629883, 17.119606018066406
412,3200716244,0.23263225,-0.62230223,-0.65487236,-0.3602285,6.271254539489746,2.9374916553497314,5.39623498916626,30.20195198059082,45.37763977050781, 17.025476455688477
413,3200732911,0.23875414,-0.6192944,-0.64951736,-0.3709425,7.490705966949463,5.774546146392822,3.4976210594177246,-31.198320388793945,89.97774505615234, 7.444526195526123
414,3200749578,0.24569778,-0.6158568,-0.63945496,-0.3891665,6.805838108062744,0.21647833287715912,5.202020645141602,-72.4536361694336,134.3531494140625, 15.400443077087402
415,3200766245,0.2594947,-0.6098735,-0.6276645,-0.40835553,6.3827080726623535,-0.20269694924354553,5.439972400665283,-47.99593734741211,178.19070434570312, 28.179792404174805
416,3200782912,0.27746847,-0.60129976,-0.6136323,-0.43000638,6.96151876449585,1.0025242567062378,4.2755327224731445,-42.78157424926758,217.72125244140625, 33.696868896484375
417,3200799579,0.2974522,-0.59017855,-0.596833,-0.45497495,7.60670804977417,2.0357913970947266,2.014991283416748,-51.78892517089844,252.6779022216797, 33.9942741394043
418,3200816246,0.3194356,-0.57709795,-0.5761681,-0.4826482,9.0035982131958,-0.3295871317386627,0.30008333921432495,-62.864288330078125,285.91680908203125, 42.377662658691406
419,3200832913,0.3454413,-0.5611798,-0.5535359,-0.50926006,10.675315856933594,-1.0149857997894287,-0.22736003994941711,-43.0267448425293,311.4444274902344, 54.58580780029297
420,3200849580,0.37420326,-0.54229736,-0.52848727,-0.5353381,12.541810035705566,-0.4111669063568115,-1.2623300552368164,-31.81559944152832,336.0862731933594, 63.50247573852539
421,3200866247,0.4053841,-0.52017415,-0.5020848,-0.55945814,14.599513053894043,-0.0354091078042984,-1.6621475219726562,-12.35671329498291,353.1178894042969, 70.70124816894531
422,3200882914,0.43645576,-0.4957056,-0.47398072,-0.5823441,16.52205467224121,1.3431525230407715,-1.835233449935913,-8.525625228881836,362.2521057128906, 71.71026611328125
423,3200899581,0.4657537,-0.47046232,-0.4442493,-0.6036401,17.896621704101562,1.3183499574661255,-2.087167739868164,-13.61673641204834,359.2300109863281, 72.43421173095703
424,3200916248,0.49260217,-0.44545677,-0.4126567,-0.6233987,19.23009490966797,1.4854106903076172,-2.1729063987731934,-25.371952056884766,351.9903564453125, 73.96548461914062
425,3200932915,0.5159601,-0.42213562,-0.37846386,-0.6421462,20.025495529174805,1.474652647972107,-2.3863654136657715,-50.09196090698242,340.87042236328125, 75.19490051269531
426,3200949582,0.53523624,-0.40303093,-0.34046254,-0.65967697,19.824111938476562,-0.6637622117996216,-4.2447028160095215,-90.60094451904297,321.95843505859375, 83.5362777709961
427,3200966249,0.551896,-0.3879677,-0.30177197,-0.67366594,19.956666946411133,1.8006962537765503,-3.871551275253296,-107.5715560913086,290.6456604003906, 96.05425262451172
428,3200982916,0.5611665,-0.38031495,-0.256892,-0.6888101,18.946945190429688,4.084575176239014,-5.278790473937988,-186.53684997558594,268.021240234375, 89.3860855102539
429,3200999583,0.571359,-0.3700633,-0.22282659,-0.69781846,16.228696823120117,1.7917418479919434,-10.832332611083984,-112.06382751464844,224.6297149658203, 84.68067932128906
430,3201016250,0.5818455,-0.3550204,-0.20985591,-0.7009828,11.141888618469238,7.641870021820068,-15.48153305053711,17.68695068359375,150.85879516601562, 48.1364860534668
431,3201032917,0.58407485,-0.35006273,-0.20607448,-0.70274186,9.396195411682129,9.178375244140625,-15.52530574798584,3.404080629348755,50.70072555541992, 6.282257080078125
432,3201049584,0.57790893,-0.35747313,-0.20680171,-0.70389444,11.587371826171875,6.931942939758301,-13.138944625854492,-43.955623626708984,-40.0186767578125, -24.952922821044922
433,3201066251,0.56823814,-0.36795515,-0.21507107,-0.7038885,11.943937301635742,6.508491516113281,-9.139334678649902,-26.722578048706055,-92.22514343261719, -51.29212951660156
434,3201082918,0.5560128,-0.3800139,-0.22631261,-0.7037201,12.722394943237305,5.1583170890808105,-6.880117416381836,-24.82087516784668,-115.30785369873047, -68.03178405761719
435,3201099585,0.54134107,-0.39426067,-0.23776652,-0.7035451,13.116874694824219,3.645832061767578,-6.737703323364258,-38.62174987792969,-130.2431640625, -76.83849334716797
436,3201116252,0.52449375,-0.41012618,-0.24890386,-0.7033845,13.203130722045898,4.937999248504639,-6.8993239402771,-52.15660095214844,-140.14918518066406, -83.77622985839844
437,3201132919,0.5059209,-0.42683864,-0.25872585,-0.7035012,14.957930564880371,3.1276397705078125,4.099338054656982,-66.98767852783203,-141.42906188964844, -87.78516387939453
438,3201149586,0.49147642,-0.438841,-0.26713327,-0.7032137,13.60240650177002,-5.856494903564453,13.508611679077148,-44.66157531738281,-107.58975219726562, -70.51456451416016
439,3201166253,0.47310334,-0.45510724,-0.27001548,-0.7043737,14.56933307647705,-0.916654109954834,-4.452711582183838,-100.23192596435547,-112.71383666992188, -70.00914764404297
440,3201182920,0.45799124,-0.46790075,-0.27972424,-0.70218766,18.714338302612305,-1.7153878211975098,-3.269151210784912,-39.432979583740234,-122.34415435791016, -71.10237121582031
441,3201199587,0.4470577,-0.47684324,-0.29552,-0.69672656,12.416963577270508,0.9538022875785828,-0.10330149531364441,21.850696563720703,-125.22248840332031, -67.63574981689453
442,3201216254,0.4351191,-0.486328,-0.30791548,-0.69234717,10.775967597961426,3.0122528076171875,0.20734266936779022,-1.6073468923568726,-115.8419189453125, -63.530853271484375
443,3201232921,0.42417592,-0.49538863,-0.3182048,-0.6880485,9.505520820617676,1.0349183082580566,1.3960038423538208,-7.230538368225098,-105.15899658203125, -52.838096618652344
444,3201249588,0.41632304,-0.50199026,-0.32876405,-0.68307775,9.831446647644043,4.0576252937316895,2.052145004272461,13.220138549804688,-89.91134643554688, -42.573184967041016
445,3201266255,0.40887532,-0.50820494,-0.337001,-0.6789544,10.777459144592285,3.367413282394409,0.9030691385269165,2.8877594470977783,-77.69185638427734, -35.90331268310547
446,3201282922,0.4046822,-0.5134594,-0.3459646,-0.67297876,11.314003944396973,-1.278817892074585,-0.3161562979221344,24.645212173461914,-74.23357391357422, -20.244035720825195
447,3201299589,0.40308338,-0.517003,-0.35634518,-0.6657702,10.6480131149292,1.4872902631759644,0.5939375758171082,48.09722900390625,-68.4619140625, -14.001832962036133
448,3201316256,0.39993802,-0.52102464,-0.3636301,-0.6605725,10.220699310302734,1.6666067838668823,1.2763607501983643,22.197998046875,-58.768470764160156, -14.529465675354004
449,3201332923,0.3970081,-0.52475756,-0.36943763,-0.6561479,9.965970039367676,-0.040505122393369675,1.5872678756713867,15.141298294067383,-50.17747497558594, -11.13926887512207
450,3201349590,0.3943484,-0.5281948,-0.3749049,-0.6518789,10.269330024719238,0.5305919647216797,0.6953293085098267,15.024486541748047,-46.77534484863281, -9.945436477661133
451,3201366257,0.3927552,-0.5310861,-0.38092303,-0.6469843,10.060118675231934,0.19093792140483856,0.2021753489971161,24.483726501464844,-45.424373626708984, -6.938943386077881
452,3201382924,0.3935439,-0.5329611,-0.38891363,-0.6401733,9.91358757019043,0.3605519235134125,0.5800041556358337,49.74574661254883,-47.053531646728516, -1.1145038604736328
453,3201399591,0.39618653,-0.5339786,-0.39971527,-0.6309762,9.710922241210938,0.9446788430213928,1.00398588180542,77.64149475097656,-54.74493408203125, 0.8196132183074951
454,3201416258,0.39985624,-0.53430283,-0.41370508,-0.6192607,9.763967514038086,1.0317221879959106,1.2767025232315063,104.08185577392578,-66.92716217041016, -1.5601794719696045
455,3201432925,0.4038809,-0.5342785,-0.42991862,-0.6054724,10.77489948272705,-0.15988293290138245,2.3811123371124268,121.73607635498047,-78.25558471679688, -3.601590871810913
456,3201449592,0.40689036,-0.5343345,-0.44601282,-0.5916075,10.743531227111816,0.6323556303977966,1.8575468063354492,117.54129791259766,-81.66819763183594, -7.061522483825684
457,3201466259,0.40735245,-0.5356251,-0.4602446,-0.5790896,10.385531425476074,0.6618740558624268,1.5287514925003052,93.03966522216797,-84.46267700195312, -10.646513938903809
458,3201482926,0.40575153,-0.53759015,-0.47315732,-0.56787753,10.301244735717773,0.19889704883098602,1.0759928226470947,64.32613372802734,-86.3563003540039, -12.519867897033691
459,3201499593,0.4016566,-0.5409567,-0.48421714,-0.5581858,10.803461074829102,0.31758254766464233,0.9286085963249207,39.000160217285156,-89.27301788330078, -14.826737403869629
460,3201516260,0.39603794,-0.5450613,-0.4946167,-0.5490143,10.797351837158203,0.20839081704616547,0.48303139209747314,27.50069236755371,-93.50872802734375, -17.090251922607422
461,3201532927,0.3887189,-0.54971224,-0.50489146,-0.5401841,10.869156837463379,0.7980830073356628,1.0143731832504272,18.575233459472656,-99.81982421875, -22.04983901977539
462,3201549594,0.3793102,-0.5558536,-0.5133245,-0.53258693,11.046807289123535,0.7304669618606567,0.8608306646347046,4.321972370147705,-102.1309585571289, -24.676198959350586
463,3201566261,0.36985773,-0.561891,-0.5226931,-0.5237134,11.072051048278809,0.19613999128341675,0.6920831203460693,12.365565299987793,-109.3482666015625, -25.472753524780273
464,3201582928,0.3588716,-0.5681549,-0.5325664,-0.51457196,11.127998352050781,0.818064272403717,1.373380184173584,8.650769233703613,-118.12013244628906, -31.489961624145508
465,3201599595,0.3460624,-0.5753922,-0.54175866,-0.5056305,11.718923568725586,0.19026465713977814,1.3109188079833984,-4.003708362579346,-125.92961883544922, -32.23103332519531
466,3201616262,0.33248162,-0.58278275,-0.5509885,-0.4962175,12.92251968383789,-0.5087018013000488,1.8203659057617188,-5.524531364440918,-131.45260620117188, -33.41191482543945
467,3201632929,0.3196553,-0.58946013,-0.56121004,-0.48518094,13.657747268676758,-0.47550272941589355,2.484722137451172,8.670025825500488,-135.12396240234375, -33.870853424072266
468,3201649596,0.3071853,-0.5953047,-0.57216114,-0.47316092,13.887247085571289,-0.279653936624527,2.5798380374908447,18.183298110961914,-136.7848663330078, -36.765113830566406
469,3201666263,0.29571503,-0.60000914,-0.58448493,-0.45925945,14.065038681030273,-0.6107638478279114,2.5508363246917725,36.56319046020508,-139.9779052734375, -39.71314239501953
470,3201682930,0.28469607,-0.60374755,-0.5984246,-0.44308618,14.472561836242676,-0.09630602598190308,3.236252546310425,54.63147735595703,-148.02052307128906, -44.29552459716797
471,3201699597,0.2736643,-0.60635966,-0.61358005,-0.42538872,14.723363876342773,0.36612576246261597,5.231025695800781,66.77734375,-153.63072204589844, -51.09333038330078
472,3201716264,0.26323304,-0.6081509,-0.6288088,-0.40676832,15.015847206115723,-0.05473524332046509,7.864259243011475,74.97274017333984,-153.02688598632812, -51.41484451293945
473,3201732931,0.2522805,-0.6110242,-0.6389654,-0.393354,16.561487197875977,1.154707908630371,11.6046142578125,34.18633270263672,-127.7722396850586, -36.46237564086914
474,3201749598,0.2410988,-0.61474115,-0.64659256,-0.38194644,13.28558349609375,4.83597993850708,4.107475757598877,21.401615142822266,-117.39057159423828, -34.31363296508789
475,3201766265,0.22706524,-0.6188227,-0.656806,-0.36620468,14.596190452575684,7.850451469421387,-4.5056471824646,34.449867248535156,-153.95083618164062, -43.99271774291992
476,3201782932,0.21490557,-0.6224044,-0.66578364,-0.35094258,17.89884376525879,6.758278846740723,-1.910353422164917,37.0447883605957,-140.56198120117188, -36.049076080322266
477,3201799599,0.20546554,-0.6251865,-0.6704096,-0.3427489,13.975741386413574,1.2680782079696655,11.141450881958008,3.426038980484009,-90.86954498291016, -17.632225036621094
478,3201816266,0.20577902,-0.6271343,-0.67039794,-0.33900467,6.80940055847168,-4.866178512573242,10.388752937316895,15.16826057434082,-18.73518943786621, 15.098054885864258
479,3201832933,0.21443483,-0.6260974,-0.67112815,-0.3340761,7.535628318786621,2.6880171298980713,4.100710391998291,62.4946403503418,20.231529235839844, 19.164358139038086
480,3201849600,0.2205793,-0.6243029,-0.6665498,-0.34249413,7.664774417877197,6.401169300079346,5.164594650268555,-20.92966651916504,75.51060485839844, 13.125436782836914
481,3201866267,0.22701201,-0.6224422,-0.6566238,-0.36038414,5.310714244842529,-0.49940282106399536,4.14991569519043,-75.48116302490234,125.59048461914062, 22.15984535217285
482,3201882934,0.24284749,-0.6174656,-0.6466094,-0.37637463,5.890385627746582,-0.5822293758392334,4.274184703826904,-22.03781509399414,167.68621826171875, 34.678436279296875
483,3201899601,0.26300913,-0.61000246,-0.634708,-0.39480308,6.777166843414307,1.1530410051345825,4.0707526206970215,-15.262467384338379,206.76095581054688, 38.736175537109375
484,3201916268,0.28504324,-0.60064393,-0.6196619,-0.41712892,7.9293437004089355,0.14402836561203003,1.9567925930023193,-29.52581214904785,242.01292419433594, 41.70332717895508
485,3201932935,0.3087016,-0.5892414,-0.60152286,-0.442344,9.262535095214844,0.01633479818701744,0.2670537233352661,-40.01907730102539,272.7427978515625, 44.742835998535156
486,3201949602,0.33257478,-0.5762339,-0.5799486,-0.47011524,10.518242835998535,-0.10610995441675186,-1.248110055923462,-56.7967414855957,296.15863037109375, 47.207332611083984
487,3201966269,0.35766315,-0.5613391,-0.5558118,-0.49804503,11.96020793914795,-0.16149885952472687,-1.6355125904083252,-56.61563491821289,313.6402587890625, 53.34351348876953
488,3201982936,0.38332692,-0.54453576,-0.52888244,-0.52614135,13.503697395324707,0.9477151036262512,-1.4244405031204224,-59.93437194824219,329.9603271484375, 58.32959747314453
489,3201999603,0.40872622,-0.52629757,-0.4995885,-0.55350274,15.071337699890137,1.2634307146072388,-1.6651184558868408,-63.04791259765625,337.76031494140625, 62.91337966918945
490,3202016270,0.4333701,-0.5068957,-0.46897224,-0.5790616,16.398677825927734,2.059852123260498,-1.2011802196502686,-61.37531661987305,336.9219665527344, 65.87069702148438
491,3202032937,0.456174,-0.48735565,-0.43578202,-0.6037251,17.723167419433594,2.0785915851593018,-1.405588150024414,-74.77325439453125,336.26129150390625, 69.74266815185547
492,3202049604,0.47740346,-0.46807283,-0.40062383,-0.6264939,18.92986488342285,1.3248364925384521,-2.1750295162200928,-83.38621520996094,330.53607177734375, 76.51921844482422
493,3202066271,0.49689358,-0.44949317,-0.36415595,-0.64687186,19.42333984375,1.4364169836044312,-2.8113558292388916,-90.38762664794922,319.6372375488281, 83.01911926269531
494,3202082938,0.5137572,-0.43307486,-0.3264771,-0.66476506,19.21703338623047,1.3797142505645752,-2.9785990715026855,-105.09583282470703,300.2911071777344, 88.99058532714844
495,3202099605,0.5282964,-0.41958982,-0.2880596,-0.67960954,19.135866165161133,1.1632245779037476,-4.004360675811768,-118.9516830444336,275.6232604980469, 97.94695281982422
496,3202116272,0.54304,-0.4058356,-0.25409523,-0.6898121,18.069265365600586,1.8437719345092773,-7.019928455352783,-87.39724731445312,248.1919708251953, 102.43895721435547
497,3202132939,0.558052,-0.3885369,-0.2348756,-0.6945867,13.911717414855957,5.243720531463623,-12.409928321838379,5.995774269104004,195.80926513671875, 76.75387573242188
498,3202149606,0.56845737,-0.37428102,-0.2304289,-0.69546574,9.689589500427246,9.604029655456543,-15.946749687194824,58.79156494140625,107.36895751953125, 35.35107421875
499,3202166273,0.5678652,-0.37370944,-0.23107867,-0.6960411,10.527131080627441,9.423404693603516,-14.760270118713379,1.7163268327713013,4.444144248962402, -7.215381145477295
500,3202182940,0.55917484,-0.38273764,-0.23622634,-0.6964428,11.867979049682617,7.467079162597656,-12.067991256713867,-34.91263961791992,-71.78246307373047, -41.33712387084961
501,3202199607,0.5460432,-0.39528084,-0.24588889,-0.6965116,12.691267967224121,6.156015872955322,-9.277207374572754,-38.065284729003906,-113.55806732177734, -67.27289581298828
502,3202216274,0.5298222,-0.40997747,-0.257577,-0.6963198,13.711657524108887,5.056637287139893,-7.79277229309082,-44.498897552490234,-136.9969940185547, -82.75416564941406
503,3202232941,0.5113019,-0.4264228,-0.26877132,-0.6960575,13.952314376831055,4.458470344543457,-7.882164001464844,-59.66651153564453,-147.48532104492188, -88.83158874511719
504,3202249608,0.49142683,-0.443543,-0.2792429,-0.6955522,14.08382511138916,4.487468719482422,-0.999187707901001,-69.08184051513672,-151.0635986328125, -90.91327667236328
505,3202266275,0.47620177,-0.4556073,-0.28707796,-0.69515485,12.970614433288574,-6.613821029663086,15.429415702819824,-50.69124221801758,-108.60308837890625, -70.53913879394531
506,3202282942,0.46060845,-0.46800718,-0.29045814,-0.6960196,12.822744369506836,-1.406144618988037,-0.6936219334602356,-76.63914489746094,-92.81585693359375, -61.981746673583984
507,3202299609,0.4465292,-0.47956112,-0.2979376,-0.6941656,20.26978302001953,-0.6109590530395508,-5.687169075012207,-44.01185989379883,-107.41197204589844, -61.01686096191406
508,3202316276,0.43613148,-0.4873021,-0.3121427,-0.6891249,14.399165153503418,0.0006993903662078083,-0.1391548216342926,18.477951049804688,-112.52384185791016, -63.655609130859375
509,3202332943,0.42539075,-0.4950259,-0.32411727,-0.68479216,11.04809856414795,2.736675977706909,-0.46884870529174805,5.2954325675964355,-104.06536102294922, -60.00054168701172
510,3202349610,0.4151235,-0.50270367,-0.33407554,-0.68070185,10.549460411071777,-0.12139338254928589,0.9219365119934082,-3.0143442153930664,-96.05751037597656, -51.67909240722656
511,3202366277,0.4078716,-0.508338,-0.34435213,-0.67576265,10.011425971984863,3.046234369277954,2.1386091709136963,16.693349838256836,-83.45586395263672, -40.98774719238281
512,3202382944,0.40100864,-0.5135363,-0.352293,-0.67183495,10.594931602478027,4.559228420257568,1.4464975595474243,6.0196990966796875,-70.50920867919922, -34.85872268676758
513,3202399611,0.39617726,-0.51858145,-0.35935318,-0.6670701,11.123627662658691,0.7113357186317444,0.6065154075622559,11.562031745910645,-65.4686050415039, -20.359405517578125
514,3202416278,0.39445737,-0.5223277,-0.3676418,-0.6606184,10.758147239685059,1.1528191566467285,0.9706137180328369,36.02082824707031,-61.21891784667969, -9.137981414794922
515,3202432945,0.39197728,-0.52604634,-0.37385148,-0.6556403,10.135627746582031,1.9802429676055908,2.336848258972168,20.222293853759766,-52.135223388671875, -9.238194465637207
516,3202449612,0.38926515,-0.52964884,-0.37819254,-0.65185523,9.363662719726562,0.01571572571992874,3.0344812870025635,8.223930358886719,-42.95895767211914, -7.053030967712402
517,3202466279,0.38625464,-0.532872,-0.3814552,-0.6491124,9.753750801086426,0.2726953625679016,1.5519245862960815,0.640480637550354,-35.48921585083008, -8.303753852844238
518,3202482946,0.3839535,-0.5357267,-0.385587,-0.6456774,10.26357364654541,-0.7312101125717163,-0.2113710641860962,9.933880805969238,-36.91195297241211, -7.5029473304748535
519,3202499613,0.38484347,-0.5372665,-0.39326432,-0.6392055,9.98936653137207,-0.9017179608345032,0.5534624457359314,48.97541427612305,-43.1832275390625, -1.9576719999313354
520,3202516280,0.388366,-0.5375991,-0.4051297,-0.6293084,9.097225189208984,0.15742290019989014,1.1935025453567505,89.59313201904297,-54.541282653808594, -0.17973126471042633
521,3202532947,0.39314544,-0.5373898,-0.4211807,-0.61583763,8.83112907409668,0.570930004119873,1.9329676628112793,123.78292083740234,-73.15241241455078, -2.2828214168548584
522,3202549614,0.39736038,-0.53722936,-0.4396245,-0.60018337,8.842218399047852,0.5779274702072144,3.417537212371826,138.0484619140625,-89.62989044189453, -7.568917751312256
523,3202566281,0.39743638,-0.5387837,-0.45694488,-0.585626,9.18250846862793,2.044404983520508,2.233290433883667,110.14493560791016,-102.25127410888672, -18.401517868041992
524,3202582948,0.39357048,-0.54232174,-0.47181863,-0.5730417,9.725407600402832,0.8498875498771667,1.5550023317337036,74.08397674560547,-108.75233459472656, -24.394153594970703
525,3202599615,0.38811475,-0.54592025,-0.4858945,-0.56146675,10.282434463500977,0.404611200094223,0.7486987113952637,52.32041931152344,-109.72943878173828, -26.059585571289062
526,3202616282,0.38073865,-0.5504871,-0.49817136,-0.5512056,11.142590522766113,0.015609681606292725,0.5688247680664062,31.787904739379883,-110.20428466796875, -26.93617057800293
527,3202632949,0.3727389,-0.5552397,-0.50991184,-0.5410773,11.484931945800781,0.37527722120285034,0.33938461542129517,26.93106460571289,-111.22599792480469, -26.909730911254883
528,3202649616,0.3639254,-0.56021285,-0.52111006,-0.53119147,11.887049674987793,1.1196300983428955,0.7842886447906494,21.638805389404297,-112.5459976196289, -28.112749099731445
529,3202666283,0.35410136,-0.56566244,-0.53165215,-0.5215211,11.695173263549805,0.7541512250900269,0.6650946736335754,14.091583251953125,-115.50888061523438, -28.233652114868164
530,3202682950,0.34330565,-0.5720675,-0.54143476,-0.51159394,11.582548141479492,0.34401044249534607,0.5771099328994751,12.369749069213867,-120.65347290039062, -28.705379486083984
531,3202699617,0.33122954,-0.5786759,-0.5513344,-0.50144947,12.378827095031738,0.1516217738389969,0.9284807443618774,8.082921028137207,-127.40484619140625, -32.44501495361328
532,3202716284,0.317821,-0.5857043,-0.5608133,-0.49135405,13.159834861755371,-0.25649142265319824,1.796046257019043,0.19757024943828583,-132.91238403320312, -33.94077682495117
533,3202732951,0.3035508,-0.59285676,-0.5701924,-0.48089352,13.76747989654541,-0.43677741289138794,2.078468084335327,-2.4633758068084717,-138.10977172851562, -35.244991302490234
534,3202749618,0.28994578,-0.59931916,-0.5803906,-0.46892956,14.499767303466797,-1.258432388305664,3.6132466793060303,10.300775527954102,-141.281494140625, -36.03321838378906
535,3202766285,0.27827677,-0.6044929,-0.59218186,-0.45439082,14.58391284942627,-1.1013778448104858,4.666772365570068,36.269187927246094,-143.47195434570312, -36.4722900390625
536,3202782952,0.26675949,-0.60876316,-0.6051715,-0.43819442,14.693570137023926,0.17608848214149475,4.492194652557373,49.1386833190918,-149.53770446777344, -41.585079193115234
537,3202799619,0.2546937,-0.6122438,-0.6193477,-0.42035377,15.100679397583008,0.8980329036712646,3.258519172668457,58.738704681396484,-158.82469177246094, -48.53391647338867
538,3202816286,0.24289383,-0.61471355,-0.6345332,-0.40062147,15.708486557006836,0.5217019319534302,4.663726329803467,72.63775634765625,-164.8041534423828, -53.044517517089844
539,3202832953,0.23261566,-0.6170181,-0.64850235,-0.380294,15.565279006958008,-1.1432464122772217,7.776387691497803,80.42505645751953,-157.9339599609375, -46.80799102783203
540,3202849620,0.22508352,-0.6200006,-0.6592433,-0.36101925,15.62202262878418,-0.6169036030769348,11.108540534973145,77.61852264404297,-138.35647583007812, -24.552053451538086
541,3202866287,0.2189549,-0.6221144,-0.6659974,-0.34854,12.475202560424805,5.365219593048096,4.345109462738037,43.94240188598633,-95.3302993774414, -18.108774185180664
542,3202882954,0.20796585,-0.6240467,-0.6760491,-0.33207455,14.091913223266602,11.119091987609863,-7.899557590484619,49.589359283447266,-139.47463989257812, -38.658565521240234
543,3202899621,0.19384567,-0.6270084,-0.68190104,-0.3229482,15.122870445251465,6.348104000091553,-4.052889347076416,-9.882959365844727,-119.2572250366211, -30.519502639770508
544,3202916288,0.18401945,-0.63041383,-0.6841002,-0.31736758,12.575735092163086,-0.544324517250061,11.395339965820312,-16.60470962524414,-80.09689331054688, -7.857791423797607
545,3202932955,0.186463,-0.6322735,-0.6831856,-0.31419644,4.028696537017822,-3.030217170715332,8.83275318145752,20.439584732055664,-5.05269718170166, 22.00697135925293
546,3202949622,0.19589384,-0.6306542,-0.68333685,-0.31137046,5.987590312957764,4.372294902801514,3.6266534328460693,55.91548538208008,35.25209045410156, 15.654064178466797
547,3202966289,0.20699275,-0.6276065,-0.67972505,-0.31817892,6.321995258331299,2.9948034286499023,5.175328731536865,11.829236030578613,92.8943862915039, 15.964129447937012
548,3202982956,0.22421718,-0.62279177,-0.6730913,-0.32985663,5.185653209686279,-0.5061255693435669,5.922008037567139,11.461847305297852,150.57220458984375, 27.287147521972656
549,3202999623,0.24782023,-0.6152674,-0.6641914,-0.34479174,6.276688575744629,0.041895944625139236,5.19858980178833,22.7225284576416,203.5699005126953, 33.91796875
550,3203016290,0.27340466,-0.6052665,-0.652961,-0.36406627,7.798779487609863,1.6949430704116821,3.71585750579834,9.968951225280762,240.70504760742188, 29.805265426635742
551,3203032957,0.29691416,-0.59397787,-0.63783807,-0.39012176,9.029082298278809,2.5491271018981934,1.8411951065063477,-36.432228088378906,270.0541687011719, 22.320581436157227
552,3203049624,0.3189056,-0.5818377,-0.61842126,-0.42109337,10.695825576782227,1.1276395320892334,-0.4424363970756531,-73.97152709960938,294.4726257324219, 22.026235580444336
553,3203066291,0.34175313,-0.56827664,-0.5961842,-0.45258257,12.253214836120605,0.3079790472984314,-0.965187668800354,-77.8187255859375,310.4801025390625, 28.56266212463379
554,3203082958,0.36555722,-0.55298275,-0.5714037,-0.48381388,13.03978157043457,0.9675745964050293,-1.0525628328323364,-76.89639282226562,324.7835693359375, 34.90446853637695
555,3203099625,0.38896653,-0.5365368,-0.5434333,-0.51528,14.307116508483887,1.8555880784988403,-1.3445758819580078,-87.06778717041016,336.025390625, 40.54224395751953
556,3203116292,0.41214484,-0.51957905,-0.51241714,-0.54553,15.87569522857666,0.7267144918441772,-2.3116631507873535,-92.82771301269531,340.715576171875, 52.25605392456055
557,3203132959,0.43647447,-0.50130725,-0.48058617,-0.57202995,16.811538696289062,1.2632113695144653,-1.8237800598144531,-74.86753845214844,338.7557067871094, 65.41444396972656
558,3203149626,0.4592736,-0.4833792,-0.44628233,-0.59686214,17.841297149658203,1.440976619720459,-1.7354302406311035,-85.4421615600586,334.19732666015625, 74.0181655883789
559,3203166293,0.48030597,-0.4660849,-0.41062108,-0.6192426,18.986297607421875,1.454750418663025,-2.063347816467285,-91.41215515136719,322.53900146484375, 80.92825317382812
560,3203182960,0.4983165,-0.45042562,-0.37333396,-0.63985866,19.17955780029297,2.16938853263855,-2.391051769256592,-108.49288940429688,307.05633544921875, 83.68286895751953
561,3203199627,0.51302546,-0.43756375,-0.3352652,-0.65798205,18.04326820373535,1.0505671501159668,-3.2538506984710693,-125.39900970458984,281.58258056640625, 87.29325103759766
562,3203216294,0.5258888,-0.4268894,-0.2974465,-0.6728538,17.507688522338867,1.3466203212738037,-5.09917688369751,-130.07992553710938,257.1700439453125, 94.69163513183594
563,3203232961,0.5399385,-0.41336608,-0.26981616,-0.68175834,15.232659339904785,2.7377982139587402,-8.66008186340332,-56.96550369262695,218.8709259033203, 86.06478881835938
564,3203249628,0.55367565,-0.39748102,-0.25745213,-0.68496025,11.007408142089844,5.579247951507568,-12.832268714904785,33.024864196777344,157.00369262695312, 58.1254768371582
565,3203266295,0.55982363,-0.3887459,-0.25468314,-0.6860107,9.477873802185059,9.141376495361328,-13.149604797363281,33.98884201049805,68.06537628173828, 17.203044891357422
566,3203282962,0.5563048,-0.39184195,-0.25492543,-0.6870211,10.626738548278809,7.035235404968262,-11.960282325744629,-23.243961334228516,-15.811370849609375, -15.317314147949219
567,3203299629,0.5472687,-0.4003046,-0.25951567,-0.6876809,11.668265342712402,6.053477764129639,-8.904816627502441,-37.57673645019531,-67.89315032958984, -42.143306732177734
568,3203316296,0.5348318,-0.4112912,-0.26667088,-0.688245,12.427143096923828,4.676450252532959,-6.526899814605713,-44.217044830322266,-95.3887710571289, -60.23568344116211
569,3203332963,0.5191807,-0.42486605,-0.2742817,-0.68899196,13.204038619995117,4.425236701965332,-5.416384220123291,-61.06682205200195,-114.34827423095703, -72.50492095947266
570,3203349630,0.49959984,-0.44091126,-0.28154886,-0.69045466,13.58432388305664,6.236076831817627,-6.1622514724731445,-84.4056625366211,-129.85545349121094, -87.85472869873047
571,3203366297,0.47750315,-0.4577533,-0.2896989,-0.6917567,16.19917106628418,4.185590744018555,-0.13207587599754333,-90.3514633178711,-141.74403381347656, -100.16411590576172
572,3203382964,0.4608144,-0.471017,-0.3008017,-0.6894284,17.541576385498047,-7.347737789154053,5.59869384765625,-40.347408294677734,-134.9373779296875, -78.78826904296875
573,3203399631,0.4418932,-0.48577055,-0.31044325,-0.6873008,15.466904640197754,-1.761434555053711,-2.38728666305542,-59.542476654052734,-141.39083862304688, -82.36422729492188
574,3203416298,0.42647496,-0.49752146,-0.3247677,-0.68199515,14.867744445800781,-1.6580675840377808,-0.7852637767791748,-9.777364730834961,-144.415771484375, -78.23479461669922
575,3203432965,0.41348866,-0.5066687,-0.34070355,-0.67545176,10.30537223815918,1.71895170211792,0.19040550291538239,16.516210556030273,-135.65113830566406, -74.5899429321289
576,3203449632,0.4006578,-0.5155599,-0.3526894,-0.67028475,9.339741706848145,3.6921703815460205,-0.1264512538909912,-3.7953526973724365,-118.06924438476562, -64.6036148071289
577,3203466299,0.38927874,-0.52335614,-0.36133876,-0.6663294,9.426061630249023,3.712526559829712,0.4498136043548584,-13.971439361572266,-96.02154541015625, -52.00516891479492
578,3203482966,0.37982693,-0.52913123,-0.36867824,-0.6631953,11.129474639892578,5.492341995239258,1.7347477674484253,-9.683340072631836,-75.54615783691406, -45.6143913269043
579,3203499633,0.37186715,-0.53422004,-0.3748382,-0.66016686,12.20327091217041,1.3764909505844116,0.22408097982406616,-8.125957489013672,-65.2353286743164, -36.43617248535156
580,3203516300,0.3694136,-0.5376521,-0.38387585,-0.65353143,12.13304328918457,-2.7370870113372803,-0.6902511715888977,38.70643997192383,-64.1474609375, -17.09656524658203
581,3203532967,0.36868742,-0.5398758,-0.39365,-0.6462535,10.67073917388916,1.6311954259872437,0.10819751769304276,53.2039909362793,-58.39667510986328, -13.779791831970215
582,3203549634,0.36715952,-0.54241496,-0.40130982,-0.6402581,10.208070755004883,1.3772423267364502,0.7747091054916382,36.57614517211914,-51.870574951171875, -11.92921257019043
583,3203566301,0.36580354,-0.5448222,-0.40815046,-0.6346416,10.310038566589355,1.072516679763794,0.8176277279853821,32.91581726074219,-47.38678741455078, -9.478514671325684
584,3203582968,0.36481008,-0.5474053,-0.41487494,-0.6286015,10.400787353515625,0.29239270091056824,0.4161788523197174,34.53157043457031,-48.48902130126953, -5.950353145599365
585,3203599635,0.36582825,-0.5492136,-0.4233649,-0.62072253,10.094534873962402,-0.14237290620803833,1.348923921585083,56.94392013549805,-50.797359466552734, -1.5713073015213013
586,3203616302,0.36857823,-0.550125,-0.4345323,-0.61048716,9.98379898071289,0.5640119314193726,1.8591622114181519,84.05294036865234,-57.63797378540039, -1.0703938007354736
587,3203632969,0.37252906,-0.5498317,-0.44907817,-0.5976922,10.070725440979004,1.6689403057098389,1.811140775680542,113.5032730102539,-67.332275390625, -6.005958080291748
588,3203649636,0.37567732,-0.5497412,-0.4636655,-0.5845217,11.137479782104492,0.9160508513450623,2.9500732421875,111.30020904541016,-72.2632827758789, -7.928201198577881
589,3203666303,0.37756371,-0.55051184,-0.4765734,-0.57206666,10.38287353515625,0.3907245695590973,2.2743687629699707,95.29959869384766,-72.84558868408203, -5.824866771697998
590,3203682970,0.37713116,-0.55229723,-0.48866394,-0.56031036,9.664053916931152,0.40426644682884216,1.7983927726745605,78.40357971191406,-79.79678344726562, -10.412177085876465
591,3203699637,0.37355947,-0.5552928,-0.4996501,-0.54995745,9.477225303649902,0.838527500629425,2.2110540866851807,54.3926887512207,-86.93205261230469, -17.940704345703125
592,3203716304,0.3665469,-0.5600094,-0.5084337,-0.5417825,9.818117141723633,1.0095402002334595,0.8862588405609131,21.042089462280273,-91.42581939697266, -22.2567138671875
593,3203732971,0.35831666,-0.5647624,-0.5175202,-0.5336908,10.238262176513672,-0.17200563848018646,0.26081639528274536,11.654255867004395,-97.49337768554688, -24.157447814941406
594,3203749638,0.34971467,-0.5695439,-0.52711236,-0.52485424,10.571248054504395,-0.04876770079135895,-0.15444988012313843,15.521407127380371,-103.01739501953125, -26.006153106689453
595,3203766305,0.34006828,-0.57449,-0.53682774,-0.5158789,11.093507766723633,0.6479377150535583,0.6224758625030518,12.68415355682373,-108.21720886230469, -29.70633316040039
596,3203782972,0.3296474,-0.57987225,-0.54574543,-0.50719124,10.938127517700195,0.4172925055027008,-0.09184399247169495,5.998208999633789,-109.48539733886719, -29.30230712890625
597,3203799639,0.31925073,-0.5852202,-0.5549009,-0.49767616,10.701809883117676,0.854553759098053,0.27664950489997864,11.038820266723633,-113.0177993774414, -29.180194854736328
598,3203816306,0.30742294,-0.59084517,-0.5634613,-0.48877898,10.477608680725098,1.7400621175765991,0.3986766040325165,1.9176501035690308,-115.33078002929688, -33.58281326293945
599,3203832973,0.294223,-0.5965466,-0.571369,-0.4807314,11.020243644714355,1.5546170473098755,0.6364874243736267,-9.284863471984863,-116.19987487792969, -37.050148010253906
600,3203849640,0.28098446,-0.60212326,-0.5790219,-0.47247136,11.719255447387695,0.9049661755561829,1.075061321258545,-9.179293632507324,-116.4404525756836, -36.21268081665039
601,3203866307,0.26815858,-0.6073803,-0.586525,-0.46386302,12.263139724731445,1.0488884449005127,1.454837679862976,-5.93384313583374,-115.0808334350586, -34.89801788330078
602,3203882974,0.25593448,-0.611981,-0.5943329,-0.45469263,12.550873756408691,0.8283039331436157,1.896335482597351,1.0508966445922852,-113.66165161132812, -35.909820556640625
603,3203899641,0.24606341,-0.61552584,-0.6032511,-0.44347382,13.006735801696777,-0.21841268241405487,1.8108344078063965,24.6766300201416,-111.53014373779297, -33.99158477783203
604,3203916308,0.23867628,-0.61812556,-0.614076,-0.42879525,13.366459846496582,-0.5830689072608948,1.3362045288085938,56.96574401855469,-116.43580627441406, -32.63398742675781
605,3203932975,0.23091218,-0.6204601,-0.6260335,-0.41205716,13.409460067749023,-0.6622211933135986,2.257357120513916,67.83834838867188,-128.08197021484375, -36.37997817993164
606,3203949642,0.2228672,-0.62267345,-0.6381315,-0.3942034,13.866817474365234,-2.0441598892211914,3.37560772895813,72.04051971435547,-134.18551635742188, -36.59770584106445
607,3203966309,0.21556175,-0.6242387,-0.6506404,-0.37486842,13.700214385986328,-1.7478184700012207,4.283026218414307,83.8088150024414,-136.45399475097656, -37.0207633972168
608,3203982976,0.20869166,-0.6254628,-0.6621427,-0.35610577,13.367666244506836,-1.0211374759674072,7.61896276473999,81.02928161621094,-129.99664306640625, -34.02294158935547
609,3203999643,0.20577316,-0.62679356,-0.671338,-0.33777583,13.037671089172363,-0.12798219919204712,10.84404182434082,91.41633605957031,-106.9321060180664, -18.39653778076172
610,3204016310,0.20696607,-0.6269175,-0.6810928,-0.31662652,14.105398178100586,4.0786542892456055,2.61083722114563,125.30886840820312,-98.57298278808594, -13.740095138549805
611,3204032977,0.20376831,-0.62710524,-0.69151264,-0.29500476,17.38371467590332,12.720637321472168,-8.788322448730469,110.09580993652344,-122.62808227539062, -26.189491271972656
612,3204049644,0.19083373,-0.63036054,-0.6960234,-0.28597146,20.511951446533203,6.778842926025391,-5.308173179626465,-9.070609092712402,-113.15060424804688, -17.47585678100586
613,3204066311,0.17877822,-0.6342481,-0.69552773,-0.28637227,9.27932357788086,3.3164737224578857,12.854676246643066,-60.97069549560547,-63.00008773803711, -3.4112043380737305
614,3204082978,0.17212808,-0.6370527,-0.6915687,-0.29371515,5.607682704925537,-2.3336915969848633,4.4703288078308105,-75.97551727294922,-0.8477722406387329, 8.5631103515625
615,3204099645,0.1754161,-0.6377292,-0.687876,-0.29892716,8.797661781311035,1.7337263822555542,0.7314308881759644,-19.311063766479492,40.960670471191406, 19.756032943725586
616,3204116312,0.18129337,-0.6368392,-0.68280965,-0.3087712,8.160687446594238,3.157762050628662,1.4897135496139526,-30.78877830505371,78.29032135009766, 18.08319664001465
617,3204132979,0.19189833,-0.6347896,-0.6754332,-0.32250205,6.125988006591797,0.6132491230964661,2.9828875064849854,-31.75399398803711,122.74968719482422, 27.957073211669922
618,3204149646,0.20869179,-0.6305392,-0.6667632,-0.33807528,5.386221885681152,1.6648956537246704,2.9031481742858887,-13.270526885986328,166.0449676513672, 34.665855407714844
619,3204166313,0.22785681,-0.6243989,-0.6557959,-0.3579655,6.2496113777160645,2.204430103302002,2.5139007568359375,-25.39874267578125,203.27333068847656, 35.30918502807617
620,3204182980,0.24807566,-0.61659664,-0.64203745,-0.38217172,7.7843217849731445,1.7416728734970093,2.0724778175354004,-44.58830261230469,234.9671173095703, 35.65684127807617
621,3204199647,0.269437,-0.60772705,-0.6249177,-0.40932828,9.086504936218262,-0.15074080228805542,0.24198028445243835,-59.78337097167969,260.9967346191406, 43.16057205200195
622,3204216314,0.2940337,-0.5966193,-0.60691774,-0.43501768,10.356945991516113,0.814391553401947,-2.7743053436279297,-38.322940826416016,276.66705322265625, 48.99555587768555
623,3204232981,0.31957033,-0.58375114,-0.58824277,-0.45943445,11.663890838623047,1.3828998804092407,-3.7803049087524414,-27.654136657714844,282.0426940917969, 49.791500091552734
624,3204249648,0.34475216,-0.5694328,-0.567632,-0.48444414,11.876365661621094,1.2365556955337524,-1.7769972085952759,-34.443450927734375,291.9093322753906, 49.275264739990234
625,3204266315,0.36940598,-0.55433136,-0.54463494,-0.5095378,12.752137184143066,0.9571917057037354,-2.396273612976074,-42.96445083618164,298.5045166015625, 53.59828567504883
626,3204282982,0.3940064,-0.53790927,-0.52090347,-0.5329844,13.947219848632812,2.486236333847046,-1.9244400262832642,-36.254207611083984,298.62054443359375, 55.434932708740234
627,3204299649,0.41669622,-0.5211408,-0.49504825,-0.5565104,14.86492919921875,3.053316593170166,-1.4794327020645142,-50.48617935180664,299.215576171875, 54.8549919128418
628,3204316316,0.43693006,-0.50499773,-0.46664098,-0.57992756,15.715432167053223,2.2175209522247314,-2.446669101715088,-70.5189437866211,295.5281066894531, 57.06668472290039
629,3204332983,0.45567822,-0.48954397,-0.43685898,-0.60154676,16.10065460205078,1.3984026908874512,-2.7465803623199463,-77.51060485839844,286.11474609375, 63.52066421508789
630,3204349650,0.4720969,-0.475584,-0.40564454,-0.6216083,16.0308837890625,1.5150210857391357,-2.502439498901367,-91.32752227783203,272.44378662109375, 68.04148864746094
631,3204366317,0.48554274,-0.4639189,-0.37252346,-0.6405106,15.975802421569824,1.7196775674819946,-2.333595037460327,-113.46484375,257.0352783203125, 71.70511627197266
632,3204382984,0.4965619,-0.45449853,-0.33820125,-0.65763015,15.984843254089355,0.9778839945793152,-2.4781603813171387,-129.47218322753906,239.5772247314453, 76.53205871582031
633,3204399651,0.5074687,-0.4458074,-0.30509308,-0.6713043,15.452262878417969,-0.06891658157110214,-4.518700122833252,-118.843505859375,221.4517364501953, 85.67362976074219
634,3204416318,0.5199832,-0.4346195,-0.28064308,-0.6796786,13.997044563293457,3.0979702472686768,-6.056272029876709,-54.11866760253906,190.29200744628906, 79.81214141845703
635,3204432985,0.5305949,-0.4234956,-0.26478285,-0.6848436,11.349541664123535,4.886088848114014,-9.83639907836914,-13.740562438964844,146.45457458496094, 56.97216796875
636,3204449652,0.53738946,-0.41549328,-0.2601247,-0.6862311,9.460113525390625,6.947165489196777,-11.709659576416016,23.318300247192383,73.44463348388672, 26.023740768432617
637,3204466319,0.53712106,-0.41517875,-0.26247868,-0.68573505,9.512205123901367,7.118167877197266,-11.634716987609863,11.102043151855469,-6.2261433601379395, -6.404946804046631
638,3204482986,0.5307694,-0.42115963,-0.26970813,-0.68422663,10.68768310546875,6.161540985107422,-9.24781608581543,-4.784848213195801,-67.27711486816406, -33.690738677978516
639,3204499653,0.5197022,-0.43101394,-0.28032193,-0.6823168,11.721495628356934,5.37714958190918,-7.212406158447266,-15.98420524597168,-107.32857513427734, -56.8405647277832
640,3204516320,0.5047452,-0.44359517,-0.2922768,-0.6804632,12.757255554199219,4.386446475982666,-6.008094787597656,-31.136817932128906,-131.8826904296875, -73.83956909179688
641,3204532987,0.48515216,-0.45919293,-0.30381596,-0.6793123,13.55247974395752,5.7344770431518555,-5.517040252685547,-59.155914306640625,-151.4178009033203, -90.48771667480469
642,3204549654,0.46405244,-0.47499922,-0.31375477,-0.67866725,15.11794376373291,-0.4507611393928528,7.523212909698486,-73.20850372314453,-148.32504272460938, -93.52694702148438
643,3204566321,0.44846457,-0.48657948,-0.3255945,-0.6753578,14.909059524536133,-4.835548400878906,8.834430694580078,-27.086265563964844,-131.5973663330078, -74.62667846679688
644,3204582988,0.4271546,-0.50233555,-0.33299047,-0.6740293,16.345544815063477,-0.4203163981437683,-4.236117362976074,-84.11324310302734,-143.66226196289062, -83.227294921875
645,3204599655,0.41015893,-0.51392597,-0.3470588,-0.66873026,16.172039031982422,-1.582690954208374,-1.7672810554504395,-16.94915199279785,-147.56480407714844, -84.14888000488281
646,3204616322,0.39711827,-0.5228189,-0.36373633,-0.6607976,11.23254680633545,2.2896242141723633,-1.2484945058822632,22.934690475463867,-142.2604522705078, -74.26107788085938
647,3204632989,0.38352856,-0.53181094,-0.3758642,-0.6548354,9.668359756469727,4.726773262023926,-0.14722537994384766,-4.925039291381836,-124.51739501953125, -65.49732971191406
648,3204649656,0.37094957,-0.53978056,-0.3845317,-0.6505144,9.622066497802734,5.048374652862549,0.7788100242614746,-18.3796443939209,-102.17483520507812, -55.15668487548828
649,3204666323,0.35988438,-0.54656094,-0.39136603,-0.6469829,11.244159698486328,3.7222886085510254,-0.012511402368545532,-20.028303146362305,-85.29065704345703, -46.63372802734375
650,3204682990,0.3523014,-0.55206615,-0.3987526,-0.64195263,12.26892375946045,-0.05854055657982826,-1.3286157846450806,2.7014060020446777,-77.26288604736328, -32.88774871826172
651,3204699657,0.34955946,-0.55570304,-0.40851903,-0.6341251,11.781469345092773,-1.5203443765640259,-0.9972233772277832,43.7942008972168,-72.10177612304688, -18.980545043945312
652,3204716324,0.34814084,-0.5580606,-0.4185009,-0.62627757,10.78219985961914,1.1361603736877441,-0.010586492717266083,52.943687438964844,-63.396018981933594, -17.715084075927734
653,3204732991,0.34647048,-0.5599131,-0.4266721,-0.6200054,10.316795349121094,1.1407021284103394,0.9940199851989746,40.87020492553711,-51.59804916381836, -17.12820816040039
654,3204749658,0.3448254,-0.5617115,-0.4333332,-0.614653,10.38231086730957,0.09474674612283707,0.8371546268463135,31.97766876220703,-44.2294921875, -13.605555534362793
655,3204766325,0.34428933,-0.5631668,-0.44033426,-0.6086164,10.27251148223877,0.5093008279800415,0.26894938945770264,40.56515121459961,-43.00017547607422, -9.710806846618652
656,3204782992,0.34572065,-0.56412345,-0.4489349,-0.6005827,10.212541580200195,0.3943975865840912,1.1208363771438599,62.12123489379883,-46.5343132019043, -4.524963855743408
657,3204799659,0.34937793,-0.5643395,-0.46053526,-0.5893753,10.163078308105469,1.26492440700531,1.3599638938903809,94.72074127197266,-56.135066986083984, -1.7918896675109863
658,3204816326,0.35359856,-0.5640013,-0.4749363,-0.5755919,10.468838691711426,1.546581506729126,1.0272940397262573,117.76773834228516,-68.92903900146484, -6.004587650299072
659,3204832993,0.35772312,-0.5636324,-0.48913985,-0.5613333,11.190740585327148,-0.10384218394756317,2.7744953632354736,118.25990295410156,-70.57550048828125, -4.616549491882324
660,3204849660,0.36059117,-0.56402844,-0.5022358,-0.5473621,10.625524520874023,0.39900466799736023,0.8496884107589722,106.29174041748047,-74.07832336425781, -3.404872179031372
661,3204866327,0.36128914,-0.5654096,-0.51417977,-0.5342299,10.068944931030273,0.424785315990448,1.3467729091644287,88.21553802490234,-79.27346801757812, -5.849859237670898
662,3204882994,0.35846052,-0.5681353,-0.52421016,-0.5233851,9.788836479187012,1.6917001008987427,1.940154790878296,56.06304168701172,-83.15790557861328, -12.344050407409668
663,3204899661,0.3518079,-0.572619,-0.53199655,-0.51509064,9.58345890045166,1.3990235328674316,1.2297438383102417,19.54594612121582,-87.92303466796875, -17.293081283569336
664,3204916328,0.3434275,-0.57739073,-0.53993464,-0.50709796,9.778785705566406,0.8193365335464478,0.8944684267044067,9.291851997375488,-95.09459686279297, -21.573266983032227
665,3204932995,0.3337369,-0.5822532,-0.54822046,-0.4990546,10.074028968811035,1.1516149044036865,0.717591404914856,5.449281692504883,-101.40856170654297, -27.1237735748291
666,3204949662,0.32197016,-0.5875683,-0.5560705,-0.4918176,10.800139427185059,1.6544239521026611,0.5069479942321777,-8.23314380645752,-106.66960144042969, -32.733768463134766
667,3204966329,0.30934352,-0.59316194,-0.563324,-0.4849039,10.831094741821289,0.6816765666007996,0.17322102189064026,-15.436653137207031,-108.41123962402344, -32.89628982543945
668,3204982996,0.29683608,-0.5987356,-0.57064766,-0.4772478,10.991975784301758,1.0293774604797363,-0.06207364797592163,-11.253089904785156,-111.058349609375, -31.857410430908203
669,3204999663,0.28336072,-0.6041991,-0.57754844,-0.4701999,11.08505630493164,1.763988971710205,0.5373356342315674,-18.37062644958496,-111.14595031738281, -35.4422607421875
670,3205016330,0.2697742,-0.6095928,-0.58394414,-0.46327934,11.489370346069336,0.995171308517456,0.5120151042938232,-20.04221534729004,-109.72293853759766, -35.301910400390625
671,3205032997,0.25795075,-0.6142819,-0.59129125,-0.45441595,11.891481399536133,-0.5928846001625061,0.7906128168106079,-0.4963461756706238,-110.46623229980469, -32.94806671142578
672,3205049664,0.24807443,-0.6182054,-0.5997389,-0.4433896,12.667328834533691,-0.9608895182609558,1.2849602699279785,21.32023811340332,-111.42464447021484, -30.882715225219727
673,3205066331,0.23950312,-0.62147176,-0.60940194,-0.43016326,13.275741577148438,-1.5310616493225098,2.0026447772979736,40.764373779296875,-115.67627716064453, -31.129776000976562
674,3205082998,0.23115462,-0.62401664,-0.6204751,-0.4149477,13.546154022216797,-0.8601794838905334,2.2072319984436035,55.40621566772461,-123.68153381347656, -36.354496002197266
675,3205099665,0.22167698,-0.62649214,-0.63228714,-0.39822078,14.107185363769531,-0.8654380440711975,2.6400437355041504,59.23423385620117,-136.2292022705078, -40.72649383544922
676,3205116332,0.21170132,-0.62874126,-0.6443642,-0.3803442,15.00235366821289,-1.3227574825286865,3.9982433319091797,63.16607666015625,-143.4270477294922, -42.54348373413086
677,3205132999,0.20327173,-0.6299913,-0.6571755,-0.36043307,15.09961986541748,-0.9848653078079224,6.190872669219971,82.25120544433594,-144.18646240234375, -43.22270202636719
678,3205149666,0.19576618,-0.63216984,-0.6677507,-0.34080225,14.865281105041504,0.6280572414398193,8.411687850952148,80.71385192871094,-136.73455810546875, -37.52404022216797
679,3205166333,0.18948415,-0.63508636,-0.67394185,-0.32644102,14.918107032775879,1.8883261680603027,11.1975679397583,50.67230224609375,-104.3757553100586, -21.479236602783203
680,3205183000,0.18503362,-0.6362329,-0.6830968,-0.30716315,14.317791938781738,8.245546340942383,-0.5268800258636475,89.7995834350586,-118.21410369873047, -30.551883697509766
681,3205199667,0.17717634,-0.63839316,-0.69131535,-0.2883501,17.326244354248047,9.126105308532715,-7.784414291381836,69.20832061767578,-133.5828399658203, -29.6358642578125
682,3205216334,0.16597177,-0.6404085,-0.6962365,-0.2785415,16.66063690185547,6.144309043884277,-1.6098755598068237,4.148696422576904,-106.9073486328125, -22.353862762451172
683,3205233001,0.1567976,-0.64339596,-0.69489074,-0.28032702,9.63851547241211,-0.4778885543346405,14.188053131103516,-55.40374755859375,-41.11920166015625, 0.5398799180984497
684,3205249668,0.1598537,-0.645293,-0.6925424,-0.28005204,5.2159600257873535,-3.35532546043396,4.092339038848877,7.818215370178223,10.97838306427002, 25.466848373413086
685,3205266335,0.1702659,-0.6443164,-0.6905684,-0.28103617,7.886158466339111,3.0235702991485596,1.898978352546692,38.24055099487305,56.63386917114258, 22.861282348632812
686,3205283002,0.18171866,-0.64250463,-0.68523264,-0.29089928,6.9248151779174805,2.4929463863372803,3.2173376083374023,-4.787817478179932,106.35051727294922, 25.472238540649414
687,3205299669,0.19813173,-0.6389889,-0.67771566,-0.30518636,5.229501724243164,0.5056272149085999,3.5360283851623535,-5.9237565994262695,155.2976837158203, 31.52016258239746
688,3205316336,0.21848643,-0.63330907,-0.6682212,-0.32351774,5.951114177703857,1.8120383024215698,3.865602493286133,-8.670127868652344,198.61585998535156, 32.90771484375
