PacketCounter,SampleTimeFine,Quat_W,Quat_X,Quat_Y,Quat_Z,Acc_X,Acc_Y,Acc_Z,Gyr_X,Gyr_Y,Gyr_Z 
1,220797919,0.47578108,-0.5640098,-0.28366843,-0.61241937,0,0,0,0,0, 0
2,220814586,0.47801042,-0.5445431,-0.29701102,-0.62190306,17.980104446411133,1.48035728931427,-3.563100814819336,114.34320831298828,417.713623046875, 134.63204956054688
3,220831253,0.4708324,-0.53632313,-0.3201135,-0.6230586,21.632505416870117,0.030205994844436646,-5.141287326812744,93.73748016357422,414.6460876464844, 139.5167999267578
4,220847920,0.46866527,-0.53778857,-0.33673236,-0.6146118,24.40160369873047,-0.220048189163208,-6.710270881652832,89.63399505615234,400.5977783203125, 135.00160217285156
5,220864587,0.46710154,-0.54566616,-0.34620243,-0.60349685,23.372562408447266,-0.1522102952003479,-8.603653907775879,58.176456451416016,368.013427734375, 123.91911315917969
6,220881254,0.4632626,-0.55763626,-0.35295507,-0.5914833,21.26041603088379,-2.538849353790283,-11.027565002441406,34.05479431152344,315.89544677734375, 107.32660675048828
7,220897921,0.4685172,-0.56672883,-0.365378,-0.57079697,19.447311401367188,-0.6744174957275391,-15.902902603149414,132.6692657470703,270.8776550292969, 89.28822326660156
8,220914588,0.46720308,-0.5815523,-0.3839662,-0.5441399,14.536635398864746,4.303432464599609,-22.287572860717773,135.60202026367188,190.7735595703125, 60.930171966552734
9,220931255,0.4419877,-0.61028117,-0.41000283,-0.51390815,6.653996467590332,8.350844383239746,-24.509483337402344,38.85266876220703,59.30863571166992, 22.600772857666016
10,220947922,0.3926271,-0.6477032,-0.441493,-0.48104972,7.142367839813232,2.881241798400879,-22.22636604309082,-56.98899459838867,-65.4329833984375, -9.38753604888916
11,220964589,0.34022978,-0.6807825,-0.4785529,-0.43791088,12.274984359741211,1.6563851833343506,-18.2103271484375,-14.350017547607422,-153.28233337402344, -37.67508316040039
12,220981256,0.2902993,-0.70748883,-0.5131031,-0.3897581,15.574533462524414,-0.7246479988098145,-11.473236083984375,11.574762344360352,-204.90203857421875, -44.4181022644043
13,220997923,0.24882665,-0.7284924,-0.53333265,-0.3506289,20.41208267211914,-12.908463478088379,27.24849510192871,-18.33119773864746,-169.88063049316406, -10.80374526977539
14,221014590,0.22941041,-0.7413269,-0.5406268,-0.32485074,7.674436092376709,1.4466712474822998,17.22297477722168,-6.642186164855957,-148.28790283203125, 10.742454528808594
15,221031257,0.20884891,-0.74866813,-0.54799145,-0.3091661,18.89209747314453,5.0691447257995605,-17.375028610229492,-36.835166931152344,-158.37811279296875, -25.965803146362305
16,221047924,0.19119713,-0.7539464,-0.55874944,-0.2877633,23.15353012084961,-0.05926518887281418,0.484863817691803,17.5625057220459,-185.3682861328125, -30.758275985717773
17,221064591,0.16703497,-0.760882,-0.5623667,-0.27731183,10.762977600097656,-0.44548213481903076,0.446656733751297,-76.1783218383789,-186.4987335205078, -19.161102294921875
18,221081258,0.15029489,-0.76608837,-0.5655843,-0.26577178,11.060286521911621,-7.0002241134643555,-6.990691184997559,-34.10755920410156,-171.01800537109375, -12.13955020904541
19,221097925,0.14709452,-0.76853126,-0.57056504,-0.24935678,8.896307945251465,-4.648177623748779,-4.32843017578125,50.00661849975586,-142.15115356445312, -10.694084167480469
20,221114592,0.14619346,-0.7700473,-0.5741949,-0.23654836,9.192347526550293,-3.2033166885375977,-2.0758397579193115,40.74964141845703,-112.19819641113281, -9.799964904785156
21,221131259,0.14653063,-0.7702346,-0.57762396,-0.22719646,11.021538734436035,-1.2736575603485107,0.20171864330768585,32.33078384399414,-89.38619995117188, -16.19862937927246
22,221147926,0.14531638,-0.7694506,-0.5809242,-0.22216284,11.95042896270752,-0.25724276900291443,-0.3756703734397888,8.464749336242676,-76.1592025756836, -25.50855255126953
23,221164593,0.14611319,-0.76821065,-0.584147,-0.2174299,12.818147659301758,-2.864379405975342,-0.4577328562736511,19.960073471069336,-69.97014617919922, -23.085548400878906
24,221181260,0.15075992,-0.7658142,-0.58820987,-0.21168229,11.068808555603027,0.7901884317398071,0.17439264059066772,45.89060974121094,-62.68973922729492, -25.453554153442383
25,221197927,0.15609956,-0.7633015,-0.5918091,-0.20679866,11.100744247436523,-2.234963893890381,-0.16352209448814392,47.92173385620117,-56.31578063964844, -21.419645309448242
26,221214594,0.16525194,-0.75965244,-0.5962236,-0.20034404,9.604414939880371,-1.3435542583465576,-0.11791621148586273,76.39495086669922,-49.204811096191406, -22.46577262878418
27,221231261,0.17482506,-0.75580144,-0.600295,-0.19454214,10.157605171203613,-2.6028220653533936,0.16962718963623047,76.089599609375,-42.919517517089844, -20.278453826904297
28,221247928,0.1838171,-0.7519901,-0.60413903,-0.18904588,9.700667381286621,-2.2172865867614746,1.3732120990753174,71.05677795410156,-43.278900146484375, -19.255098342895508
29,221264595,0.18936223,-0.748891,-0.60726464,-0.18583319,9.16783618927002,-2.1652448177337646,1.3672584295272827,41.81929016113281,-45.50948715209961, -19.18189239501953
30,221281262,0.1913146,-0.7471045,-0.60929537,-0.18437149,9.420682907104492,-1.584735631942749,1.3556174039840698,12.865490913391113,-50.998252868652344, -14.611418724060059
31,221297929,0.18979432,-0.74659777,-0.6103004,-0.18467088,9.146688461303711,-1.8212661743164062,0.9292861223220825,-15.099126815795898,-56.06962966918945, -10.58807373046875
32,221314596,0.1866804,-0.7467688,-0.6109142,-0.1851235,9.306617736816406,-1.6836549043655396,0.3966922163963318,-25.210824966430664,-61.327484130859375, -8.22010326385498
33,221331263,0.18256727,-0.7472672,-0.6115422,-0.18514057,9.76968765258789,-1.6485084295272827,0.247951477766037,-28.770526885986328,-67.1480712890625, -7.889289379119873
34,221347930,0.17686519,-0.74827087,-0.61207235,-0.18487008,9.788744926452637,-1.673008680343628,0.042022399604320526,-36.325233459472656,-74.96541595458984, -7.231347560882568
35,221364597,0.16929066,-0.75007665,-0.61222917,-0.1841231,9.540766716003418,-1.4862892627716064,0.17359787225723267,-45.29779815673828,-84.98181915283203, -4.120948791503906
36,221381264,0.15926774,-0.7526824,-0.6121361,-0.1827359,9.64267349243164,-0.9667166471481323,-0.3344270586967468,-56.35787582397461,-98.39432525634766, -2.2546470165252686
37,221397931,0.14460315,-0.756722,-0.6110369,-0.18192182,9.8162202835083,-2.391841173171997,-0.15750351548194885,-85.37159729003906,-114.72021484375, 1.9450852870941162
38,221414598,0.1291299,-0.76059633,-0.6104551,-0.17934152,11.231481552124023,-0.4820168614387512,-1.7830073833465576,-81.67839050292969,-126.79850006103516, -1.5758198499679565
39,221431265,0.11389588,-0.76336586,-0.6115318,-0.1741527,12.062355995178223,-0.3145788609981537,-0.5458158254623413,-66.04224395751953,-138.99595642089844, -12.73675537109375
40,221447932,0.10060095,-0.7652137,-0.6138333,-0.16594052,12.487373352050781,-0.6727977395057678,-0.5666332244873047,-40.47004318237305,-146.52346801757812, -18.561010360717773
41,221464599,0.08801699,-0.76612514,-0.6172636,-0.15585634,13.500757217407227,-1.4302242994308472,-0.4106811285018921,-26.493919372558594,-153.183349609375, -26.398542404174805
42,221481266,0.07342139,-0.7669599,-0.6205783,-0.14582315,13.929140090942383,-0.959447979927063,0.03243142366409302,-37.19662857055664,-161.68235778808594, -28.445066452026367
43,221497933,0.05242322,-0.7798014,-0.60835415,-0.13808255,15.5261812210083,-1.3856618404388428,0.8180519342422485,-63.33798599243164,-171.25930786132812, -29.243919372558594
44,221514600,0.02827181,-0.7890263,-0.5994141,-0.13168527,17.3201847076416,0.011818531900644302,2.6129674911499023,-99.10072326660156,-177.0518798828125, -24.902029037475586
45,221531267,0.0001372816,-0.78992116,-0.5992722,-0.12999065,19.91880989074707,1.4057718515396118,5.3378376960754395,-153.3987274169922,-171.945556640625, -28.794681549072266
46,221547934,-0.032878034,-0.78924143,-0.59826285,-0.13453186,25.75428581237793,1.6107887029647827,8.368049621582031,-205.3112030029297,-158.38723754882812, -37.10651779174805
47,221564601,-0.06801555,-0.78719866,-0.59686846,-0.13942885,24.934528350830078,-6.092906475067139,11.452756881713867,-217.72604370117188,-166.5765838623047, -45.663822174072266
48,221581268,-0.09514268,-0.78349894,-0.5988681,-0.13577338,22.547077178955078,-8.785188674926758,5.154110431671143,-137.0481414794922,-178.85231018066406, -70.22802734375
49,221597935,-0.11230658,-0.77865034,-0.6034296,-0.13024405,23.37433624267578,-19.913372039794922,11.171338081359863,-74.88020324707031,-146.4365692138672, -82.5749740600586
50,221614602,-0.120730564,-0.77656436,-0.60524184,-0.12670594,13.199029922485352,-13.319664001464844,4.26366662979126,-39.27047348022461,-105.69291687011719, -48.34558868408203
51,221631269,-0.1358033,-0.7754292,-0.6034431,-0.12697864,10.78887939453125,-7.117721080780029,-6.022768020629883,-94.81511688232422,-116.02681732177734, -28.253406524658203
52,221647936,-0.14158638,-0.776331,-0.60040665,-0.12952022,11.767064094543457,-6.702143669128418,-5.648253917694092,-55.311466217041016,-66.8629379272461, -3.35007643699646
53,221664603,-0.12999013,-0.77798676,-0.60081697,-0.12983933,8.459720611572266,-5.837813854217529,11.140317916870117,49.36798095703125,-3.514451742172241, -4.867210865020752
54,221681270,-0.11645918,-0.77863294,-0.5999668,-0.14215527,3.5169765949249268,-0.27024006843566895,8.581021308898926,8.747037887573242,69.43515014648438, 10.984590530395508
55,221697937,-0.09749643,-0.7796458,-0.5979173,-0.15856263,3.8413987159729004,-2.0607008934020996,1.7867852449417114,21.471256256103516,114.2977523803711, 28.269195556640625
56,221714604,-0.066749975,-0.7822478,-0.594111,-0.17511454,5.2452287673950195,-6.149270534515381,-0.10468025505542755,83.69405364990234,162.23992919921875, 58.19319152832031
57,221731271,-0.02469453,-0.7842119,-0.58953726,-0.19195859,5.214242458343506,-1.5716578960418701,1.5276224613189697,141.7417449951172,211.57127380371094, 74.79749298095703
58,221747938,0.016421683,-0.78348005,-0.5823689,-0.21618432,6.042935371398926,-1.4272470474243164,2.221292734146118,103.2765884399414,251.69607543945312, 79.23616027832031
59,221764605,0.060179293,-0.7804045,-0.57202053,-0.24523398,6.4276299476623535,-2.4479758739471436,2.1532647609710693,94.16597747802734,293.0262145996094, 91.23495483398438
60,221781272,0.103931695,-0.7746425,-0.5579953,-0.2788702,8.195694923400879,-0.5065912008285522,2.6625635623931885,72.59951782226562,330.3202819824219, 100.79447937011719
61,221797939,0.14532372,-0.7661378,-0.53997993,-0.31675828,11.20377254486084,-0.0035001160576939583,0.6395677328109741,41.0021858215332,363.83551025390625, 107.74079132080078
62,221814606,0.18654576,-0.7550558,-0.5179426,-0.35612774,13.021716117858887,-0.33230483531951904,-0.961546778678894,30.755149841308594,390.3194885253906, 120.5755844116211
63,221831273,0.22765334,-0.7419757,-0.4911651,-0.3954782,15.575843811035156,0.7985516786575317,-2.6659348011016846,22.51029396057129,406.77740478515625, 139.73831176757812
64,221847940,0.26858976,-0.7261427,-0.46089464,-0.43376565,18.406503677368164,1.7803412675857544,-3.2543370723724365,20.75642967224121,417.03204345703125, 150.58338928222656
65,221864607,0.31011388,-0.70672166,-0.42982098,-0.46864483,22.798233032226562,0.7898188233375549,-4.786564826965332,39.10325241088867,415.7942810058594, 151.91282653808594
66,221881274,0.35304675,-0.68318284,-0.40171874,-0.49723366,24.827699661254883,-1.5015817880630493,-7.134428024291992,83.08634948730469,397.2374572753906, 143.59027099609375
67,221897941,0.39220324,-0.6590191,-0.37604195,-0.5200605,24.55803680419922,-0.854252278804779,-9.81769847869873,91.14061737060547,356.5002746582031, 131.6881561279297
68,221914608,0.4266689,-0.6364842,-0.35521862,-0.5354075,20.679838180541992,-4.3364081382751465,-13.870780944824219,102.24275207519531,291.8808288574219, 117.38745880126953
69,221931275,0.46548128,-0.6080393,-0.34758976,-0.54110706,19.01638412475586,3.081439733505249,-18.947311401367188,210.77220153808594,243.61891174316406, 89.5248031616211
70,221947942,0.4891106,-0.5894496,-0.34371153,-0.5433071,11.807701110839844,7.764986991882324,-24.815624237060547,138.13711547851562,144.19781494140625, 52.172340393066406
71,221964609,0.48808727,-0.59137344,-0.33972156,-0.5446445,5.215545654296875,7.082442283630371,-24.490774154663086,-29.08387565612793,6.385045528411865, 12.000687599182129
72,221981276,0.47336462,-0.6052143,-0.34162825,-0.54123175,8.841509819030762,0.7798343896865845,-21.40263557434082,-91.5848159790039,-109.20996856689453, -19.448745727539062
73,221997943,0.4569489,-0.61972535,-0.35456178,-0.53049433,14.254803657531738,0.6830505132675171,-16.222782135009766,-42.53919982910156,-181.99925231933594, -46.24001693725586
74,222014610,0.43943045,-0.63595325,-0.36694533,-0.5175092,19.042491912841797,-6.534267902374268,4.7700653076171875,-49.18250274658203,-198.79653930664062, -36.677616119384766
75,222031277,0.43308395,-0.64695394,-0.3745157,-0.50361377,14.54065990447998,-13.054339408874512,35.5940055847168,0.6364121437072754,-141.63169860839844, 13.61977481842041
76,222047944,0.43105933,-0.6524753,-0.3909947,-0.485373,8.497530937194824,7.682273864746094,-7.02330207824707,78.05091094970703,-157.80157470703125, -12.316936492919922
77,222064611,0.42618912,-0.6577261,-0.4091177,-0.46731377,27.11320686340332,5.19600772857666,-8.892477989196777,71.15415954589844,-168.54379272460938, -30.375736236572266
78,222081278,0.40749815,-0.67267495,-0.41943932,-0.45334777,13.905377388000488,1.0758490562438965,3.7113494873046875,-56.33252716064453,-197.18040466308594, -24.14592742919922
79,222097945,0.3907539,-0.6876411,-0.42707095,-0.4382597,10.273387908935547,-10.3255615234375,-5.963002681732178,-52.53843688964844,-189.34010314941406, -2.440300226211548
80,222114612,0.39016637,-0.69129336,-0.44309527,-0.4165936,9.662397384643555,-2.45725679397583,-4.166103839874268,98.8439712524414,-161.41966247558594, -9.080812454223633
81,222131279,0.38478953,-0.6965074,-0.4533454,-0.4016125,7.768590927124023,-5.007155895233154,-3.4454240798950195,34.97672653198242,-133.20274353027344, -8.540513038635254
82,222147946,0.3813473,-0.6993517,-0.46233225,-0.38952592,9.256108283996582,-3.9181158542633057,-0.08617126196622849,37.986934661865234,-103.4208984375, -12.224215507507324
83,222164613,0.37524495,-0.70207757,-0.46936256,-0.38206953,11.794954299926758,0.8981257677078247,0.5596770644187927,5.534579277038574,-84.201416015625, -22.470754623413086
84,222181280,0.36728555,-0.70553446,-0.47510377,-0.37629625,13.945204734802246,-2.2981162071228027,-0.9971120953559875,-14.126814842224121,-80.71114349365234, -23.08001136779785
85,222197947,0.36508405,-0.7057741,-0.48353297,-0.3671409,12.249235153198242,-0.11119694262742996,0.2575942575931549,39.92594528198242,-76.81085205078125, -23.188575744628906
86,222214614,0.36207893,-0.7060177,-0.49136257,-0.35916677,10.344193458557129,-0.8697466254234314,-0.6667406558990479,30.578495025634766,-72.2929916381836, -25.24227523803711
87,222231281,0.363379,-0.7037621,-0.50089675,-0.34896588,10.1270751953125,-1.8532154560089111,-0.38124388456344604,69.43268585205078,-66.64745330810547, -25.778623580932617
88,222247948,0.36582476,-0.7008769,-0.5104024,-0.33827987,10.130315780639648,-0.9562028050422668,-0.6230580806732178,78.14958190917969,-63.485740661621094, -23.850561141967773
89,222264615,0.36773843,-0.6981842,-0.5191434,-0.32832533,10.479586601257324,-2.022782325744629,0.4824024438858032,70.75347900390625,-60.36790466308594, -22.558462142944336
90,222281282,0.36693215,-0.6970958,-0.5262321,-0.3201531,9.488404273986816,-2.195056915283203,0.6042295694351196,43.54375076293945,-60.99359130859375, -19.550127029418945
91,222297949,0.36196172,-0.69862664,-0.5309482,-0.31464064,9.461702346801758,-2.1626269817352295,0.40039604902267456,2.121845006942749,-63.113182067871094, -14.582768440246582
92,222314616,0.35488582,-0.70186704,-0.534469,-0.30948582,9.103473663330078,-1.8562712669372559,-0.07669097930192947,-16.146400451660156,-69.8259506225586, -8.0509614944458
93,222331283,0.346443,-0.70594555,-0.53761697,-0.30428007,9.60622787475586,-1.493371605873108,0.24149996042251587,-25.39841079711914,-75.98306274414062, -5.960953235626221
94,222347950,0.33697808,-0.71058756,-0.54023343,-0.299431,9.705160140991211,-1.90724515914917,-0.27888306975364685,-34.13512420654297,-77.96631622314453, -4.286945819854736
95,222364617,0.32687706,-0.7155196,-0.54264903,-0.29447478,9.596345901489258,-1.6987804174423218,-0.27973562479019165,-37.935298919677734,-81.00367736816406, -3.2953591346740723
96,222381284,0.3165875,-0.7205031,-0.54517645,-0.28884348,9.337689399719238,-1.4473565816879272,-0.391193687915802,-36.23788070678711,-85.40406036376953, -2.5210318565368652
97,222397951,0.3047614,-0.72606874,-0.5474626,-0.28324783,9.33224105834961,-1.9943552017211914,-0.2338973730802536,-45.73222732543945,-91.6372299194336, -2.2751705646514893
98,222414618,0.2934834,-0.7312558,-0.54987866,-0.27706715,10.096308708190918,-0.45758071541786194,-1.3735225200653076,-39.7562141418457,-92.05284881591797, -2.0619852542877197
99,222431285,0.28180444,-0.7359243,-0.5535245,-0.26946744,10.59985637664795,0.4156598448753357,-1.108865737915039,-33.00851058959961,-102.21794128417969, -8.101500511169434
100,222447952,0.27104712,-0.73998016,-0.5579611,-0.2600817,11.231606483459473,0.6274939775466919,-1.6505095958709717,-18.884292602539062,-108.17498779296875, -9.25108814239502
101,222464619,0.26045975,-0.74306893,-0.56392395,-0.24899632,11.707076072692871,-1.0231332778930664,-1.8835580348968506,-6.952911853790283,-117.31999969482422, -17.241683959960938
102,222481286,0.24893652,-0.7462875,-0.56991494,-0.23723981,12.293415069580078,-1.9257214069366455,-1.3267085552215576,-9.317974090576172,-124.68949127197266, -17.281320571899414
103,222497953,0.2347657,-0.7498744,-0.57596576,-0.22547032,12.835648536682129,-2.310642957687378,-0.9792690873146057,-23.39635467529297,-135.88804626464844, -20.449527740478516
104,222514620,0.21463087,-0.7602192,-0.5737238,-0.21642885,13.96733283996582,-2.14341139793396,-0.4294712245464325,-45.42756652832031,-148.8092041015625, -22.672826766967773
105,222531287,0.19064285,-0.7693224,-0.5733507,-0.20752664,15.341590881347656,-1.0386680364608765,0.4094914197921753,-78.55713653564453,-161.21107482910156, -23.91712188720703
106,222547954,0.16299029,-0.776844,-0.5743129,-0.20028082,17.45339012145996,0.9439571499824524,4.2249579429626465,-113.5342788696289,-164.36508178710938, -27.537691116333008
107,222564621,0.13098037,-0.7817991,-0.5771627,-0.19625986,21.685396194458008,0.9061064720153809,3.8067545890808105,-157.25131225585938,-162.0800018310547, -35.84311294555664
108,222581288,0.097587205,-0.78579855,-0.57904226,-0.19418426,25.731510162353516,-1.5965198278427124,10.964481353759766,-172.8405303955078,-155.14865112304688, -38.08437728881836
109,222597955,0.06816223,-0.788257,-0.58150584,-0.18935676,23.837953567504883,-3.9353506565093994,8.352892875671387,-138.6297607421875,-152.8338165283203, -40.31250762939453
110,222614622,0.03759383,-0.78708476,-0.588286,-0.18167058,22.777313232421875,-9.40625286102295,5.648675918579102,-126.10392761230469,-170.426025390625, -78.47594451904297
111,222631289,0.0198362,-0.7851408,-0.59401256,-0.17409639,21.74831199645996,-22.537302017211914,11.30130386352539,-58.41987228393555,-116.9355697631836, -60.02210998535156
112,222647956,-0.00020100249,-0.78402543,-0.59860754,-0.16423488,13.081727027893066,-7.833438396453857,-1.2444238662719727,-63.100006103515625,-139.63841247558594, -53.08806228637695
113,222664623,-0.021967085,-0.7839904,-0.599676,-0.15895054,13.87045955657959,-7.82309103012085,-4.9891438484191895,-95.30885314941406,-123.30144500732422, -31.623363494873047
114,222681290,-0.03557345,-0.7842094,-0.59907514,-0.15766844,10.379261016845703,-6.335800647735596,-0.0364077091217041,-69.69229888916016,-68.61073303222656, -12.107640266418457
115,222697957,-0.03708767,-0.7835839,-0.59927773,-0.1596465,9.312675476074219,-4.79796838760376,14.811150550842285,-17.29691505432129,-0.09424202889204025, -6.035203456878662
116,222714624,-0.036825802,-0.78227264,-0.59733653,-0.17286602,3.8567681312561035,-0.38034576177597046,8.872156143188477,-56.53428268432617,67.97186279296875, 7.483400344848633
117,222731291,-0.032971267,-0.7815143,-0.59271836,-0.19192088,4.75511360168457,-2.327603340148926,2.7760419845581055,-64.1384048461914,112.86837005615234, 29.895509719848633
118,222747958,-0.011608068,-0.7816546,-0.58784974,-0.20812036,5.9438252449035645,-5.184838771820068,0.9448812007904053,41.47811508178711,167.71859741210938, 57.36555862426758
119,222764625,0.023266643,-0.78079396,-0.5832117,-0.22289863,5.493008613586426,-1.4792170524597168,2.4452109336853027,120.07766723632812,216.20530700683594, 71.3240966796875
120,222781292,0.060802396,-0.7781593,-0.57608736,-0.24268202,6.049783706665039,-1.4258053302764893,2.6372311115264893,110.81199645996094,256.953857421875, 80.90357971191406
121,222797959,0.10305123,-0.77302265,-0.56654984,-0.2661538,6.56061315536499,-1.991056203842163,2.7985708713531494,118.50475311279297,300.6952819824219, 90.30680084228516
122,222814626,0.14820485,-0.7650549,-0.55373955,-0.29342598,8.634242057800293,-1.98055899143219,1.9859189987182617,115.21078491210938,339.8814697265625, 99.37373352050781
123,222831293,0.19733936,-0.75341547,-0.53793734,-0.3225614,11.52548885345459,-1.5719746351242065,0.286544531583786,126.8193588256836,375.4602355957031, 107.33598327636719
124,222847960,0.247495,-0.7384873,-0.5177805,-0.35395786,14.241083145141602,-0.766115665435791,-1.1878212690353394,118.58877563476562,404.29052734375, 116.99346160888672
125,222864627,0.29722598,-0.7208615,-0.49231166,-0.38683954,17.241487503051758,0.24772167205810547,-2.6810402870178223,102.83533477783203,426.04833984375, 130.86715698242188
126,222881294,0.34591064,-0.7001559,-0.46270427,-0.41956195,21.15705108642578,0.7427721619606018,-3.5371031761169434,93.4985122680664,438.47601318359375, 138.56509399414062
127,222897961,0.39411974,-0.67567015,-0.4315823,-0.44930664,25.66335105895996,-1.2628191709518433,-5.096561908721924,105.33607482910156,437.21875, 139.60662841796875
128,222914628,0.4399913,-0.64889264,-0.40059033,-0.47420818,26.697887420654297,-3.3367836475372314,-7.719003677368164,115.46929168701172,414.5646057128906, 138.1468048095703
129,222931295,0.47929755,-0.6231571,-0.37157696,-0.49384186,25.527400970458984,-0.5791679620742798,-11.478721618652344,103.97686767578125,363.65228271484375, 126.72551727294922
130,222947962,0.51225805,-0.5976467,-0.34932575,-0.5083128,22.815475463867188,-1.6555144786834717,-17.976417541503906,112.2156982421875,302.4047546386719, 93.83152770996094
131,222964629,0.5442469,-0.56978506,-0.33870804,-0.5142153,16.295373916625977,3.2986714839935303,-26.082351684570312,177.8228759765625,232.35169982910156, 67.19794464111328
132,222981296,0.55493873,-0.5588936,-0.33534625,-0.5169371,5.975980758666992,9.140953063964844,-30.493173599243164,64.0030517578125,83.43717193603516, 14.959250450134277
133,222997963,0.542995,-0.56978494,-0.3357213,-0.51748705,5.340661525726318,2.9128990173339844,-27.82944107055664,-87.71456146240234,-68.42884063720703, -21.231887817382812
134,223014630,0.5251034,-0.58486813,-0.34787786,-0.51105475,11.63000774383545,0.546245276927948,-22.28904914855957,-68.56204986572266,-168.16140747070312, -52.776309967041016
135,223031297,0.5054186,-0.60145605,-0.3625044,-0.5013915,19.200807571411133,-9.205463409423828,0.6428505778312683,-64.74217987060547,-199.4900360107422, -53.73091506958008
136,223047964,0.49175525,-0.61723673,-0.36786875,-0.4918013,15.301440238952637,-12.512808799743652,32.274471282958984,-69.19682312011719,-149.33360290527344, 2.9878337383270264
137,223064631,0.47606143,-0.6322788,-0.37575993,-0.4820722,11.07674503326416,4.013072967529297,-9.501311302185059,-66.55059051513672,-161.65252685546875, -16.14080238342285
138,223081298,0.46663386,-0.6407401,-0.39289057,-0.4661996,25.955415725708008,0.7937105298042297,-7.871344566345215,28.75505828857422,-180.53094482421875, -32.36506271362305
139,223097965,0.44814715,-0.6552266,-0.4046779,-0.45395833,12.672416687011719,7.039989948272705,4.629777908325195,-57.40638732910156,-191.1643829345703, -33.18124008178711
140,223114632,0.42483583,-0.6741805,-0.40868333,-0.4449419,11.325103759765625,-9.508646011352539,-7.952472686767578,-126.17784118652344,-180.17355346679688, -10.60254955291748
141,223131299,0.422398,-0.6792604,-0.424148,-0.42459872,12.341872215270996,-3.7445781230926514,-3.9606919288635254,77.99628448486328,-165.01084899902344, -5.876641273498535
142,223147966,0.41394565,-0.6866241,-0.43424958,-0.41063818,9.700647354125977,-0.7282620072364807,-0.7467358112335205,8.988829612731934,-143.85557556152344, -10.304465293884277
143,223164633,0.40571976,-0.69284,-0.44206968,-0.3999234,10.294779777526855,-3.3866512775421143,-1.692346453666687,-2.818331480026245,-118.18146514892578, -11.562931060791016
144,223181300,0.39901957,-0.69717723,-0.44938442,-0.3908722,11.232288360595703,0.4952634274959564,-1.2947702407836914,3.2240805625915527,-99.09588623046875, -15.340384483337402
145,223197967,0.39285284,-0.7004896,-0.45596516,-0.383506,11.484135627746582,-2.8386964797973633,-1.6775600910186768,1.4131604433059692,-84.66043090820312, -18.157745361328125
146,223214634,0.38948718,-0.7011957,-0.46358404,-0.37644988,11.49505615234375,-1.2174733877182007,-0.3253718614578247,23.691070556640625,-70.37129211425781, -24.79867172241211
147,223231301,0.388818,-0.6998698,-0.4718754,-0.36923766,10.430839538574219,-2.892693281173706,-1.255778193473816,44.35939025878906,-59.13887405395508, -27.119062423706055
148,223247968,0.39287978,-0.6957603,-0.4815254,-0.36013386,10.041110038757324,-3.3157434463500977,-0.6576666831970215,84.1344985961914,-49.50495147705078, -25.637670516967773
149,223264635,0.3999216,-0.6897563,-0.49177837,-0.349933,9.464305877685547,-2.826934576034546,-1.0932329893112183,108.61441040039062,-41.87495422363281, -24.47203826904297
150,223281302,0.40790176,-0.6831167,-0.5018089,-0.33934608,9.541169166564941,-3.0229339599609375,0.02109556831419468,115.5679931640625,-38.42822265625, -22.256629943847656
151,223297969,0.41317767,-0.67810243,-0.51009387,-0.33055335,9.099759101867676,-1.5878138542175293,0.1615351289510727,88.0240478515625,-38.27846908569336, -19.800006866455078
152,223314636,0.41528934,-0.67531353,-0.51652277,-0.32355893,9.761554718017578,-1.1350667476654053,0.45264071226119995,56.415035247802734,-40.822818756103516, -15.633069038391113
153,223331303,0.41379866,-0.6752492,-0.52087843,-0.31858268,9.026790618896484,0.8261483311653137,1.1904590129852295,20.123842239379883,-44.43901062011719, -10.093451499938965
154,223347970,0.41010165,-0.6769449,-0.524417,-0.31392515,10.851685523986816,-3.267047882080078,-0.42238542437553406,1.9477046728134155,-52.4470100402832, -5.704221248626709
155,223364637,0.40459368,-0.68010527,-0.52711165,-0.30970058,8.6898193359375,-0.421326607465744,1.1597113609313965,-14.011896133422852,-57.78923416137695, -1.6400911808013916
156,223381304,0.39832652,-0.6837788,-0.5299607,-0.30483472,9.52981185913086,-2.2928149700164795,0.0477684885263443,-16.339160919189453,-65.11354064941406, -0.3222128450870514
157,223397971,0.3901563,-0.6884267,-0.5325774,-0.3003471,9.620570182800293,-1.7834234237670898,0.5956835746765137,-29.832887649536133,-71.7183837890625, -0.7129831314086914
158,223414638,0.38022926,-0.6942157,-0.5348195,-0.29573378,9.802968978881836,-0.9994331002235413,-0.3955897092819214,-41.534156799316406,-80.15132904052734, 1.9434001445770264
159,223431305,0.36784944,-0.70141685,-0.53656906,-0.29119614,10.106675148010254,-0.24697788059711456,-0.5800632238388062,-58.214759826660156,-90.43544006347656, 4.30552339553833
160,223447972,0.35310602,-0.70977926,-0.5384036,-0.28574693,10.527621269226074,-0.6593849062919617,-0.7940071821212769,-69.01317596435547,-106.13782501220703, 5.762562274932861
161,223464639,0.33553907,-0.71947515,-0.53995657,-0.27967113,11.412301063537598,-2.497426986694336,-1.1758875846862793,-84.26253509521484,-121.63790130615234, 8.04775619506836
162,223481306,0.31803775,-0.7276997,-0.5441675,-0.27053088,12.123311996459961,-0.5801916122436523,-0.6627073287963867,-64.07254028320312,-139.91766357421875, -3.3862693309783936
163,223497973,0.3008168,-0.73541564,-0.54918784,-0.25897086,13.090950965881348,-1.0676729679107666,-0.553122878074646,-50.99531936645508,-151.8802947998047, -3.5199642181396484
164,223514640,0.28321177,-0.7418968,-0.5555864,-0.24638243,13.895479202270508,-1.3758970499038696,0.006814420223236084,-44.048580169677734,-159.28326416015625, -13.705491065979004
165,223531307,0.26288125,-0.7508323,-0.5584113,-0.23520446,14.813121795654297,-1.554592490196228,-0.6724811792373657,-52.96303939819336,-164.41436767578125, -15.944957733154297
166,223547974,0.23951626,-0.75988466,-0.5607012,-0.22543639,15.5689058303833,-0.7034754157066345,0.41486436128616333,-79.56886291503906,-166.9330291748047, -17.309452056884766
167,223564641,0.21259663,-0.7689339,-0.5619799,-0.21845417,16.788999557495117,0.8918479681015015,2.7366092205047607,-115.38458251953125,-163.2458953857422, -17.831029891967773
168,223581308,0.18192908,-0.7763672,-0.5637125,-0.21536978,19.46337890625,1.0644546747207642,4.321300983428955,-158.9576873779297,-153.53244018554688, -22.669784545898438
169,223597975,0.14821151,-0.7829181,-0.5643621,-0.21579657,24.658843994140625,-0.40429770946502686,8.279973030090332,-189.34130859375,-144.2245635986328, -29.283903121948242
170,223614642,0.11302446,-0.787906,-0.56575847,-0.21528369,23.535491943359375,-6.802006244659424,10.096511840820312,-190.91531372070312,-153.82760620117188, -40.71703338623047
171,223631309,0.08447962,-0.78988504,-0.57130826,-0.20628081,22.611085891723633,-10.770820617675781,5.193177223205566,-113.4974136352539,-173.13580322265625, -58.67588806152344
172,223647976,0.05984053,-0.78861046,-0.5776536,-0.20206216,21.95134735107422,-15.42902946472168,14.55782413482666,-108.20161437988281,-127.962158203125, -73.2059555053711
173,223664643,0.035041645,-0.7879986,-0.58040947,-0.20237385,11.911720275878906,-11.664791107177734,0.5314275026321411,-132.520263671875,-103.84992980957031, -53.44053268432617
174,223681310,0.0062411674,-0.7899416,-0.57864714,-0.20278288,11.490245819091797,-11.240974426269531,-9.448861122131348,-161.6708221435547,-121.79267120361328, -24.549245834350586
175,223697977,-0.007774344,-0.79221964,-0.57582086,-0.20188642,11.702714920043945,-6.880338191986084,-3.719622850418091,-77.87615966796875,-70.42145538330078, 3.0844204425811768
176,223714644,-0.011508746,-0.7925711,-0.57429737,-0.20464922,9.164671897888184,-4.661680221557617,14.48572826385498,-34.766693115234375,-7.063770294189453, 2.748734951019287
177,223731311,-0.012681808,-0.79200906,-0.5701474,-0.21792884,3.572113513946533,-0.5369820594787598,8.415725708007812,-66.07060241699219,61.341190338134766, 17.818140029907227
178,223747978,-0.0069049927,-0.79165745,-0.56462926,-0.23329121,5.035829544067383,-2.9318418502807617,1.9249460697174072,-38.33204650878906,99.56197357177734, 36.669525146484375
179,223764645,0.019015491,-0.79189557,-0.559679,-0.24351476,6.124398708343506,-6.631263256072998,1.7444231510162354,92.21283721923828,148.93360900878906, 67.95048522949219
180,223781312,0.058696233,-0.7901104,-0.5551805,-0.2530907,5.555532455444336,-0.18468615412712097,4.031200885772705,170.62106323242188,201.74319458007812, 80.90087890625
181,223797979,0.09622488,-0.7862173,-0.5469251,-0.2710647,6.192076206207275,-0.4012733995914459,3.855112314224243,121.26531219482422,244.42758178710938, 86.27498626708984
182,223814646,0.13758433,-0.77981955,-0.53575724,-0.2931151,6.698694229125977,-2.700195550918579,2.769239664077759,122.97026062011719,287.6142272949219, 97.17078399658203
183,223831313,0.18234797,-0.7703717,-0.5213563,-0.31853497,9.050130844116211,-0.9048555493354797,2.3959617614746094,125.23361206054688,327.606689453125, 107.04068756103516
184,223847980,0.2279009,-0.75788146,-0.5028159,-0.34763953,11.228675842285156,-0.5221365094184875,0.21387818455696106,111.01988983154297,361.966064453125, 115.2725601196289
185,223864647,0.27586526,-0.7419533,-0.47995815,-0.3782116,13.59228801727295,0.5845611095428467,-0.9047072529792786,123.9851303100586,392.92242431640625, 121.41239166259766
186,223881314,0.32398918,-0.72160333,-0.4538959,-0.41024184,16.680044174194336,2.0425491333007812,-1.9567286968231201,109.79196166992188,418.8387451171875, 128.9469451904297
187,223897981,0.36898872,-0.6987279,-0.4228506,-0.44364846,20.36777687072754,1.7436392307281494,-2.805769443511963,81.6063232421875,434.3077087402344, 134.03746032714844
188,223914648,0.41284546,-0.6722713,-0.3906521,-0.4743427,24.175073623657227,-0.43152642250061035,-5.294672966003418,89.6163558959961,431.9555969238281, 132.6781768798828
189,223931315,0.4550259,-0.64250606,-0.35997346,-0.5005565,25.554166793823242,-1.153120994567871,-7.441581726074219,108.28901672363281,413.394775390625, 124.10735321044922
190,223947982,0.48769665,-0.6163681,-0.3284769,-0.5237799,24.835771560668945,-2.2433393001556396,-9.813584327697754,59.514129638671875,366.909423828125, 113.3969497680664
191,223964649,0.5202702,-0.58871305,-0.30585656,-0.5377618,22.02497100830078,-3.782665729522705,-16.10993194580078,117.09877014160156,303.4999084472656, 103.06301879882812
192,223981316,0.5496295,-0.55965054,-0.2938141,-0.5462345,18.192787170410156,4.850864887237549,-22.056371688842773,159.92735290527344,242.21234130859375, 65.1580581665039
193,223997983,0.5616323,-0.54647446,-0.2867268,-0.55111045,7.163054466247559,6.91410493850708,-28.215206146240234,59.06696319580078,115.38908386230469, 26.755462646484375
194,224014650,0.55218196,-0.5559353,-0.28319213,-0.5530219,4.718229293823242,3.2563228607177734,-25.66051483154297,-89.4975357055664,-37.00186538696289, -11.658893585205078
195,224031317,0.53630865,-0.5722438,-0.2917571,-0.5475288,10.54322338104248,-0.8497531414031982,-21.54640769958496,-79.50776672363281,-149.3752899169922, -40.81663131713867
196,224047984,0.5211056,-0.58817214,-0.30987218,-0.5352402,15.429889678955078,-2.515315294265747,-12.213059425354004,-25.771013259887695,-208.2414093017578, -51.557342529296875
197,224064651,0.50990856,-0.602945,-0.32265097,-0.5218688,20.046913146972656,-14.82120418548584,26.98681640625,-22.712383270263672,-180.56024169921875, -13.820378303527832
198,224081318,0.5069267,-0.61128676,-0.33917797,-0.50429386,8.309908866882324,1.5620732307434082,9.696345329284668,56.51833724975586,-170.41937255859375, 0.3670012354850769
199,224097985,0.50066763,-0.6186272,-0.35809675,-0.48826137,21.940570831298828,7.556868553161621,-14.263008117675781,50.883060455322266,-176.68658447265625, -28.744977951049805
200,224114652,0.48886284,-0.63068765,-0.37605947,-0.4709837,20.8919620513916,2.817854642868042,3.6067049503326416,10.982365608215332,-207.9677734375, -27.20071792602539
201,224131319,0.46999273,-0.6494232,-0.38513815,-0.45719263,9.01833724975586,-6.9015960693359375,-5.954326629638672,-79.89348602294922,-203.0269317626953, -5.927786350250244
202,224147986,0.46700123,-0.6561261,-0.40136933,-0.43624702,11.633106231689453,-7.858125686645508,-6.249851703643799,71.35116577148438,-178.17037963867188, 3.183809757232666
203,224164653,0.46499923,-0.6603828,-0.4155945,-0.4182724,7.912113666534424,-4.385796546936035,-3.8300182819366455,69.44955444335938,-148.225341796875, -1.2168077230453491
204,224181320,0.46563783,-0.66148955,-0.42817092,-0.4028436,9.14729118347168,-4.1505632400512695,-1.6719443798065186,79.48078918457031,-114.7997817993164, -3.352125883102417
205,224197987,0.46142742,-0.6637363,-0.4375806,-0.3937795,11.406543731689453,-0.48305097222328186,-0.1414395421743393,26.23851776123047,-93.20558166503906, -19.452987670898438
206,224214654,0.4563288,-0.66561896,-0.4464799,-0.38648593,13.187142372131348,-0.08099346607923508,-2.07462477684021,16.61385726928711,-85.29061889648438, -26.215923309326172
207,224231321,0.4557045,-0.66454285,-0.45670328,-0.37701282,13.390926361083984,-0.16148900985717773,-0.45006924867630005,56.580265045166016,-77.88965606689453, -22.593936920166016
208,224247988,0.45378494,-0.664282,-0.46529555,-0.36920005,12.155945777893066,2.2887022495269775,0.23644328117370605,38.65626907348633,-71.46952819824219, -21.108104705810547
209,224264655,0.45227996,-0.6643062,-0.47249442,-0.36178607,10.233024597167969,-1.5255029201507568,-0.7998713254928589,34.850128173828125,-64.79722595214844, -13.957839965820312
210,224281322,0.45485842,-0.6617091,-0.48056072,-0.35257134,9.808746337890625,-1.190643548965454,-0.3831360936164856,69.64676666259766,-55.99826431274414, -10.684080123901367
211,224297989,0.45775896,-0.65876335,-0.48797277,-0.34405005,9.98481559753418,-2.551936388015747,-0.4137621223926544,68.3106918334961,-48.95328903198242, -10.245658874511719
212,224314656,0.45954168,-0.656229,-0.49465123,-0.33690515,9.319811820983887,-2.917018413543701,0.5971285700798035,55.57588195800781,-45.199249267578125, -12.534433364868164
213,224331323,0.45670554,-0.65705544,-0.49870744,-0.3331504,9.094289779663086,-3.070279359817505,0.3931812345981598,6.483757019042969,-45.190792083740234, -10.705320358276367
214,224347990,0.45152333,-0.6597499,-0.501363,-0.33089566,9.13276195526123,-1.9762812852859497,0.3662506937980652,-18.359270095825195,-46.41330337524414, -8.079764366149902
215,224364657,0.44533148,-0.66346455,-0.5034551,-0.3286759,9.538286209106445,-1.7158143520355225,0.04307360202074051,-27.52842903137207,-50.37907791137695, -4.418203353881836
216,224381324,0.43849874,-0.66748995,-0.50576836,-0.32615116,9.729438781738281,-1.3595645427703857,0.25737154483795166,-29.862037658691406,-55.43719482421875, -4.865098476409912
217,224397991,0.4308187,-0.672215,-0.50811315,-0.3230225,9.719255447387695,-1.7489423751831055,-0.14501556754112244,-33.70085906982422,-62.89445877075195, -2.6508851051330566
218,224414658,0.4219486,-0.6778587,-0.51044494,-0.31923836,9.342747688293457,-1.3714983463287354,-0.2989402413368225,-39.674049377441406,-72.15052032470703, -0.08480566740036011
219,224431325,0.4100266,-0.68573517,-0.5119373,-0.31554052,8.995564460754395,-2.3575353622436523,0.13384850323200226,-62.52963638305664,-84.98889923095703, 4.713927268981934
220,224447992,0.39474073,-0.69601357,-0.5124904,-0.31160653,9.298395156860352,-2.664796829223633,-0.9424639344215393,-86.3911361694336,-100.57877349853516, 10.942870140075684
221,224464659,0.37852255,-0.7058932,-0.514809,-0.30562595,10.650096893310547,-0.06565595418214798,-0.7664446830749512,-78.797119140625,-117.65353393554688, 4.618660926818848
222,224481326,0.36307094,-0.71495205,-0.51843315,-0.29706946,11.664703369140625,0.8409094214439392,-1.248623013496399,-61.06908416748047,-129.1958770751953, 3.712040901184082
223,224497993,0.3494201,-0.7216266,-0.52450174,-0.28645894,12.642327308654785,-0.07506659626960754,-1.3420004844665527,-33.92696762084961,-134.19378662109375, -7.958698749542236
224,224514660,0.33678815,-0.7270191,-0.5316077,-0.27460945,13.047747611999512,-1.5106456279754639,-1.1160391569137573,-19.26554298400879,-136.74148559570312, -12.718323707580566
225,224531327,0.3224644,-0.7326047,-0.53872085,-0.26284465,13.341385841369629,-1.8544353246688843,-0.5892280340194702,-28.47243881225586,-143.00904846191406, -15.433948516845703
226,224547994,0.30372038,-0.7407787,-0.5429604,-0.25336742,14.347399711608887,-1.270782232284546,-0.23525196313858032,-52.170833587646484,-151.20391845703125, -19.221744537353516
227,224564661,0.28005964,-0.7502909,-0.5462776,-0.24537969,16.00680160522461,0.059301842004060745,0.8523409962654114,-90.30950927734375,-161.5221710205078, -19.860063552856445
228,224581328,0.25159478,-0.75955963,-0.54995304,-0.23941788,18.32025718688965,1.3933911323547363,5.084042549133301,-136.39031982421875,-165.80923461914062, -21.298635482788086
229,224597995,0.21875145,-0.7686928,-0.5518883,-0.23807299,22.231651306152344,1.1526024341583252,6.255575656890869,-179.34237670898438,-155.384765625, -27.955062866210938
230,224614662,0.18394299,-0.77700776,-0.55266476,-0.2387172,26.944120407104492,-1.3995826244354248,10.74992561340332,-197.93873596191406,-149.70286560058594, -31.236934661865234
231,224631329,0.15029722,-0.78353345,-0.5550001,-0.2355013,24.343589782714844,-8.12372875213623,9.293892860412598,-172.27142333984375,-165.55686950683594, -39.75193786621094
232,224647996,0.12295079,-0.78637624,-0.5618951,-0.22532122,24.11713218688965,-12.761106491088867,7.596614360809326,-100.7042465209961,-178.3070068359375, -61.22333526611328
233,224664663,0.10523486,-0.78524977,-0.56920683,-0.21980076,20.781829833984375,-15.560773849487305,15.277183532714844,-62.84429931640625,-110.5963363647461, -68.08524322509766
234,224681330,0.07894335,-0.78652686,-0.57187563,-0.21932161,10.362421035766602,-10.909235954284668,-2.6754231452941895,-137.89947509765625,-117.73207092285156, -50.53437042236328
235,224697997,0.055906277,-0.79051316,-0.569101,-0.2192893,12.107878684997559,-9.568315505981445,-9.318033218383789,-131.94728088378906,-103.64437866210938, -6.027203559875488
236,224714664,0.04185881,-0.7927868,-0.5654063,-0.22372493,10.659192085266113,-5.267269134521484,1.245962142944336,-101.52472686767578,-41.211158752441406, 3.8913936614990234
237,224731331,0.03845043,-0.79230255,-0.56192786,-0.23455338,7.077772617340088,-2.8742001056671143,15.472430229187012,-67.33666229248047,39.1124267578125, 6.359264373779297
238,224747998,0.034894045,-0.7911413,-0.5545278,-0.25568905,1.4802573919296265,0.118833526968956,5.430215358734131,-114.057861328125,96.70287322998047, 21.990665435791016
239,224764665,0.040063035,-0.79025257,-0.54467547,-0.27789345,4.174487113952637,-4.414138317108154,0.21076512336730957,-74.95858001708984,136.04107666015625, 51.3630485534668
240,224781332,0.067522824,-0.78823644,-0.53659457,-0.2935818,5.11765193939209,-5.435131549835205,0.5865708589553833,74.22744750976562,185.91351318359375, 81.86739349365234
241,224797999,0.104855046,-0.78353155,-0.52825147,-0.30989385,5.073533058166504,-0.6587808132171631,2.389247417449951,126.12628936767578,231.38601684570312, 93.0758285522461
242,224814666,0.14365733,-0.7765025,-0.5166251,-0.33091575,5.6148295402526855,-2.5598795413970947,2.2076170444488525,111.69853973388672,269.5483093261719, 102.21484375
243,224831333,0.18816018,-0.7660794,-0.5025935,-0.35372,6.880317687988281,-3.133629322052002,0.9481716752052307,133.74440002441406,309.57733154296875, 114.33737182617188
244,224848000,0.23593809,-0.7520415,-0.48488083,-0.37902176,9.222077369689941,-1.444612979888916,0.020344585180282593,138.1350860595703,347.789306640625, 126.08854675292969
245,224864667,0.28563055,-0.7339559,-0.46327597,-0.40632433,12.368111610412598,-0.3828043043613434,-1.4065907001495361,137.8560791015625,381.5710754394531, 134.60508728027344
246,224881334,0.3356576,-0.7123843,-0.43800265,-0.4335857,14.416742324829102,0.10482726246118546,-3.1801977157592773,136.34373474121094,399.5570068359375, 143.18569946289062
247,224898001,0.38267118,-0.68851364,-0.40832168,-0.46128672,16.988739013671875,1.7039974927902222,-4.28632116317749,112.4704818725586,409.87982177734375, 148.0070037841797
248,224914668,0.4257807,-0.66257733,-0.37655094,-0.4877619,21.472705841064453,1.1132279634475708,-5.0697340965271,96.28953552246094,405.40423583984375, 143.1168670654297
249,224931335,0.46410057,-0.6356064,-0.34446722,-0.511818,24.186357498168945,-0.26421141624450684,-6.966116905212402,82.75580596923828,386.6124267578125, 133.0450439453125
250,224948002,0.4964905,-0.6109983,-0.31086844,-0.53248423,23.08169174194336,-4.029879570007324,-9.031611442565918,52.0347900390625,354.58856201171875, 135.3590850830078
251,224964669,0.5286127,-0.58583206,-0.28347313,-0.5449886,20.87332534790039,-2.636138916015625,-10.86233139038086,93.05744171142578,300.97979736328125, 135.06344604492188
252,224981336,0.557582,-0.55637735,-0.26501325,-0.5561607,20.8830509185791,3.034679889678955,-14.16773796081543,132.14012145996094,273.52056884765625, 83.8562240600586
253,224998003,0.58174974,-0.53126967,-0.2528472,-0.5615942,14.370150566101074,1.2722430229187012,-20.110132217407227,131.73838806152344,202.5845947265625, 71.58904266357422
254,225014670,0.58834076,-0.52440566,-0.24411175,-0.56503415,7.182366847991943,9.899885177612305,-21.96343421936035,11.425525665283203,81.1663589477539, 31.019243240356445
255,225031337,0.5781717,-0.53763926,-0.23853968,-0.56547374,7.078653335571289,0.9342789649963379,-21.3446044921875,-112.8543472290039,-48.10017776489258, 0.6310599446296692
256,225048004,0.5674548,-0.5511217,-0.24843454,-0.55905294,11.356295585632324,0.811197817325592,-16.17844009399414,-44.304569244384766,-136.33804321289062, -30.91792106628418
257,225064671,0.55885583,-0.5629931,-0.26813602,-0.54664624,14.899334907531738,-0.5831722617149353,-9.768159866333008,18.05830955505371,-187.1144561767578, -39.266597747802734
258,225081338,0.5529424,-0.5739615,-0.28478253,-0.5326555,18.839290618896484,-11.420711517333984,19.80233383178711,23.455711364746094,-172.9450225830078, -12.88439655303955
259,225098005,0.55189127,-0.5806103,-0.3012897,-0.5172353,10.698614120483398,1.2696199417114258,13.037955284118652,61.21625518798828,-153.1791534423828, 2.2580208778381348
260,225114672,0.5464924,-0.58793867,-0.31829423,-0.50434405,18.547382354736328,6.718313694000244,-9.78561782836914,37.72665786743164,-156.7256317138672, -23.343111038208008
261,225131339,0.5360035,-0.59965134,-0.3341359,-0.49139792,20.154359817504883,1.3025398254394531,-0.6584056615829468,-3.153554916381836,-178.6768341064453, -26.27448081970215
262,225148006,0.5213322,-0.6163037,-0.34419832,-0.4794896,10.835226058959961,-5.152745723724365,-2.101382255554199,-60.485897064208984,-179.4135284423828, -8.94863510131836
263,225164673,0.51561433,-0.6250976,-0.35832837,-0.46367657,11.029727935791016,-7.96483039855957,-5.446685791015625,28.310686111450195,-163.4511260986328, -1.3667365312576294
264,225181340,0.5158736,-0.6274715,-0.37426168,-0.4473054,8.688956260681152,-3.9353389739990234,-3.4295029640197754,83.91975402832031,-136.9832763671875, -4.060788631439209
265,225198007,0.5169121,-0.627917,-0.3878557,-0.43369347,9.713032722473145,-3.1235721111297607,-1.5914570093154907,79.83460998535156,-108.82860565185547, -6.413064479827881
266,225214674,0.5134953,-0.63029164,-0.39719948,-0.42577857,11.09134292602539,0.274445116519928,0.8864101767539978,25.863420486450195,-86.79837036132812, -16.50303840637207
267,225231341,0.50712866,-0.6348267,-0.40291274,-0.42128047,12.690475463867188,1.2439557313919067,-0.4223264753818512,-14.527144432067871,-73.66173553466797, -15.527506828308105
268,225248008,0.50340915,-0.63786,-0.4088097,-0.4154382,13.519201278686523,-0.9363692402839661,-0.03306224197149277,6.516992092132568,-68.56501770019531, -8.063755989074707
269,225264675,0.50011486,-0.640101,-0.41474733,-0.41004938,11.089232444763184,-0.16746553778648376,0.21206355094909668,9.951854705810547,-63.351036071777344, -10.796707153320312
270,225281342,0.4987576,-0.6408304,-0.42122692,-0.4039127,10.497304916381836,-2.942776918411255,-0.4086775779724121,27.324203491210938,-58.808292388916016, -9.437103271484375
271,225298009,0.5004157,-0.63881284,-0.42916396,-0.39663655,10.039265632629395,-1.0360260009765625,0.4568038880825043,57.35224533081055,-52.534759521484375, -11.573989868164062
272,225314676,0.500077,-0.63776183,-0.4358469,-0.39143392,9.976680755615234,-3.2244620323181152,0.6920863389968872,35.6965446472168,-47.7253532409668, -15.797534942626953
273,225331343,0.49857646,-0.63743955,-0.44160268,-0.38740078,9.366294860839844,-3.620561361312866,0.7912071943283081,22.061233520507812,-44.944183349609375, -16.741378784179688
274,225348010,0.49682608,-0.637381,-0.4472196,-0.38328043,9.317058563232422,-2.0231869220733643,0.9221741557121277,19.920108795166016,-46.40052795410156, -15.751147270202637
275,225364677,0.4942892,-0.63801885,-0.45279187,-0.3789326,9.124932289123535,-2.091458797454834,1.1405686140060425,14.649579048156738,-51.584320068359375, -14.727858543395996
276,225381344,0.49013042,-0.64027196,-0.4580553,-0.37417832,9.156015396118164,-2.298353433609009,1.0733139514923096,2.481898784637451,-61.66443634033203, -11.208478927612305
277,225398011,0.48390418,-0.64425033,-0.46299297,-0.36934528,8.965311050415039,-1.8914523124694824,0.8053255081176758,-13.04958724975586,-71.9478988647461, -9.415229797363281
278,225414678,0.4757517,-0.64991695,-0.46773988,-0.3639889,8.90896987915039,-1.768335223197937,0.39005494117736816,-26.034488677978516,-84.12538146972656, -6.360921859741211
279,225431345,0.46567816,-0.65703315,-0.4726524,-0.35784212,9.009238243103027,-1.3263750076293945,0.1927606463432312,-36.41761779785156,-98.07051086425781, -4.673012733459473
280,225448012,0.45343938,-0.66587603,-0.4772271,-0.3510788,8.983694076538086,-2.142444372177124,-0.023601308465003967,-50.562015533447266,-111.12281799316406, -0.8933154940605164
281,225464679,0.4409261,-0.6743787,-0.48283598,-0.34302682,10.415664672851562,-0.9718778729438782,-0.9872983694076538,-44.04718780517578,-120.38613891601562, -3.4089019298553467
282,225481346,0.4284554,-0.68254876,-0.4888224,-0.3340749,11.038111686706543,-0.3425801992416382,-1.0495319366455078,-38.95926284790039,-124.8311996459961, -3.4257895946502686
283,225498013,0.4161588,-0.6902181,-0.49511164,-0.32446223,11.363739013671875,0.11143716424703598,-1.4086213111877441,-33.740623474121094,-127.15292358398438, -4.161215305328369
284,225514680,0.40446743,-0.69665724,-0.50237846,-0.31415105,12.095414161682129,-0.22710131108760834,-1.4168144464492798,-22.77351188659668,-128.5233154296875, -9.61032485961914
285,225531347,0.39267975,-0.70211124,-0.5108132,-0.3031705,12.22325325012207,-1.2468304634094238,-1.478901743888855,-15.646269798278809,-133.2586669921875, -16.931007385253906
286,225548014,0.37992826,-0.707375,-0.51961726,-0.29201543,12.559586524963379,-3.240981340408325,-0.861913800239563,-18.400259017944336,-138.17076110839844, -20.915769577026367
287,225564681,0.36524993,-0.7132607,-0.52826875,-0.28068453,13.224778175354004,-3.060955047607422,0.14555203914642334,-29.102739334106445,-146.86923217773438, -21.389354705810547
288,225581348,0.34488875,-0.7227226,-0.5334845,-0.2722467,14.370521545410156,-1.9953150749206543,0.6796334385871887,-61.92510986328125,-158.18136596679688, -22.6938533782959
289,225598015,0.31843236,-0.73450845,-0.5367306,-0.26649323,16.507978439331055,-0.16100649535655975,2.8014028072357178,-115.4388198852539,-165.5663299560547, -20.880977630615234
290,225614682,0.28402358,-0.7469813,-0.53881633,-0.26650795,20.247947692871094,3.3753390312194824,5.482054233551025,-197.45712280273438,-159.86337280273438, -28.215312957763672
291,225631349,0.24482463,-0.7594687,-0.5384424,-0.2708287,26.241413116455078,1.2676098346710205,7.4211931228637695,-242.52996826171875,-151.0991668701172, -32.73809051513672
292,225648016,0.20705627,-0.76959723,-0.53828645,-0.27403602,25.499879837036133,-3.439213275909424,10.867527961730957,-226.54605102539062,-148.09524536132812, -38.1795768737793
293,225664683,0.17671274,-0.7753221,-0.54377073,-0.268257,22.477970123291016,-9.785714149475098,4.541204929351807,-137.13699340820312,-168.4241485595703, -57.73809814453125
294,225681350,0.15311001,-0.7768274,-0.5519997,-0.26152056,23.060928344726562,-15.638782501220703,11.096108436584473,-87.57120513916016,-144.2281036376953, -74.78797912597656
295,225698017,0.13282774,-0.7792053,-0.55468005,-0.25985745,14.834020614624023,-13.87074089050293,8.487859725952148,-100.24022674560547,-100.7243881225586, -41.51612091064453
296,225714684,0.10588277,-0.7834702,-0.5543757,-0.26005945,11.167957305908203,-7.737773895263672,-5.920614242553711,-150.3422393798828,-117.02266693115234, -32.231689453125
297,225731351,0.084914766,-0.7880887,-0.54992193,-0.26323342,11.126705169677734,-7.481899261474609,-6.172478199005127,-137.2865753173828,-75.75426483154297, -0.20555971562862396
298,225748018,0.0810409,-0.78917724,-0.54803956,-0.265112,7.690623760223389,-7.28652286529541,6.799219608306885,-33.18451690673828,-13.19087028503418, 4.067155361175537
299,225764685,0.08762332,-0.78736323,-0.54557604,-0.27336445,5.422698020935059,-1.308445930480957,12.845317840576172,0.016642116010189056,66.34244537353516, 11.709217071533203
300,225781352,0.090353094,-0.78538764,-0.53797823,-0.29254436,2.1334218978881836,1.5386172533035278,4.8674139976501465,-71.30389404296875,114.38350677490234, 25.038074493408203
301,225798019,0.097821094,-0.7832559,-0.5266368,-0.31558743,5.4464874267578125,-3.725889205932617,0.267936646938324,-67.33019256591797,155.5692596435547, 51.799320220947266
302,225814686,0.12383884,-0.7792443,-0.5159371,-0.33354315,5.66130256652832,-6.005329132080078,0.41577428579330444,53.64269256591797,199.1204833984375, 85.17882537841797
303,225831353,0.1611305,-0.77162343,-0.5058251,-0.3503933,5.9840850830078125,-1.7951984405517578,2.1163108348846436,122.36170959472656,241.0779266357422, 96.04423522949219
304,225848020,0.19999118,-0.7615542,-0.49225235,-0.3711151,6.570995807647705,-2.20025897026062,1.2494099140167236,111.6350326538086,276.88214111328125, 105.4787368774414
305,225864687,0.2417345,-0.7486567,-0.47513682,-0.39411005,7.421518325805664,-3.9452595710754395,0.7714987993240356,113.91893005371094,310.7309265136719, 118.7696533203125
306,225881354,0.28713977,-0.7322463,-0.4548039,-0.41775557,9.839408874511719,-2.5139989852905273,0.40384113788604736,127.77982330322266,341.01727294921875, 132.7482452392578
307,225898021,0.33266428,-0.7127075,-0.43003228,-0.4432321,13.119242668151855,-1.0729317665100098,-1.043965458869934,116.1028060913086,368.4520568847656, 142.11219787597656
308,225914688,0.37775272,-0.69013315,-0.40141845,-0.46891642,15.539732933044434,-0.42723768949508667,-3.3109729290008545,108.6194839477539,386.331787109375, 150.25840759277344
309,225931355,0.4202061,-0.66561365,-0.36891577,-0.4942537,18.001874923706055,1.1804732084274292,-3.1067614555358887,89.61811828613281,393.9486389160156, 155.86122131347656
310,225948022,0.45850188,-0.640189,-0.33329165,-0.5185084,21.840478897094727,0.6231962442398071,-3.798219680786133,65.37026977539062,390.7158203125, 156.9933624267578
311,225964689,0.49529856,-0.6124579,-0.29781008,-0.5393366,23.93978500366211,-1.2745198011398315,-5.788409233093262,74.44188690185547,380.1932373046875, 156.6959686279297
312,225981356,0.5303185,-0.58392286,-0.26446635,-0.55484587,23.112897872924805,-3.3733859062194824,-7.830796241760254,88.56404113769531,350.1490478515625, 157.72256469726562
313,225998023,0.5617743,-0.5539173,-0.2388452,-0.5661611,22.16139030456543,0.06858006119728088,-10.130342483520508,116.78435516357422,304.6355895996094, 125.84872436523438
314,226014690,0.59425235,-0.5201049,-0.22407606,-0.5710913,20.08343505859375,-1.16115140914917,-17.5101261138916,188.23046875,255.3648223876953, 107.1336898803711
315,226031357,0.62089205,-0.489391,-0.22075784,-0.5711878,13.283319473266602,8.33367919921875,-23.241966247558594,207.26510620117188,170.73753356933594, 67.95435333251953
316,226048024,0.62628603,-0.48449817,-0.21913478,-0.57009405,5.0746917724609375,8.675414085388184,-25.402915954589844,34.120059967041016,26.509233474731445, 23.364234924316406
317,226064691,0.6192653,-0.4963688,-0.22459838,-0.56540626,7.772048473358154,2.3050436973571777,-22.683246612548828,-46.06470489501953,-99.78362274169922, -7.954888343811035
318,226081358,0.6108421,-0.50864196,-0.24494961,-0.5551172,13.26087474822998,0.759233832359314,-17.529037475585938,14.15990924835205,-185.49273681640625, -39.652732849121094
319,226098025,0.6014173,-0.5228939,-0.26411754,-0.5432506,20.11474609375,-7.524272441864014,10.62488079071045,0.6500303745269775,-194.8209686279297, -29.298582077026367
320,226114692,0.5916525,-0.53820735,-0.2747891,-0.5336397,13.681275367736816,1.3871740102767944,23.951946258544922,-40.832820892333984,-156.32962036132812, -7.477331638336182
321,226131359,0.57750666,-0.5564082,-0.28466117,-0.52522755,15.319808006286621,2.5980398654937744,-12.741545677185059,-74.17769622802734,-168.10714721679688, -19.930553436279297
322,226148026,0.56961733,-0.56718564,-0.30463484,-0.5109151,24.64728546142578,-0.8549157381057739,-4.575620174407959,27.39519500732422,-191.38267517089844, -26.944791793823242
323,226164693,0.5534568,-0.5855898,-0.31734613,-0.5000617,11.457793235778809,3.7763476371765137,1.311872959136963,-67.40435028076172,-193.40773010253906, -25.12911033630371
324,226181360,0.5379564,-0.6040067,-0.3260666,-0.48934573,11.4387788772583,-9.44736099243164,-8.805070877075195,-78.79545593261719,-176.36387634277344, -7.163137912750244
325,226198027,0.53606033,-0.6089732,-0.3426069,-0.4737209,10.896140098571777,-3.49528431892395,-4.468583106994629,64.88211059570312,-149.7460479736328, -6.057268142700195
326,226214694,0.53086895,-0.6155075,-0.35370308,-0.4628423,9.626984596252441,-0.6991865038871765,-1.994372844696045,16.4376277923584,-122.62043762207031, -7.878329753875732
327,226231361,0.524621,-0.62180907,-0.36168063,-0.45531693,11.370457649230957,-1.635637640953064,-0.19498251378536224,-5.252246856689453,-98.90803527832031, -10.856245040893555
328,226248028,0.517789,-0.62763274,-0.36794987,-0.45009404,11.77484130859375,-0.5499807596206665,0.07271541655063629,-17.11007308959961,-82.94906616210938, -14.880660057067871
329,226264695,0.5119163,-0.63262475,-0.37332848,-0.44536877,11.949361801147461,-3.4722065925598145,-0.6351363658905029,-14.039010047912598,-72.72967529296875, -11.918069839477539
330,226281362,0.5095666,-0.63376623,-0.3808639,-0.44002822,10.715304374694824,-0.4962387979030609,0.4014425277709961,23.000316619873047,-62.24516677856445, -18.27672004699707
331,226298029,0.5070007,-0.63467866,-0.38777536,-0.43561852,10.829302787780762,-2.8474502563476562,-0.856042206287384,18.50958251953125,-55.98151397705078, -20.069578170776367
332,226314696,0.5072425,-0.63269603,-0.39667737,-0.43017164,9.533690452575684,-2.5490565299987793,-0.4029119610786438,49.553443908691406,-51.36408615112305, -24.50307273864746
333,226331363,0.50844944,-0.6295311,-0.4058854,-0.42476684,9.63686752319336,-2.6869559288024902,-0.4687836170196533,58.63182830810547,-46.19801330566406, -26.41197395324707
334,226348030,0.5104918,-0.6256729,-0.41539276,-0.4187844,9.665648460388184,-3.318427562713623,0.8911420106887817,67.125,-45.465484619140625, -25.245323181152344
335,226364697,0.5108772,-0.62334687,-0.42351428,-0.41361707,9.067855834960938,-2.671917200088501,0.7801497578620911,48.2533073425293,-46.352813720703125, -22.610214233398438
336,226381364,0.50925744,-0.6227948,-0.43091244,-0.40877646,9.292718887329102,-2.2542734146118164,0.5697805881500244,30.38182258605957,-53.403507232666016, -21.244924545288086
337,226398031,0.50538796,-0.6247022,-0.43675166,-0.4044478,8.987045288085938,-1.531856656074524,0.6420652866363525,6.207341194152832,-59.43354797363281, -15.429261207580566
338,226414698,0.49975067,-0.6285233,-0.4415814,-0.40026698,9.542935371398926,-1.2733017206192017,0.32909709215164185,-11.312006950378418,-66.02425384521484, -10.788691520690918
339,226431365,0.4929066,-0.6336732,-0.44612747,-0.39556506,9.567512512207031,-1.603743076324463,0.03894903510808945,-20.308706283569336,-74.72032928466797, -7.060996055603027
340,226448032,0.4852184,-0.63960564,-0.45103028,-0.3899224,9.706246376037598,-1.3201130628585815,-0.16217541694641113,-22.799280166625977,-84.83599853515625, -5.330916881561279
341,226464699,0.4764917,-0.6465059,-0.45605394,-0.3834066,9.360554695129395,-0.8723175525665283,-0.08542843163013458,-27.57352638244629,-94.98069763183594, -2.7342817783355713
342,226481366,0.4664406,-0.6543437,-0.46097806,-0.37651932,9.798237800598145,-0.5794726610183716,-0.8663742542266846,-35.636940002441406,-103.01879119873047, -1.621415615081787
343,226498033,0.45493406,-0.6627713,-0.46591878,-0.36971495,10.518335342407227,-0.8857666850090027,-0.575054943561554,-44.29343795776367,-108.91241455078125, -3.8480594158172607
344,226514700,0.44227627,-0.6716811,-0.47064105,-0.3629509,11.548319816589355,-2.1375339031219482,-0.9710475206375122,-51.7362060546875,-113.05326080322266, -4.353000640869141
345,226531367,0.42915022,-0.6794687,-0.47771233,-0.35488507,11.776130676269531,-1.1890079975128174,-0.5056950449943542,-40.42255401611328,-125.01934814453125, -16.058055877685547
346,226548034,0.4163651,-0.6866202,-0.48593798,-0.34504652,11.779004096984863,-1.2172014713287354,-1.102541446685791,-28.318395614624023,-134.1491241455078, -17.474607467651367
347,226564701,0.4025306,-0.6933623,-0.49552757,-0.33417127,12.720151901245117,-1.028833031654358,-0.775040864944458,-25.400959014892578,-145.5863037109375, -24.804161071777344
348,226581368,0.38501504,-0.70228934,-0.5030123,-0.3248567,14.2589111328125,-1.4888373613357544,-0.7145628929138184,-35.79118728637695,-156.7854461669922, -28.742084503173828
349,226598035,0.36425936,-0.7127533,-0.5093355,-0.31603074,15.681366920471191,-1.6092849969863892,0.09232553839683533,-61.85578536987305,-165.37013244628906, -26.804931640625
350,226614702,0.33894008,-0.725228,-0.5131344,-0.30960795,16.910781860351562,0.8312463760375977,1.6746110916137695,-105.94625854492188,-166.83248901367188, -23.344776153564453
351,226631369,0.30785644,-0.7380521,-0.51552063,-0.30780193,19.425582885742188,3.555368423461914,3.521068572998047,-173.1272430419922,-156.9640655517578, -29.110130310058594
352,226648036,0.2706179,-0.75117487,-0.51474273,-0.31231782,25.853734970092773,2.8573803901672363,8.929962158203125,-234.07467651367188,-141.02197265625, -38.398712158203125
353,226664703,0.23218419,-0.7626404,-0.51326257,-0.31785482,25.016460418701172,-5.6969428062438965,12.037284851074219,-242.26768493652344,-135.7315673828125, -45.183837890625
354,226681370,0.20282316,-0.76927656,-0.51904416,-0.31252187,20.890235900878906,-11.88879680633545,3.189728260040283,-132.8274383544922,-162.389892578125, -63.39544677734375
355,226698037,0.18051878,-0.77125955,-0.52922255,-0.30413038,21.731473922729492,-16.152925491333008,8.322097778320312,-68.8316421508789,-149.88107299804688, -84.14430236816406
356,226714704,0.16405599,-0.77266014,-0.53402966,-0.30148682,14.5718994140625,-12.777462005615234,6.3229851722717285,-69.55284881591797,-90.74996948242188, -53.06010437011719
357,226731371,0.13836502,-0.7770176,-0.5348878,-0.30165192,10.21360969543457,-8.199766159057617,-5.801476955413818,-140.6385955810547,-111.66850280761719, -43.845401763916016
358,226748038,0.11955536,-0.7818374,-0.5318566,-0.3025978,10.331306457519531,-8.880657196044922,-7.860504150390625,-115.4051284790039,-79.36810302734375, -8.063437461853027
359,226764705,0.11666255,-0.7820061,-0.531974,-0.30308455,8.960132598876953,-4.475011825561523,4.4705810546875,-17.97235870361328,-16.462562561035156, -8.679536819458008
360,226781372,0.118187614,-0.7795908,-0.52966255,-0.31261417,4.560345649719238,-0.7704180479049683,11.936385154724121,-30.316286087036133,55.531089782714844, -3.2062175273895264
361,226798039,0.115867704,-0.7779043,-0.52096665,-0.33171287,2.431978225708008,1.1519092321395874,4.524959087371826,-100.01315307617188,96.32998657226562, 17.55668830871582
362,226814706,0.1183557,-0.77629626,-0.50829846,-0.35353762,5.826983451843262,-3.740046262741089,0.4280585050582886,-93.10021209716797,131.20916748046875, 47.821739196777344
363,226831373,0.13981067,-0.7726175,-0.4971291,-0.3692936,5.330776691436768,-6.246748924255371,-0.320212185382843,34.64027786254883,168.9736328125, 83.53951263427734
364,226848040,0.17372115,-0.7658758,-0.4867686,-0.3825068,5.446893692016602,-2.8408758640289307,1.3247357606887817,114.4206314086914,205.0894317626953, 102.8163070678711
365,226864707,0.21116807,-0.75639087,-0.47415784,-0.3980647,5.896935939788818,-2.512873888015747,1.7960267066955566,122.54300689697266,239.17945861816406, 112.05023956298828
366,226881374,0.25161457,-0.7440813,-0.45836422,-0.41585493,6.6085357666015625,-3.822012186050415,1.4950004816055298,126.25122833251953,272.92041015625, 124.43477630615234
367,226898041,0.2957774,-0.72815263,-0.43951622,-0.43489677,8.52088737487793,-2.414086103439331,0.6659131646156311,138.8307342529297,306.6767883300781, 137.15977478027344
368,226914708,0.3425251,-0.7079206,-0.4176539,-0.4550715,11.436254501342773,-1.1481149196624756,-0.20156341791152954,148.09307861328125,339.18133544921875, 144.75424194335938
369,226931375,0.38900355,-0.6843259,-0.39156565,-0.47649834,13.479349136352539,-0.530711829662323,-0.9866044521331787,137.8909912109375,365.0087890625, 151.99314880371094
370,226948042,0.43229073,-0.65926594,-0.36005014,-0.498856,15.420906066894531,1.1734089851379395,-1.4756274223327637,106.49578094482422,380.1820068359375, 160.7604522705078
371,226964709,0.47172347,-0.6324909,-0.32390025,-0.52203566,19.79711151123047,2.068488121032715,-2.538275718688965,76.18351745605469,394.1570129394531, 162.01156616210938
372,226981376,0.5085293,-0.6032141,-0.28645366,-0.54357624,23.621042251586914,0.3948310911655426,-3.810408115386963,71.87789154052734,394.5664978027344, 158.16439819335938
373,226998043,0.5427901,-0.5730237,-0.24903308,-0.5612534,24.98341178894043,-2.5557477474212646,-6.223518371582031,72.23479461669922,377.1521911621094, 160.4584197998047
374,227014710,0.5745066,-0.5411981,-0.21712941,-0.5743709,23.620643615722656,0.5915656685829163,-8.702642440795898,97.47979736328125,340.97607421875, 143.28573608398438
375,227031377,0.60108507,-0.5111446,-0.19213185,-0.5835353,21.293689727783203,-3.8380661010742188,-13.595943450927734,104.6133041381836,284.85626220703125, 115.82435607910156
376,227048044,0.6325085,-0.47213867,-0.18401687,-0.58579516,18.304039001464844,3.4687387943267822,-20.689558029174805,235.7586212158203,233.87033081054688, 92.8369140625
377,227064711,0.64846534,-0.45100698,-0.18271221,-0.5854073,8.320023536682129,10.362298965454102,-26.63909149169922,138.7386474609375,104.91409301757812, 42.85506820678711
378,227081378,0.645263,-0.45808518,-0.18328276,-0.58326775,4.489659786224365,6.682068347930908,-24.136011123657227,-36.507041931152344,-45.66761016845703, 3.516556978225708
379,227098045,0.6354402,-0.47424197,-0.1955927,-0.5771083,10.32055950164795,2.272862672805786,-20.807823181152344,-45.29694366455078,-154.5238037109375, -30.541946411132812
380,227114712,0.62347686,-0.4932356,-0.21351916,-0.56780714,17.945505142211914,-6.675883769989014,-2.8586857318878174,-37.91538619995117,-202.83885192871094, -39.65372085571289
381,227131379,0.61591506,-0.51064,-0.22410311,-0.55648285,18.12687873840332,-10.985414505004883,30.06282615661621,-41.72034454345703,-165.32449340820312, 8.770991325378418
382,227148046,0.6074707,-0.5247615,-0.2399035,-0.5459406,9.205622673034668,6.118612766265869,-5.0980987548828125,-12.365045547485352,-174.17628479003906, -21.456790924072266
383,227164713,0.6007547,-0.5351019,-0.2611793,-0.533428,25.008930206298828,0.433244526386261,-9.189534187316895,33.51848220825195,-186.93931579589844, -32.547218322753906
384,227181380,0.5916155,-0.5486474,-0.28115383,-0.51954764,15.816549301147461,1.6202542781829834,1.371161699295044,9.206754684448242,-202.268310546875, -25.04734992980957
385,227198047,0.57852554,-0.56719196,-0.2935659,-0.50736654,10.759469985961914,-5.593291282653809,-7.474578857421875,-56.305240631103516,-190.61114501953125, -7.762702941894531
386,227214714,0.5745238,-0.57443804,-0.31125912,-0.4930124,11.15829849243164,-3.5462899208068848,-4.643886566162109,47.03834533691406,-162.14706420898438, -10.941349983215332
387,227231381,0.5718444,-0.5793159,-0.3259648,-0.48076433,8.298796653747559,-3.8558154106140137,-3.968006134033203,47.058780670166016,-131.07449340820312, -8.146062850952148
388,227248048,0.5708324,-0.5812552,-0.3384976,-0.4708635,10.725236892700195,-1.245605707168579,0.29227524995803833,52.85310745239258,-99.68412780761719, -9.926342010498047
389,227264715,0.5655546,-0.586123,-0.34610617,-0.465638,12.032261848449707,1.2146419286727905,0.282720685005188,-2.530428886413574,-81.16874694824219, -15.609444618225098
390,227281382,0.5595774,-0.59186983,-0.35144946,-0.46156994,13.24831485748291,-2.1767568588256836,-0.27033549547195435,-18.79349136352539,-72.26844787597656, -11.048296928405762
391,227298049,0.557385,-0.5938544,-0.35885558,-0.45594025,11.889447212219238,-0.11409129947423935,0.5138800144195557,21.39130210876465,-65.54983520507812, -10.517240524291992
392,227314716,0.553784,-0.5970567,-0.36440253,-0.45172706,10.91525650024414,-1.7255514860153198,-0.1788788139820099,1.6282910108566284,-60.033321380615234, -9.735129356384277
393,227331383,0.55221987,-0.59797794,-0.3712094,-0.44685483,9.371235847473145,-2.5244009494781494,-0.5611122846603394,24.222209930419922,-55.426597595214844, -11.80484676361084
394,227348050,0.55243284,-0.5968291,-0.37897956,-0.4415742,9.751411437988281,-2.559041976928711,-0.6784380674362183,43.37250900268555,-49.93016052246094, -14.098238945007324
395,227364717,0.5525083,-0.5951485,-0.38730833,-0.4364922,9.746442794799805,-2.847054958343506,0.9814847707748413,45.98757553100586,-50.034156799316406, -19.006980895996094
396,227381384,0.54962087,-0.59595865,-0.39518312,-0.4319498,9.097526550292969,-3.007479190826416,0.3862627148628235,21.566234588623047,-61.57181167602539, -21.516958236694336
397,227398051,0.5443351,-0.5992555,-0.40217158,-0.42761,9.332413673400879,-2.260047197341919,0.7944934368133545,-0.867851734161377,-71.38533020019531, -19.07288932800293
398,227414718,0.53742063,-0.604642,-0.4081594,-0.42307588,9.211010932922363,-1.5763070583343506,0.8735784292221069,-17.830501556396484,-79.19744110107422, -13.259305953979492
399,227431385,0.52948457,-0.61104536,-0.41388345,-0.41829425,9.296965599060059,-1.8620935678482056,0.5300326943397522,-25.928653717041016,-85.18978881835938, -11.371350288391113
400,227448052,0.52130485,-0.6176876,-0.41963762,-0.41304657,9.254456520080566,-2.554145336151123,0.20261280238628387,-26.425212860107422,-88.74346160888672, -9.833656311035156
401,227464719,0.51335007,-0.6239609,-0.42583096,-0.40720066,9.257262229919434,-1.9417988061904907,0.1281985491514206,-21.191570281982422,-91.25680541992188, -10.009998321533203
402,227481386,0.5050931,-0.63022876,-0.4322505,-0.40106377,9.206968307495117,-1.5035706758499146,-0.5740855932235718,-20.997079849243164,-94.2689208984375, -10.830485343933105
403,227498053,0.49601752,-0.6372924,-0.4378905,-0.39506584,9.582515716552734,-1.866495966911316,-0.9192984104156494,-29.875226974487305,-95.66571807861328, -7.831553936004639
404,227514720,0.48741356,-0.64355206,-0.4439549,-0.3888096,10.656926155090332,0.15291446447372437,-1.794694185256958,-23.143709182739258,-94.71837615966797, -9.961736679077148
405,227531387,0.47861674,-0.6497756,-0.45048293,-0.3818155,11.302698135375977,-0.2700933814048767,-1.6002795696258545,-20.368432998657227,-100.0899887084961, -10.123332977294922
406,227548054,0.46965754,-0.65560883,-0.45774716,-0.37425464,11.81137466430664,0.23971576988697052,-1.8576443195343018,-16.110698699951172,-104.60266876220703, -13.153005599975586
407,227564721,0.45992172,-0.66103005,-0.46654156,-0.3658556,12.004701614379883,-1.5155798196792603,-1.565180778503418,-11.68829345703125,-114.78800964355469, -20.59902572631836
408,227581388,0.44874987,-0.6668616,-0.4760103,-0.3568382,12.666275024414062,-2.750960350036621,-0.7742593884468079,-15.835963249206543,-125.47056579589844, -24.01242446899414
409,227598055,0.4346995,-0.673985,-0.4858502,-0.3474626,13.205347061157227,-2.7658159732818604,-0.01721644401550293,-30.959115982055664,-140.9911346435547, -27.481157302856445
410,227614722,0.41515884,-0.68444943,-0.49328858,-0.34035054,14.574358940124512,-2.443676471710205,0.6212180852890015,-57.107261657714844,-156.58473205566406, -30.145891189575195
411,227631389,0.3908966,-0.6972172,-0.49925363,-0.33441606,16.604331970214844,-0.42618608474731445,2.3308491706848145,-96.69053649902344,-167.26837158203125, -30.184446334838867
412,227648056,0.3605217,-0.71195906,-0.5025411,-0.33255234,19.338050842285156,1.6709871292114258,4.839330196380615,-155.36367797851562,-165.0244598388672, -35.435569763183594
413,227664723,0.32695964,-0.7262911,-0.50443226,-0.33338708,24.88709259033203,1.2112480401992798,7.228220462799072,-197.7038116455078,-154.75592041015625, -38.7799072265625
414,227681390,0.2916017,-0.73984766,-0.5042204,-0.3366835,25.328638076782227,-2.8973817825317383,11.841116905212402,-218.30320739746094,-142.7935791015625, -40.65045166015625
415,227698057,0.26238942,-0.7492193,-0.50993454,-0.33134446,21.427173614501953,-9.684035301208496,4.676565170288086,-135.04971313476562,-168.31753540039062, -53.9355583190918
416,227714724,0.23802081,-0.75343746,-0.52089703,-0.32302424,22.362178802490234,-13.175394058227539,8.529817581176758,-78.5363998413086,-164.85540771484375, -82.92020416259766
417,227731391,0.22533241,-0.75319105,-0.53096634,-0.31623372,18.09786605834961,-15.3948392868042,12.251535415649414,-18.3995418548584,-104.25924682617188, -71.15985870361328
418,227748058,0.20254524,-0.7594269,-0.53219104,-0.31467277,11.451139450073242,-9.441423416137695,0.004912465810775757,-119.35340118408203,-114.97398376464844, -32.13056945800781
419,227764725,0.18004334,-0.7678272,-0.5269526,-0.31677562,10.233198165893555,-7.633240699768066,-6.969700336456299,-148.45460510253906,-90.54224395751953, 4.761031627655029
420,227781392,0.16553621,-0.7722166,-0.5215513,-0.32289904,10.406294822692871,-5.732818126678467,-2.8996150493621826,-116.35536193847656,-31.28514289855957, 3.284336805343628
421,227798059,0.17118438,-0.7707317,-0.5199172,-0.3261207,7.290322780609131,-4.860318660736084,11.036514282226562,16.013856887817383,34.341552734375, 10.133634567260742
422,227814726,0.17850748,-0.768062,-0.5134038,-0.33857417,2.3235626220703125,1.2925125360488892,8.029074668884277,-17.704622268676758,97.42474365234375, 24.55540657043457
423,227831393,0.18554522,-0.7650304,-0.5023641,-0.35767546,4.456892490386963,1.272524356842041,3.0766780376434326,-52.691131591796875,137.91090393066406, 38.360069274902344
424,227848060,0.20169699,-0.76065665,-0.4881537,-0.3773936,6.302627086639404,-5.50233793258667,0.5282815098762512,-12.906830787658691,180.03604125976562, 72.03270721435547
425,227864727,0.23468097,-0.75137687,-0.47562453,-0.39260557,5.697023868560791,-4.063807010650635,0.8584434390068054,101.35678100585938,223.41824340820312, 96.63906860351562
426,227881394,0.27435097,-0.7378223,-0.46188715,-0.40866882,6.432284832000732,-1.8304259777069092,1.8320053815841675,136.72430419921875,263.2189636230469, 105.61370849609375
427,227898061,0.31526256,-0.72103274,-0.44401452,-0.42845353,7.402926445007324,-1.945971131324768,2.683623790740967,125.68277740478516,302.9525451660156, 112.8760986328125
428,227914728,0.35673693,-0.7013632,-0.42165142,-0.45059824,9.169519424438477,-2.4554171562194824,1.677504301071167,114.2713851928711,334.59375, 122.95657348632812
429,227931395,0.4011167,-0.67709416,-0.39634633,-0.47281992,12.023767471313477,-2.0175795555114746,-0.011452257633209229,130.22686767578125,364.898681640625, 132.68553161621094
430,227948062,0.44799367,-0.64720345,-0.3682237,-0.49481392,15.493196487426758,-0.5005862712860107,-2.106555223464966,148.83609008789062,396.79815673828125, 139.33587646484375
431,227964729,0.49403784,-0.61271125,-0.3366612,-0.51688606,18.232574462890625,1.3093698024749756,-2.6219794750213623,147.42591857910156,421.4745788574219, 140.08824157714844
432,227981396,0.5353338,-0.5771669,-0.3005392,-0.5384907,21.581098556518555,0.7468123435974121,-3.5761067867279053,115.8587417602539,427.9653625488281, 141.79010009765625
433,227998063,0.573568,-0.5394433,-0.26468137,-0.55674446,25.099445343017578,-0.3555377721786499,-6.544972896575928,119.63980865478516,415.7518615722656, 137.44981384277344
434,228014730,0.6037629,-0.5032693,-0.2300428,-0.5738214,25.22720718383789,1.417242169380188,-8.802872657775879,90.53770446777344,386.476318359375, 109.80831146240234
435,228031397,0.6263256,-0.47454777,-0.19613321,-0.58655995,22.62036895751953,-5.131776332855225,-12.763541221618652,42.95840072631836,327.5369567871094, 107.2171859741211
436,228048064,0.6503497,-0.44070238,-0.17597066,-0.5931789,20.24370574951172,0.09876647591590881,-18.758989334106445,133.71102905273438,271.72235107421875, 87.80323791503906
437,228064731,0.6663178,-0.41609326,-0.16311681,-0.59689206,13.854842185974121,4.176558971405029,-25.918720245361328,101.50405883789062,183.63803100585938, 57.1710205078125
438,228081398,0.6691623,-0.41190228,-0.15894938,-0.5977403,4.9703168869018555,7.755885124206543,-26.585161209106445,9.500146865844727,37.99558639526367, 14.721904754638672
439,228098065,0.6606764,-0.42708233,-0.1616955,-0.5957869,7.546029567718506,2.6267576217651367,-23.976608276367188,-80.06137084960938,-93.07860565185547, -17.1357364654541
440,228114732,0.64951354,-0.44627208,-0.17647797,-0.58977026,13.040855407714844,0.49195054173469543,-18.605581283569336,-52.07854461669922,-178.48793029785156, -40.38434982299805
441,228131399,0.6374163,-0.46834543,-0.1923298,-0.5808292,18.808837890625,-7.4565935134887695,4.500388145446777,-59.712589263916016,-204.5070037841797, -30.74784278869629
442,228148066,0.6327299,-0.48201692,-0.20555209,-0.57014114,15.214826583862305,-7.357620716094971,34.0401611328125,-7.125649452209473,-155.17625427246094, 3.843250274658203
443,228164733,0.62524563,-0.4953186,-0.22226664,-0.56064713,10.688748359680176,7.965308666229248,-8.966878890991211,-3.0435009002685547,-169.70562744140625, -24.52842903137207
444,228181400,0.61868894,-0.5060084,-0.2435035,-0.5494413,26.44721221923828,0.4082300662994385,-8.73095417022705,31.449813842773438,-183.18997192382812, -32.756858825683594
445,228198067,0.609381,-0.52145356,-0.26181537,-0.53683686,13.230568885803223,0.9958699941635132,2.1513736248016357,-6.899997711181641,-197.71435546875, -18.856197357177734
446,228214734,0.5989776,-0.5387519,-0.27414742,-0.52518153,9.962264060974121,-8.028480529785156,-8.55545425415039,-42.34495162963867,-178.11659240722656, -2.0247697830200195
447,228231401,0.59796524,-0.5432964,-0.29302862,-0.5112737,10.745946884155273,-3.4391748905181885,-4.977392673492432,73.05320739746094,-149.4564666748047, -7.341419696807861
448,228248068,0.59690696,-0.5463911,-0.30857432,-0.49994063,9.527939796447754,-1.9938161373138428,-3.1501402854919434,62.01335144042969,-120.9948501586914, -8.672809600830078
449,228264735,0.5940652,-0.5498893,-0.32002312,-0.4922332,11.788618087768555,0.46428030729293823,0.7713289260864258,31.917129516601562,-95.6891860961914, -13.51248550415039
450,228281402,0.5867902,-0.556993,-0.32655883,-0.48866713,12.208995819091797,0.38742196559906006,0.20558993518352509,-25.336437225341797,-82.00267791748047, -18.875471115112305
451,228298069,0.58049315,-0.5632306,-0.3325772,-0.4849655,12.484914779663086,-2.9527080059051514,-1.1404293775558472,-19.54927635192871,-75.40382385253906, -14.937056541442871
452,228314736,0.5775651,-0.5651642,-0.34117845,-0.4802137,11.127806663513184,-0.14184816181659698,0.7915208339691162,21.68966293334961,-67.7535400390625, -19.386991500854492
453,228331403,0.5734062,-0.5682426,-0.34777203,-0.4768233,10.686567306518555,-2.2931582927703857,-0.3603576719760895,2.51045823097229,-61.25032424926758, -18.351301193237305
454,228348070,0.57246345,-0.56751287,-0.35671595,-0.47219545,9.570412635803223,-2.4495744705200195,-0.4008640646934509,40.7363395690918,-55.23310470581055, -21.26279640197754
455,228364737,0.5730272,-0.56471866,-0.36662215,-0.46724823,9.57005786895752,-2.8230466842651367,-0.8222715854644775,58.62621307373047,-49.92291259765625, -24.009859085083008
456,228381404,0.5747657,-0.56042033,-0.37724102,-0.4618038,9.923164367675781,-3.457150459289551,0.3789055645465851,72.63655090332031,-46.900882720947266, -24.930219650268555
457,228398071,0.57489365,-0.5577719,-0.38625032,-0.45738238,9.179243087768555,-2.660510778427124,1.2835233211517334,52.11527633666992,-46.084877014160156, -23.70688819885254
458,228414738,0.57226926,-0.5584449,-0.39295393,-0.45413077,9.567657470703125,-1.9076178073883057,0.6160160303115845,18.035778045654297,-50.34727478027344, -19.38872718811035
459,228431405,0.56719005,-0.56230927,-0.39768502,-0.45160887,9.391340255737305,-1.299578309059143,0.6371867656707764,-12.101906776428223,-56.473079681396484, -13.747198104858398
460,228448072,0.5605775,-0.5682631,-0.4016674,-0.44887996,9.499677658081055,-1.4513550996780396,0.36626365780830383,-27.957237243652344,-65.134521484375, -9.084705352783203
461,228464739,0.55264974,-0.57570654,-0.40550327,-0.4457664,9.74571704864502,-1.6440701484680176,0.19235357642173767,-38.239925384521484,-74.396728515625, -6.9644951820373535
462,228481406,0.5439673,-0.5838213,-0.4100289,-0.441734,9.866995811462402,-1.7352821826934814,-0.00954805314540863,-39.11051940917969,-84.90843200683594, -6.636532783508301
463,228498073,0.53472817,-0.5921756,-0.415237,-0.4370039,9.69315242767334,-1.3514117002487183,0.035014837980270386,-38.2066650390625,-92.64599609375, -7.778918743133545
464,228514740,0.52443874,-0.601244,-0.4201106,-0.43240836,9.920344352722168,-1.1369858980178833,-0.4197840988636017,-46.503822326660156,-96.11398315429688, -8.019224166870117
465,228531407,0.513019,-0.6111758,-0.42400238,-0.42836663,10.65798568725586,-1.4877933263778687,-0.6963106393814087,-58.810264587402344,-96.21248626708984, -6.805805683135986
466,228548074,0.5013098,-0.62027633,-0.42967227,-0.42347097,11.241276741027832,0.2742997109889984,-0.9131104350090027,-49.37172317504883,-104.56420135498047, -14.531302452087402
467,228564741,0.4900852,-0.62840474,-0.43699613,-0.41708317,11.615093231201172,0.16162505745887756,-0.92686527967453,-34.72145462036133,-112.4632339477539, -17.854249954223633
468,228581408,0.47862682,-0.63545257,-0.44699484,-0.40903798,11.74039363861084,-0.584243655204773,-0.7537583112716675,-19.431861877441406,-126.3432388305664, -27.708911895751953
469,228598075,0.46617857,-0.64296293,-0.4577028,-0.39973074,12.488333702087402,-1.4097267389297485,-0.45539361238479614,-19.402681350708008,-138.6492919921875, -28.012046813964844
470,228614742,0.4509262,-0.65209174,-0.46836975,-0.38996387,13.103988647460938,-1.7623728513717651,0.2621387541294098,-35.65856170654297,-153.96568298339844, -28.987060546875
471,228631409,0.43079072,-0.6640156,-0.4769776,-0.38209337,14.534356117248535,-1.6070863008499146,0.47968876361846924,-59.33942794799805,-167.4317169189453, -30.376232147216797
472,228648076,0.40546533,-0.67879593,-0.4829108,-0.37633926,16.878963470458984,0.8977773189544678,2.7188305854797363,-105.31039428710938,-174.46197509765625, -29.776947021484375
473,228664743,0.37355095,-0.69544756,-0.4858487,-0.3751847,20.421566009521484,2.758051633834839,4.738312721252441,-182.91224670410156,-166.94256591796875, -37.74788284301758
474,228681410,0.3380931,-0.7120924,-0.4856386,-0.3778528,26.294147491455078,0.28500089049339294,8.826467514038086,-220.71998596191406,-152.8765869140625, -41.6092529296875
475,228698077,0.30379802,-0.72671443,-0.48595896,-0.37873045,24.189931869506836,-7.9658989906311035,11.314530372619629,-202.97935485839844,-154.422119140625, -43.82276916503906
476,228714744,0.2766652,-0.7357961,-0.493965,-0.37156317,21.077444076538086,-10.862303733825684,3.3770155906677246,-108.84256744384766,-173.01026916503906, -65.57172393798828
477,228731411,0.25436378,-0.7402596,-0.5044867,-0.36442846,23.121810913085938,-15.564910888671875,7.3151350021362305,-69.45352935791016,-149.82997131347656, -82.02782440185547
478,228748078,0.23898476,-0.7431174,-0.5100008,-0.36133376,16.0981388092041,-12.083823204040527,10.526695251464844,-58.232425689697266,-93.03047180175781, -52.247371673583984
479,228764745,0.21123762,-0.7532962,-0.50514936,-0.3643454,10.247735977172852,-7.061714172363281,-4.0485520362854,-180.86094665527344,-106.845703125, -14.761922836303711
480,228781412,0.18844806,-0.7624339,-0.49634635,-0.36989477,9.220508575439453,-6.577040195465088,-7.949206352233887,-172.5248565673828,-68.08641052246094, 10.54458999633789
481,228798079,0.18342306,-0.76492167,-0.49186265,-0.37325898,7.943145751953125,-8.663938522338867,3.4527766704559326,-52.470584869384766,-7.452413558959961, 13.015798568725586
482,228814746,0.19278008,-0.7617569,-0.489899,-0.377573,4.3166608810424805,-1.0158121585845947,10.021184921264648,33.40299987792969,57.367408752441406, 16.17234992980957
483,228831413,0.1994372,-0.7587232,-0.48122382,-0.39113647,3.025125026702881,1.776512622833252,6.145238876342773,-29.46196746826172,105.07642364501953, 32.47908401489258
484,228848080,0.20780203,-0.75563407,-0.46676493,-0.4098368,5.561302185058594,-2.2998015880584717,2.7903549671173096,-52.96468734741211,145.56263732910156, 60.02943420410156
485,228864747,0.2311017,-0.74895585,-0.45267713,-0.4251364,5.428473472595215,-5.736797332763672,-0.7965080142021179,41.69791793823242,185.3895263671875, 93.4775161743164
486,228881414,0.26729295,-0.73723495,-0.44033828,-0.43719742,5.777773857116699,-3.6824347972869873,0.416307657957077,131.22557067871094,220.85870361328125, 111.56332397460938
487,228898081,0.30781245,-0.72155464,-0.4255827,-0.4510984,7.404486179351807,-1.8479975461959839,1.6257877349853516,147.57794189453125,259.65570068359375, 121.49938201904297
488,228914748,0.34844688,-0.7029787,-0.406229,-0.46838433,7.897934436798096,-2.196669101715088,1.865950584411621,130.0949249267578,295.48065185546875, 129.111083984375
489,228931415,0.38982478,-0.68110996,-0.3825566,-0.48762324,9.789774894714355,-2.343454599380493,0.42770278453826904,122.1961669921875,327.94903564453125, 138.5663604736328
490,228948082,0.43323347,-0.654487,-0.35585973,-0.5072665,12.829264640808105,-1.549898624420166,-0.7294742465019226,133.2496337890625,359.29815673828125, 146.02023315429688
491,228964749,0.47686496,-0.6234319,-0.32662675,-0.52654284,15.39552116394043,-0.836445152759552,-1.6912484169006348,139.5218048095703,381.31756591796875, 148.57373046875
492,228981416,0.51736575,-0.5905624,-0.29327208,-0.54549086,17.055850982666016,1.2712196111679077,-2.5481369495391846,117.86320495605469,393.12896728515625, 152.0555877685547
493,228998083,0.5532927,-0.5571258,-0.25622696,-0.56376034,20.719675064086914,1.4344744682312012,-3.5431504249572754,88.82821655273438,396.658447265625, 151.3586883544922
494,229014750,0.5863041,-0.5216997,-0.21993095,-0.5794029,23.56471061706543,-0.07667665183544159,-4.942116737365723,92.77377319335938,386.6761474609375, 143.90870666503906
495,229031417,0.6141666,-0.488686,-0.18348287,-0.5918781,23.622888565063477,-2.461543321609497,-6.824591159820557,68.78421020507812,358.9866638183594, 140.583984375
496,229048084,0.639233,-0.45674577,-0.15276195,-0.5995234,21.811582565307617,-1.6778934001922607,-9.837786674499512,84.34741973876953,311.2279357910156, 131.88845825195312
497,229064751,0.662129,-0.42277363,-0.1317043,-0.6045674,20.170625686645508,0.017220735549926758,-15.861233711242676,129.1747283935547,267.33123779296875, 102.09335327148438
498,229081418,0.68232346,-0.39111152,-0.123913005,-0.60507196,12.728412628173828,4.4242472648620605,-23.34288787841797,170.25511169433594,182.45233154296875, 75.27611541748047
499,229098085,0.6886475,-0.38198355,-0.12381931,-0.6037566,4.622854232788086,9.824774742126465,-24.853071212768555,60.99955368041992,36.62926483154297, 24.820476531982422
500,229114752,0.6842848,-0.39350814,-0.13035016,-0.59992886,7.021541595458984,3.4376702308654785,-22.73933982849121,-35.09663009643555,-95.57864379882812, -7.246623516082764
501,229131419,0.6776824,-0.40790078,-0.15035675,-0.5930907,12.534577369689941,2.448542356491089,-18.271455764770508,3.859558582305908,-180.41648864746094, -36.08745193481445
502,229148086,0.66994685,-0.4233351,-0.17322418,-0.58476657,18.763038635253906,-3.951442241668701,2.0080888271331787,9.232466697692871,-202.76559448242188, -40.59330368041992
503,229164753,0.66396385,-0.43832836,-0.18554492,-0.57670915,16.298099517822266,-5.460062503814697,33.12620162963867,-26.279024124145508,-149.3265380859375, -4.546257495880127
504,229181420,0.65327203,-0.45845613,-0.19580363,-0.5698373,12.037336349487305,3.3125038146972656,-8.322171211242676,-73.8326416015625,-163.37550354003906, -15.860401153564453
505,229198087,0.6465966,-0.4708679,-0.21789499,-0.55921215,25.804126739501953,-2.437250852584839,-8.487234115600586,25.006715774536133,-192.4122772216797, -30.797340393066406
506,229214754,0.6369564,-0.48691756,-0.23844998,-0.5480325,14.401291847229004,3.478444814682007,1.8863532543182373,-5.647213935852051,-205.2873077392578, -29.1689510345459
507,229231421,0.62386364,-0.5080553,-0.2511422,-0.5381465,11.351940155029297,-4.979874610900879,-8.118206024169922,-71.2279281616211,-191.3531951904297, -13.002232551574707
508,229248088,0.619834,-0.5168471,-0.26964492,-0.5253254,10.661872863769531,-4.192152976989746,-6.204934120178223,40.15831756591797,-164.95944213867188, -8.582230567932129
509,229264755,0.6169995,-0.5229087,-0.2848232,-0.51454246,9.105713844299316,-1.4162099361419678,-3.0696792602539062,40.38799285888672,-131.29965209960938, -6.3291015625
510,229281422,0.6130233,-0.5294132,-0.29476267,-0.5069903,11.442288398742676,-1.1831121444702148,1.014378547668457,9.597838401794434,-101.21666717529297, -4.430723190307617
511,229298089,0.60668045,-0.53745866,-0.3010213,-0.5024573,12.237428665161133,-0.47462549805641174,-0.4612252712249756,-24.462318420410156,-84.95925903320312, -8.874802589416504
512,229314756,0.6024121,-0.5432021,-0.30758703,-0.49741498,12.68957233428955,-2.5361783504486084,-1.4977318048477173,-5.074043273925781,-75.9106674194336, -5.43853235244751
513,229331423,0.5998279,-0.5462659,-0.31484857,-0.492616,11.178812026977539,-0.8490979671478271,0.39807361364364624,14.201628684997559,-65.15569305419922, -8.971797943115234
514,229348090,0.5957763,-0.5503384,-0.32030627,-0.48947144,10.841169357299805,-2.2903847694396973,-1.068095088005066,-5.176276206970215,-58.166542053222656, -11.79796028137207
515,229364757,0.59359175,-0.55159444,-0.32739243,-0.4860112,9.624491691589355,-2.6429078578948975,-0.5102306604385376,19.59842300415039,-52.47014617919922, -16.616178512573242
516,229381424,0.5920397,-0.5512964,-0.33516428,-0.48293483,9.502053260803223,-2.9272444248199463,-0.9897865056991577,29.7504940032959,-47.24186706542969, -22.23438262939453
517,229398091,0.59044653,-0.5507389,-0.3435909,-0.4795883,9.77888011932373,-3.61883807182312,0.48816075921058655,33.43233871459961,-50.19069290161133, -24.43110466003418
518,229414758,0.5871523,-0.55186385,-0.3520222,-0.47621307,8.909244537353516,-3.077845335006714,1.1373335123062134,20.214292526245117,-59.962730407714844, -26.056072235107422
519,229431425,0.5820182,-0.55534315,-0.35939935,-0.47294924,9.294859886169434,-2.6032137870788574,0.5267944931983948,-0.026945043355226517,-67.548583984375, -22.90214729309082
520,229448092,0.57524425,-0.5610577,-0.36530286,-0.46995997,9.229068756103516,-1.731321096420288,0.4332948923110962,-20.727561950683594,-72.01380920410156, -18.219385147094727
521,229464759,0.56731063,-0.56843823,-0.37021142,-0.4668836,9.198641777038574,-2.079751968383789,0.3260672092437744,-34.804534912109375,-76.80596923828125, -13.598490715026855
522,229481426,0.5594548,-0.575774,-0.37493676,-0.46359158,9.222713470458984,-2.0786659717559814,-0.03322676569223404,-34.37847900390625,-76.68939208984375, -11.910784721374512
523,229498093,0.55177426,-0.5828444,-0.3801133,-0.45973003,9.437064170837402,-1.8609668016433716,-0.5344147682189941,-29.767925262451172,-79.47229766845703, -11.640068054199219
524,229514760,0.5439723,-0.5898699,-0.38560864,-0.45547098,9.48854923248291,-0.97031569480896,-0.5414309501647949,-28.044048309326172,-82.52954864501953, -11.917543411254883
525,229531427,0.5354213,-0.59770066,-0.3904696,-0.4512332,9.59082317352295,-1.7028205394744873,-1.4774049520492554,-36.14181137084961,-84.66382598876953, -9.618908882141113
526,229548094,0.52683973,-0.6050461,-0.39597568,-0.44672424,10.349781036376953,0.26655352115631104,-1.662937045097351,-31.749988555908203,-86.79483032226562, -12.671860694885254
527,229564761,0.5176143,-0.6125699,-0.4022897,-0.4415842,10.904865264892578,-0.24234674870967865,-1.2009222507476807,-30.866968154907227,-94.71286010742188, -15.190194129943848
528,229581428,0.5079938,-0.6194799,-0.41051397,-0.4355058,11.285651206970215,-0.7361119389533997,-1.5195335149765015,-21.94847297668457,-104.77777099609375, -22.76386260986328
529,229598095,0.49772787,-0.6263291,-0.42024362,-0.42822227,12.034540176391602,-2.301623821258545,-0.5083271861076355,-16.574615478515625,-116.8932113647461, -27.06309700012207
530,229614762,0.4858952,-0.6341848,-0.4302812,-0.42020676,12.121018409729004,-1.6015039682388306,-1.0329868793487549,-23.759925842285156,-128.7141571044922, -27.623828887939453
531,229631429,0.46915838,-0.6445842,-0.43912068,-0.41421592,13.3599214553833,-2.5151796340942383,-0.2796694040298462,-41.24338150024414,-144.485107421875, -32.624168395996094
532,229648096,0.44965023,-0.6567559,-0.44755593,-0.40765184,15.03409194946289,-2.69350528717041,0.13252252340316772,-61.291133880615234,-158.3275909423828, -32.901737213134766
533,229664763,0.42625389,-0.67103434,-0.45402104,-0.40235022,16.809106826782227,-0.32747361063957214,2.571547269821167,-98.2044677734375,-163.47532653808594, -33.540889739990234
534,229681430,0.3988277,-0.6864928,-0.45908546,-0.39862877,20.340496063232422,-0.09881481528282166,1.8091412782669067,-144.81593322753906,-163.81198120117188, -39.80199432373047
535,229698097,0.36783898,-0.70228916,-0.4616151,-0.39798984,25.13639259338379,-0.3389301896095276,9.396639823913574,-179.2509765625,-154.85830688476562, -44.93088912963867
536,229714764,0.33510387,-0.71779233,-0.4612465,-0.3996639,24.573034286499023,-4.957448482513428,10.475508689880371,-202.26649475097656,-141.77938842773438, -42.48246383666992
537,229731431,0.30547938,-0.7298821,-0.46526217,-0.3968444,21.021451950073242,-8.86917781829834,5.925235271453857,-152.83615112304688,-155.51182556152344, -56.20661926269531
538,229748098,0.27557075,-0.73887426,-0.4724154,-0.39363602,20.115209579467773,-13.950927734375,4.597841739654541,-138.07772827148438,-157.0100555419922, -82.11023712158203
539,229764765,0.26017454,-0.7406101,-0.4805898,-0.39094687,19.29770851135254,-13.758318901062012,11.50582218170166,-49.72254180908203,-89.95885467529297, -72.96029663085938
540,229781432,0.23778875,-0.7482292,-0.47921073,-0.3923861,10.123937606811523,-7.572535037994385,-0.7638752460479736,-135.40126037597656,-91.36967468261719, -31.45901870727539
541,229798099,0.21258385,-0.75934124,-0.46999535,-0.39662775,7.713602542877197,-8.332032203674316,-9.15206241607666,-186.13638305664062,-82.93724060058594, 7.904270648956299
542,229814766,0.2036407,-0.7628498,-0.4662401,-0.39901245,10.45896053314209,-5.393298625946045,-1.6925396919250488,-69.3700180053711,-27.141908645629883, 1.648958444595337
543,229831433,0.21109931,-0.75942576,-0.4677541,-0.3998947,6.622313976287842,-1.938124179840088,10.837080955505371,45.543209075927734,29.108856201171875, -1.240538239479065
544,229848100,0.21831961,-0.755096,-0.46341178,-0.4091652,3.160231351852417,0.7573387622833252,8.022992134094238,2.533050060272217,82.8090591430664, 13.550549507141113
545,229864767,0.23078787,-0.7493425,-0.45553684,-0.42155567,4.971641540527344,-1.8689312934875488,2.951666831970215,12.076315879821777,124.87557220458984, 37.455604553222656
546,229881434,0.25590536,-0.73986334,-0.44767627,-0.4320888,5.808513641357422,-5.451645374298096,-0.3588249981403351,89.00557708740234,165.63946533203125, 65.32113647460938
547,229898101,0.29296237,-0.72450614,-0.44146636,-0.44087583,5.375868797302246,-2.1941161155700684,1.2259999513626099,170.31512451171875,208.07611083984375, 77.3512954711914
548,229914768,0.33170837,-0.7055306,-0.4325603,-0.45286626,6.548404216766357,-1.7130441665649414,2.2528939247131348,168.1062774658203,245.5343780517578, 78.54150390625
549,229931435,0.3716522,-0.6833482,-0.41935688,-0.46802756,7.298325061798096,-2.1951868534088135,2.284067153930664,158.40797424316406,284.2197570800781, 86.43317413330078
550,229948102,0.41143757,-0.65837127,-0.4013627,-0.48597795,8.5147066116333,-1.568230152130127,1.294018268585205,141.31961059570312,318.0698547363281, 93.30924224853516
551,229964769,0.45210263,-0.6294676,-0.37953928,-0.50529593,10.9437837600708,-1.5651450157165527,0.308403879404068,139.83143615722656,350.6719970703125, 98.9558334350586
552,229981436,0.4929209,-0.59678096,-0.35358447,-0.5252236,13.60021686553955,-1.2118133306503296,-1.0716793537139893,136.29986572265625,379.779296875, 105.69207763671875
553,229998103,0.53160733,-0.56225437,-0.32242057,-0.54526055,16.205671310424805,-0.47722598910331726,-2.0972940921783447,114.6931381225586,399.5050964355469, 114.62863159179688
554,230014770,0.5668664,-0.5271825,-0.28568357,-0.5649123,19.611785888671875,-0.02653484418988228,-2.378037452697754,83.3713607788086,413.0830078125, 123.64784240722656
555,230031437,0.5986285,-0.49190187,-0.24540521,-0.5826257,23.988479614257812,-0.6765044927597046,-3.6136674880981445,61.5353889465332,414.13189697265625, 130.1879119873047
556,230048104,0.6257304,-0.45896688,-0.203268,-0.59707063,25.292707443237305,-2.9864978790283203,-5.989350318908691,34.17819595336914,393.90631103515625, 135.37298583984375
557,230064771,0.6500905,-0.43026865,-0.1624909,-0.6048535,23.892892837524414,-6.287352085113525,-9.472188949584961,22.254358291625977,346.3620910644531, 154.541015625
558,230081438,0.67266846,-0.39601868,-0.13712764,-0.6098216,21.586559295654297,3.6702940464019775,-13.945140838623047,109.25823974609375,290.8888854980469, 107.96733856201172
559,230098105,0.6928302,-0.3619025,-0.12236706,-0.61158746,16.220849990844727,-1.9707633256912231,-21.701858520507812,149.6343231201172,231.0428924560547, 84.17964935302734
560,230114772,0.7066702,-0.33658117,-0.1233014,-0.6100224,7.90446662902832,10.883452415466309,-26.521194458007812,161.0640106201172,106.46477508544922, 41.87775421142578
561,230131439,0.70345074,-0.34601277,-0.12253577,-0.6086192,4.5050249099731445,4.820598125457764,-24.770910263061523,-54.48414611816406,-44.47344970703125, 3.181325674057007
562,230148106,0.69556046,-0.36474824,-0.13313206,-0.60450846,9.73840618133545,1.580471158027649,-21.394487380981445,-60.606651306152344,-148.2551727294922, -22.31555938720703
563,230164773,0.68463147,-0.38786265,-0.14948946,-0.59874487,16.558507919311523,-3.873574733734131,-6.871425628662109,-63.50257873535156,-200.41319274902344, -37.34395980834961
564,230181440,0.67629385,-0.41002968,-0.15881869,-0.5909983,20.117382049560547,-10.983427047729492,29.514528274536133,-78.8422622680664,-165.67637634277344, 0.5367458462715149
565,230198107,0.6686288,-0.42573538,-0.17646685,-0.58356196,10.618369102478027,5.5661301612854,-2.916707992553711,-13.513837814331055,-176.89256286621094, -28.73549461364746
566,230214774,0.6613828,-0.43924153,-0.19966537,-0.5742592,25.93803596496582,0.9222472906112671,-9.687592506408691,22.342695236206055,-198.38438415527344, -37.240474700927734
567,230231441,0.65279335,-0.45508784,-0.2231023,-0.56301105,15.160426139831543,0.6402752995491028,1.9576616287231445,11.412524223327637,-215.8431396484375, -31.003864288330078
568,230248108,0.6424363,-0.47492483,-0.23850271,-0.55212176,9.24269962310791,-5.384739398956299,-7.9103803634643555,-43.656063079833984,-196.7533721923828, -8.098116874694824
569,230264775,0.6398635,-0.48265132,-0.2583149,-0.5393476,11.062727928161621,-4.2841386795043945,-6.425559997558594,55.2972412109375,-163.44528198242188, -4.62537145614624
570,230281442,0.63853383,-0.48687384,-0.2755637,-0.5284819,9.034157752990723,-2.516065835952759,-3.767090082168579,62.07977294921875,-130.4302978515625, -6.281939506530762
571,230298109,0.6366968,-0.48996907,-0.28907079,-0.5205628,11.748414039611816,0.6668087244033813,0.21940410137176514,46.21096420288086,-100.92115783691406, -10.793639183044434
572,230314776,0.63046473,-0.4973736,-0.29665592,-0.51684535,13.292482376098633,1.6438169479370117,0.8825662136077881,-17.026315689086914,-85.02338409423828, -16.365440368652344
573,230331443,0.6246882,-0.50486535,-0.30272278,-0.51306397,13.038507461547852,-2.9134230613708496,-1.4778621196746826,-21.14366340637207,-78.08697509765625, -8.982866287231445
574,230348110,0.6223967,-0.50739056,-0.3115082,-0.5080748,11.458083152770996,-0.04892938956618309,0.5977802872657776,24.413942337036133,-69.15827941894531, -11.299915313720703
575,230364777,0.61792964,-0.512258,-0.31712854,-0.50515777,10.660508155822754,-1.8804712295532227,-0.4303559958934784,-8.714523315429688,-61.28312301635742, -11.682948112487793
576,230381444,0.6148754,-0.51513845,-0.32346418,-0.50192785,9.576395034790039,-2.856658935546875,-0.7563962936401367,7.863733291625977,-55.48298263549805, -12.31302261352539
577,230398111,0.61306113,-0.5159135,-0.3309839,-0.49843672,9.022433280944824,-3.003230333328247,-0.9762884974479675,25.820083618164062,-51.42197036743164, -15.874604225158691
578,230414778,0.61174804,-0.5153719,-0.34038943,-0.49425846,9.52688217163086,-3.528439998626709,-0.3187648355960846,41.16715621948242,-56.18083190917969, -21.040327072143555
579,230431445,0.6087661,-0.51641124,-0.3502494,-0.48994753,8.644461631774902,-3.183964252471924,1.1487009525299072,30.443225860595703,-67.88159942626953, -24.17122459411621
580,230448112,0.6032008,-0.52078956,-0.3583325,-0.48633832,9.52902603149414,-2.106677770614624,-0.019676677882671356,-0.40988895297050476,-75.52119445800781, -21.54353904724121
581,230464779,0.5963726,-0.52709717,-0.36506426,-0.48294568,9.489867210388184,-1.8631110191345215,0.8111755847930908,-18.003381729125977,-78.76929473876953, -17.093812942504883
582,230481446,0.58967876,-0.5336414,-0.37099072,-0.4794493,9.677022933959961,-1.968719244003296,0.32090601325035095,-20.92131233215332,-76.38959503173828, -12.713919639587402
583,230498113,0.58320487,-0.5398867,-0.37630942,-0.47622028,9.832801818847656,-1.705849051475525,-0.2210487276315689,-21.603181838989258,-71.48486328125, -11.60998249053955
584,230514780,0.5768775,-0.5459884,-0.3816494,-0.4727081,9.745832443237305,-1.9376119375228882,-0.5742860436439514,-19.692869186401367,-71.85054779052734, -10.443466186523438
585,230531447,0.570432,-0.5522166,-0.3870358,-0.46890035,9.427133560180664,-1.3440945148468018,-0.4748515486717224,-19.720958709716797,-73.9399642944336, -9.504136085510254
586,230548114,0.5625335,-0.55999106,-0.3918119,-0.46524146,9.437658309936523,-1.8491581678390503,-0.5441145896911621,-33.67616653442383,-79.92008972167969, -8.331738471984863
587,230564781,0.5538895,-0.5686158,-0.39601678,-0.46157706,10.161476135253906,-1.7715147733688354,-0.8674806952476501,-41.655399322509766,-82.55318450927734, -6.201598167419434
588,230581448,0.5444706,-0.5769108,-0.4023031,-0.4570316,10.771018981933594,-0.11705654859542847,-1.061744213104248,-34.430667877197266,-95.07442474365234, -14.333112716674805
589,230598115,0.53477013,-0.58510375,-0.41020158,-0.451009,11.512818336486816,-0.14131078124046326,-1.1014240980148315,-26.01742935180664,-107.51243591308594, -16.322528839111328
590,230614782,0.52423775,-0.5928153,-0.4203988,-0.44385773,11.795385360717773,-0.9147645235061646,-1.2109951972961426,-17.285533905029297,-121.4460678100586, -25.325345993041992
591,230631449,0.5122311,-0.6015346,-0.43123144,-0.4356777,12.798574447631836,-1.6886049509048462,-0.6852208971977234,-22.018980026245117,-135.36099243164062, -25.788555145263672
592,230648116,0.4958526,-0.61274105,-0.4415718,-0.4285943,13.46715259552002,-1.7921128273010254,-0.2020939588546753,-38.9234619140625,-153.41725158691406, -28.98211097717285
593,230664783,0.47622553,-0.62601775,-0.4515581,-0.4211966,15.105659484863281,-2.1204404830932617,0.6266128420829773,-58.65159225463867,-169.82080078125, -30.252687454223633
594,230681450,0.45243904,-0.64216596,-0.45920864,-0.41478834,17.364046096801758,-0.49220994114875793,2.5193593502044678,-95.42665100097656,-179.3578338623047, -27.438276290893555
595,230698117,0.42418772,-0.6603937,-0.46397737,-0.4106944,20.230480194091797,0.8144167065620422,4.77014684677124,-153.2566680908203,-176.62965393066406, -30.95665168762207
596,230714784,0.39113423,-0.6795917,-0.46494782,-0.4110873,26.571067810058594,1.0608702898025513,7.83069372177124,-202.95907592773438,-163.69517517089844, -37.1473503112793
597,230731451,0.35410354,-0.69863373,-0.46291605,-0.41500682,26.634296417236328,-3.9238810539245605,12.169927597045898,-240.9185028076172,-152.0615692138672, -44.24102020263672
598,230748118,0.3212599,-0.7124768,-0.4672763,-0.41330603,21.47635269165039,-10.130105018615723,4.531257629394531,-172.0703582763672,-167.22360229492188, -65.96519470214844
599,230764785,0.29255614,-0.72163147,-0.47545266,-0.4093943,22.02469253540039,-18.0240535736084,6.438040256500244,-123.601318359375,-160.31541442871094, -83.3669662475586
600,230781452,0.27997935,-0.7239035,-0.4828087,-0.4055502,15.953465461730957,-14.645411491394043,14.050985336303711,-32.52677917480469,-86.74430084228516, -57.009376525878906
601,230798119,0.2576646,-0.7333421,-0.48073274,-0.40585047,8.967146873474121,-5.694991111755371,-3.7761025428771973,-135.09788513183594,-100.9020767211914, -21.824743270874023
602,230814786,0.23739225,-0.7433682,-0.4719961,-0.41020516,7.744710445404053,-7.570993900299072,-9.965612411499023,-157.9256134033203,-63.543052673339844, 12.027863502502441
603,230831453,0.23658532,-0.7441024,-0.470293,-0.41129488,8.862531661987305,-6.146282196044922,1.8707787990570068,-12.959586143493652,-2.1571030616760254, 5.963107585906982
604,230848120,0.24849151,-0.738602,-0.46913752,-0.41548666,5.69746208190918,-1.3450710773468018,12.662821769714355,53.64577865600586,71.392822265625, 13.76550006866455
605,230864787,0.25819105,-0.7331781,-0.46012026,-0.42904174,1.8943533897399902,1.8800619840621948,7.225247383117676,-10.359227180480957,124.66212463378906, 31.591705322265625
606,230881454,0.26733837,-0.72832054,-0.44416052,-0.44810823,5.6636810302734375,-2.057344675064087,1.6731367111206055,-52.03170394897461,161.21690368652344, 56.992183685302734
607,230898121,0.29267702,-0.7177148,-0.4295344,-0.46338537,6.556461811065674,-6.174350738525391,-0.6844165325164795,55.27553939819336,206.9053497314453, 89.56358337402344
608,230914788,0.33048996,-0.7000463,-0.4167822,-0.47644952,7.1339240074157715,-2.0809381008148193,1.2056533098220825,143.5038604736328,251.5782470703125, 103.5708236694336
609,230931455,0.36913002,-0.6786282,-0.4001632,-0.49302766,7.809815883636475,-0.9801954030990601,2.470828056335449,133.2519989013672,291.89794921875, 106.19701385498047
610,230948122,0.40626627,-0.6552294,-0.37749684,-0.51295066,8.744745254516602,-1.860213041305542,1.8442991971969604,101.5387954711914,325.37738037109375, 115.43080139160156
611,230964789,0.44277403,-0.62977195,-0.34996912,-0.5337229,11.247472763061523,-1.8540740013122559,-0.005959272384643555,85.08296966552734,348.3993225097656, 127.42684173583984
612,230981456,0.48092052,-0.6004886,-0.32016352,-0.5528331,13.677900314331055,-1.1425591707229614,-2.022165536880493,99.46614074707031,366.1963195800781, 139.20663452148438
613,230998123,0.51982784,-0.5670187,-0.28911138,-0.56981003,15.722804069519043,0.7065371870994568,-2.9859776496887207,116.42569732666016,379.27386474609375, 145.18380737304688
614,231014790,0.55711526,-0.5306171,-0.25605494,-0.58523834,18.96299934387207,1.716902494430542,-3.580833673477173,115.82166290283203,388.9234619140625, 146.5316925048828
615,231031457,0.590854,-0.4933216,-0.22148985,-0.59872204,21.342525482177734,0.7663525938987732,-4.209842205047607,103.6397705078125,385.2917785644531, 143.8474884033203
616,231048124,0.6205566,-0.45687234,-0.18605475,-0.609558,22.817949295043945,-1.7573691606521606,-5.845076560974121,86.95684051513672,370.6361083984375, 142.43565368652344
617,231064791,0.64707786,-0.423586,-0.15091519,-0.6157027,22.566343307495117,-6.072306156158447,-9.0217866897583,70.75423431396484,337.83135986328125, 152.40142822265625
618,231081458,0.6754734,-0.38432646,-0.1287665,-0.6159936,21.34758949279785,0.5678783655166626,-11.377640724182129,164.08070373535156,290.8561706542969, 142.42568969726562
619,231098125,0.69396234,-0.3480603,-0.11140965,-0.6203694,19.299135208129883,5.958106517791748,-13.817139625549316,140.76815795898438,258.6198425292969, 71.65235900878906
620,231114792,0.70829785,-0.32053557,-0.100601934,-0.6208467,10.885249137878418,3.036979913711548,-22.027713775634766,120.05345916748047,178.24705505371094, 63.814388275146484
621,231131459,0.7085367,-0.32010078,-0.09034647,-0.62237346,7.167632579803467,9.067728042602539,-22.55878448486328,-41.16056442260742,53.07972717285156, 16.183185577392578
622,231148126,0.70019525,-0.34056172,-0.08459598,-0.62176186,6.863788604736328,-1.3819453716278076,-21.6958065032959,-141.2022247314453,-67.85816955566406, -6.780320644378662
623,231164793,0.69160444,-0.35965297,-0.096143804,-0.61894214,11.646082878112793,1.0981041193008423,-16.423498153686523,-59.680076599121094,-150.18161010742188, -38.41394805908203
624,231181460,0.68112546,-0.38377967,-0.111214384,-0.6135248,15.39794635772705,-0.8312416672706604,-7.060616970062256,-71.4056396484375,-195.59727478027344, -39.325740814208984
625,231198127,0.67357135,-0.4047331,-0.12046378,-0.6066147,19.02402687072754,-12.22270393371582,29.36882972717285,-72.0918197631836,-156.3080596923828, -6.8855671882629395
626,231214794,0.67023337,-0.41626847,-0.13775758,-0.5987742,8.588909149169922,2.113510847091675,4.537237167358398,17.515403747558594,-153.74026489257812, -15.266769409179688
627,231231461,0.6670285,-0.42465246,-0.16079868,-0.5906666,24.222990036010742,2.5255722999572754,-11.821720123291016,56.28950881958008,-167.9320526123047, -32.89567947387695
628,231248128,0.66126406,-0.43785593,-0.18378802,-0.5807185,17.75775909423828,0.1530066430568695,0.8695001602172852,28.697221755981445,-194.82386779785156, -29.164531707763672
629,231264795,0.6549526,-0.4532467,-0.2023284,-0.5697965,10.404376029968262,-5.843224048614502,-4.142096519470215,0.6339605450630188,-186.78126525878906, -10.678573608398438
630,231281462,0.6539424,-0.4590215,-0.22514291,-0.5576463,11.53661823272705,-2.344353199005127,-5.089972496032715,79.09461975097656,-164.65341186523438, -11.256253242492676
631,231298129,0.65131634,-0.46506077,-0.24295144,-0.5481607,8.678112030029297,-2.693840742111206,-4.017177581787109,49.59920883178711,-137.0509033203125, -13.341727256774902
632,231314796,0.64827764,-0.4698298,-0.2565663,-0.54145175,10.107699394226074,-0.589218258857727,-0.3955397307872772,33.595924377441406,-105.19445037841797, -16.167011260986328
633,231331463,0.6414569,-0.47849205,-0.26390126,-0.5384557,11.922767639160156,0.9345238208770752,0.7473657131195068,-25.90858268737793,-86.37976837158203, -19.64289093017578
634,231348130,0.63378024,-0.48786157,-0.26897016,-0.53662735,12.891088485717773,-2.2057456970214844,-0.26305729150772095,-42.3870735168457,-76.75501251220703, -19.108230590820312
635,231364797,0.6303795,-0.49187553,-0.2776642,-0.5325248,11.87014389038086,-2.1710622310638428,-0.10030235350131989,12.88172721862793,-72.50690460205078, -15.468387603759766
636,231381464,0.6277189,-0.4943426,-0.28650045,-0.52868885,10.281866073608398,-1.1127840280532837,-0.02772517502307892,22.101533889770508,-65.14791107177734, -17.38442039489746
637,231398131,0.6268828,-0.49400926,-0.2969279,-0.5242201,10.1277437210083,-3.3247928619384766,-0.4076545536518097,47.40256881713867,-60.41408157348633, -18.993989944458008
638,231414798,0.6277273,-0.49075758,-0.30884695,-0.5193542,9.368353843688965,-1.8760021924972534,-0.5092926025390625,71.8730239868164,-54.24333572387695, -22.386764526367188
639,231431465,0.62871176,-0.48696363,-0.32035354,-0.5147444,9.901717185974121,-3.1453464031219482,0.17320516705513,72.64746856689453,-49.37236022949219, -22.871475219726562
640,231448132,0.6287696,-0.48418784,-0.33053926,-0.51083755,9.701478004455566,-2.583216428756714,1.1741946935653687,58.89774703979492,-46.98033142089844, -22.66225242614746
641,231464799,0.6262138,-0.4852431,-0.33802953,-0.5080665,9.434514999389648,-2.406156063079834,0.8351596593856812,21.554094314575195,-51.011722564697266, -19.161434173583984
642,231481466,0.6213997,-0.48966932,-0.34367558,-0.50593823,9.296980857849121,-1.7695248126983643,0.7911548018455505,-8.455270767211914,-58.02180099487305, -15.87337875366211
643,231498133,0.615424,-0.4964586,-0.34924203,-0.50280476,8.979290962219238,-1.5014971494674683,0.30007895827293396,-20.3834171295166,-72.11494445800781, -9.77155590057373
644,231514800,0.60811657,-0.5051788,-0.3552985,-0.49875018,9.445282936096191,-1.2326749563217163,0.053961560130119324,-29.203184127807617,-87.28605651855469, -7.5053229331970215
645,231531467,0.59990543,-0.5150323,-0.36173725,-0.493965,9.422066688537598,-2.3601760864257812,0.45277875661849976,-33.98822021484375,-97.60172271728516, -6.085665702819824
646,231548134,0.5915283,-0.5248976,-0.3684988,-0.48865712,9.737895965576172,-1.7371954917907715,-0.0865408405661583,-32.230106353759766,-101.33971405029297, -5.619484901428223
647,231564801,0.58325565,-0.534377,-0.37486538,-0.48345658,9.830279350280762,-1.2485584020614624,-0.7395969033241272,-31.882217407226562,-97.87542724609375, -5.253655910491943
648,231581468,0.57456446,-0.54379004,-0.3807733,-0.47872734,10.458064079284668,-0.5064532160758972,-1.2509658336639404,-35.89207077026367,-95.24189758300781, -6.999259948730469
649,231598135,0.5650274,-0.5538382,-0.38583496,-0.47448784,11.026870727539062,-1.5077385902404785,-1.2905551195144653,-45.62825393676758,-94.4389877319336, -6.840150356292725
650,231614802,0.55522823,-0.5631028,-0.39253584,-0.46963048,11.318564414978027,-0.19224324822425842,-1.1137884855270386,-36.59400177001953,-101.37567901611328, -13.591252326965332
651,231631469,0.5453109,-0.57174623,-0.40089378,-0.46370956,11.471449851989746,-0.7530337572097778,-1.2117013931274414,-26.46145248413086,-110.2159194946289, -17.956384658813477
652,231648136,0.5344704,-0.5802347,-0.4111835,-0.4567245,11.914985656738281,-2.509974479675293,-0.8871902227401733,-20.423587799072266,-123.78492736816406, -24.913856506347656
653,231664803,0.5223167,-0.5894853,-0.4222242,-0.44879735,12.740560531616211,-2.514005661010742,-0.3471290171146393,-23.455665588378906,-136.51380920410156, -26.454893112182617
654,231681470,0.50512636,-0.601703,-0.43210828,-0.44281298,13.778264045715332,-2.9261422157287598,0.1996191442012787,-47.90944290161133,-152.3746795654297, -29.507919311523438
655,231698137,0.484193,-0.6166538,-0.44059315,-0.43723348,15.301931381225586,-1.7371596097946167,0.4023280739784241,-78.19210815429688,-165.4166259765625, -29.287168502807617
656,231714804,0.45779672,-0.63499475,-0.44545704,-0.4344792,17.440162658691406,1.5452184677124023,3.504944086074829,-130.6138916015625,-168.6614227294922, -30.036304473876953
657,231731471,0.42576516,-0.65555507,-0.44621027,-0.4357385,21.25115394592285,4.0480265617370605,4.485430717468262,-204.2733917236328,-158.2880859375, -39.30167770385742
658,231748138,0.38966396,-0.6761117,-0.44345945,-0.44088385,26.938058853149414,1.3645656108856201,10.428465843200684,-245.03189086914062,-143.48001098632812, -46.82999801635742
659,231764805,0.35566694,-0.6933163,-0.44272122,-0.44363457,23.315372467041016,-6.939316749572754,11.265076637268066,-212.8717041015625,-144.17813110351562, -53.48661422729492
660,231781472,0.3276108,-0.7042539,-0.4524099,-0.43820417,21.03371238708496,-11.58764934539795,3.012920379638672,-112.59611511230469,-172.193115234375, -84.34383392333984
661,231798139,0.30647784,-0.71020633,-0.4645857,-0.4310898,22.367509841918945,-18.616525650024414,8.574922561645508,-55.2442626953125,-149.7930145263672, -87.5896224975586
662,231814806,0.2969501,-0.71220195,-0.47362286,-0.42458275,14.606222152709961,-13.280869483947754,12.870307922363281,-1.7564088106155396,-92.01703643798828, -52.316375732421875
663,231831473,0.2761248,-0.721806,-0.47146723,-0.4248176,10.147870063781738,-6.46967887878418,-5.091536998748779,-127.46648406982422,-95.7726821899414, -19.88405990600586
664,231848140,0.26001838,-0.7297597,-0.46549883,-0.4279628,9.366561889648438,-6.886882781982422,-9.61737060546875,-121.58601379394531,-53.9519157409668, 1.7440836429595947
665,231864807,0.2614362,-0.72853124,-0.4664324,-0.42817557,8.865338325500488,-8.365610122680664,1.8018357753753662,12.34018611907959,2.2534515857696533, -5.643659591674805
666,231881474,0.27740735,-0.7196932,-0.46925774,-0.42998168,4.355038642883301,-2.229360818862915,11.751413345336914,99.25054168701172,75.71835327148438, 0.2508581876754761
667,231898141,0.28937238,-0.712231,-0.46154603,-0.44268057,2.1275675296783447,3.1114566326141357,7.30966854095459,10.485340118408203,132.34066772460938, 24.157161712646484
668,231914808,0.29523593,-0.70683855,-0.44396445,-0.46487713,6.020823001861572,-0.398807168006897,2.0655462741851807,-83.64472198486328,172.6556854248047, 41.65026092529297
669,231931475,0.31207865,-0.69783616,-0.4247802,-0.4849674,6.472318172454834,-7.100422382354736,-0.6776034832000732,-21.65040397644043,210.66018676757812, 77.75304412841797
670,231948142,0.34421688,-0.681114,-0.40882587,-0.5004597,6.341708660125732,-4.483007431030273,0.9968588352203369,92.44705200195312,252.10369873046875, 100.41100311279297
671,231964809,0.38153908,-0.6591575,-0.39135435,-0.5165087,7.38744592666626,-1.4515211582183838,2.129544734954834,122.3119125366211,290.86737060546875, 109.2655258178711
672,231981476,0.416166,-0.63585234,-0.36692917,-0.5365266,8.986626625061035,-1.7147263288497925,2.3534984588623047,78.24615478515625,324.5880432128906, 117.19251251220703
673,231998143,0.45067844,-0.61040926,-0.33684573,-0.55751646,11.20552921295166,-2.917304277420044,0.6115058660507202,60.529151916503906,352.6056823730469, 133.3558807373047
674,232014810,0.48727512,-0.58085364,-0.3034169,-0.577157,14.243453025817871,-2.0702826976776123,-0.9919820427894592,72.33753204345703,377.9793395996094, 150.05589294433594
675,232031477,0.5243771,-0.54806715,-0.2668887,-0.5944928,16.75735092163086,-1.3070058822631836,-2.5124716758728027,77.71490478515625,393.2132873535156, 165.4968719482422
676,232048144,0.5602333,-0.5130836,-0.22774947,-0.60910946,18.952035903930664,0.9049298167228699,-2.7687811851501465,75.29313659667969,399.3558349609375, 176.14859008789062
677,232064811,0.59347993,-0.476749,-0.18763396,-0.6207137,22.81474494934082,1.3209788799285889,-3.90175461769104,71.9357681274414,394.4125061035156, 178.3690643310547
678,232081478,0.6244984,-0.43911448,-0.14968878,-0.6283101,24.78687858581543,-1.0520600080490112,-5.869190692901611,84.39636993408203,375.5677490234375, 176.69630432128906
679,232098145,0.6543932,-0.39930514,-0.11836423,-0.631122,23.45533561706543,-0.7398521304130554,-8.929300308227539,123.9675521850586,341.5378723144531, 170.39816284179688
680,232114812,0.6772519,-0.36072433,-0.09525732,-0.6341403,22.021087646484375,0.9565752744674683,-11.118387222290039,134.72544860839844,294.7397766113281, 117.5749740600586
681,232131479,0.7024295,-0.31484884,-0.08715157,-0.6323509,18.70318603515625,-1.6729800701141357,-20.812410354614258,243.17630004882812,247.0527801513672, 108.30815124511719
682,232148146,0.7185068,-0.28169015,-0.08934502,-0.6296162,10.411874771118164,11.057868957519531,-26.35853385925293,207.62564086914062,135.3185272216797, 58.64642333984375
683,232164813,0.719464,-0.2845826,-0.08946718,-0.6272001,3.491715908050537,7.131636142730713,-24.579133987426758,-8.941044807434082,-18.533754348754883, 17.97256088256836
684,232181480,0.7141027,-0.30130738,-0.09915467,-0.62405103,9.058188438415527,3.5378568172454834,-21.529325485229492,-47.962215423583984,-130.4416961669922, -15.713179588317871
685,232198147,0.70616686,-0.32006663,-0.12019645,-0.62003106,14.643777847290039,1.4643532037734985,-15.59720230102539,-13.837870597839355,-198.00411987304688, -44.49024963378906
686,232214814,0.6970188,-0.3440618,-0.13642912,-0.6141445,19.874475479125977,-8.935619354248047,11.895989418029785,-60.75319290161133,-201.5527801513672, -25.541397094726562
687,232231481,0.69217557,-0.36294425,-0.14668396,-0.6063402,13.152453422546387,-5.909266471862793,30.977920532226562,-49.37422180175781,-151.7228240966797, 11.206636428833008
688,232248148,0.684415,-0.3810472,-0.16166627,-0.60020256,12.75731372833252,5.099768161773682,-14.38352108001709,-35.07373046875,-170.2971954345703, -21.518522262573242
689,232264815,0.67951554,-0.39253962,-0.18646312,-0.591103,27.21826171875,-1.7088793516159058,-6.314790725708008,47.42477035522461,-193.31033325195312, -28.669254302978516
