PacketCounter,SampleTimeFine,Quat_W,Quat_X,Quat_Y,Quat_Z,Acc_X,Acc_Y,Acc_Z,Gyr_X,Gyr_Y,Gyr_Z 
1,1016622969,0.7134287,-0.25671798,-0.60603243,-0.24050032,-0.1691581755876541,0.0665147602558136,-0.01393159106373787,-0.11226153373718262,0.21516597270965576, -0.2595549523830414
2,1016639636,0.7077288,-0.25117305,-0.61290693,-0.24571791,10.006470680236816,-0.05554414913058281,0.7448751330375671,-3.686335563659668,11.926170349121094, 3.5647072792053223
3,1016656303,0.70306027,-0.24626102,-0.6193117,-0.24802189,9.474730491638184,-0.4456331133842468,0.6640095114707947,-3.364459276199341,6.447351932525635, 1.8647650480270386
4,1016672970,0.6999114,-0.24399452,-0.62401134,-0.24738728,9.439091682434082,-0.26598042249679565,0.5996226668357849,-0.3476923704147339,0.026169773191213608, 0.01670587994158268
5,1016689637,0.697278,-0.24254456,-0.628048,-0.24603094,9.543993949890137,-0.08608566224575043,0.4550545811653137,1.3276535272598267,-5.565512180328369, -0.8866604566574097
6,1016706304,0.69475424,-0.24135922,-0.63186646,-0.244555,9.825298309326172,-0.17267046868801117,0.6266823410987854,2.949232578277588,-8.769508361816406, -0.4288206994533539
7,1016722971,0.6928878,-0.24014404,-0.6350473,-0.24280134,10.012567520141602,-0.14892013370990753,0.020356303080916405,4.647304058074951,-9.313407897949219, 0.10907811671495438
8,1016739638,0.6909869,-0.23914202,-0.63820356,-0.24092433,9.967249870300293,-0.08102727681398392,-0.26513031125068665,4.9686408042907715,-8.0401611328125, 0.14044088125228882
9,1016756305,0.68901044,-0.23835412,-0.6412888,-0.23916717,9.826350212097168,-0.09863218665122986,-0.38830044865608215,4.132808208465576,-6.519969940185547, 0.02062463015317917
10,1016772972,0.6870004,-0.2379186,-0.64412874,-0.23774686,9.767230033874512,-0.123077891767025,-0.34900641441345215,1.8121305704116821,-5.182794094085693, -0.22637787461280823
11,1016789639,0.6851051,-0.23756248,-0.64674896,-0.23645572,9.79906940460205,-0.09381183236837387,-0.15994684398174286,0.7874560952186584,-4.555744171142578, -0.557883083820343
12,1016806306,0.6831089,-0.23801443,-0.6488328,-0.23606639,9.91639518737793,0.048252131789922714,0.05614205449819565,-0.06883414089679718,-4.622452735900879, -0.43183019757270813
13,1016822973,0.68148726,-0.23839146,-0.6505364,-0.2356844,10.127225875854492,0.04001616686582565,0.3118753135204315,0.16748784482479095,-3.6661376953125, 0.6503129005432129
14,1016839640,0.68036944,-0.23860818,-0.6518099,-0.23517573,10.262453079223633,-0.09445100277662277,0.2066495418548584,1.628129005432129,-2.1765029430389404, 2.0982117652893066
15,1016856307,0.6796947,-0.23872241,-0.65263885,-0.23471208,10.217389106750488,0.020661290735006332,-0.26835426688194275,1.7909742593765259,0.2947445213794708, 2.493159294128418
16,1016872974,0.67921287,-0.23883045,-0.6531834,-0.23448126,10.06346607208252,0.02362491935491562,-0.419660359621048,0.5144246816635132,2.5443718433380127, 2.1254632472991943
17,1016889641,0.6788556,-0.23910083,-0.65341866,-0.234585,9.89276123046875,-0.0007950769504532218,-0.4551723599433899,-1.7017335891723633,4.740904808044434, 1.966357707977295
18,1016906308,0.67865765,-0.2392399,-0.6535478,-0.23465608,9.776796340942383,-0.04288921877741814,-0.4911496043205261,-3.317549467086792,6.02685546875, 1.7757736444473267
19,1016922975,0.6784102,-0.23971385,-0.6534967,-0.23503047,9.686811447143555,0.0522533617913723,-0.4033659100532532,-3.8638556003570557,6.420189380645752, 2.0022668838500977
20,1016939642,0.6782655,-0.2400579,-0.6534413,-0.23524992,9.657684326171875,0.08467130362987518,-0.3615017235279083,-2.7018587589263916,6.5554890632629395, 2.2983243465423584
21,1016956309,0.6781016,-0.24043909,-0.6533909,-0.23547347,9.601555824279785,0.08777328580617905,-0.27222907543182373,-1.798498511314392,6.022795677185059, 2.459632635116577
22,1016972976,0.677843,-0.24095297,-0.6533653,-0.23576307,9.674640655517578,0.017689887434244156,-0.07768015563488007,-1.3634281158447266,4.924317359924316, 2.601975202560425
23,1016989643,0.677564,-0.24146295,-0.6533956,-0.23595937,9.841442108154297,-0.09546385705471039,0.19429858028888702,-0.6878675818443298,3.8448829650878906, 2.817852258682251
24,1017006310,0.67750895,-0.24162163,-0.65349334,-0.23568425,9.988020896911621,-0.06591900438070297,0.21809245645999908,0.23274902999401093,3.6451289653778076, 3.407827615737915
25,1017022977,0.6773968,-0.24201229,-0.6534835,-0.23563273,10.037190437316895,-0.09059292078018188,0.17039690911769867,0.4444124400615692,3.202183485031128, 3.4482831954956055
26,1017039644,0.67730165,-0.24229246,-0.6535397,-0.23546301,9.934231758117676,-0.14993518590927124,0.06914204359054565,0.851820707321167,2.4809165000915527, 3.2777657508850098
27,1017056311,0.6770674,-0.24274543,-0.65360534,-0.23548807,9.791735649108887,-0.14552068710327148,0.03360344469547272,1.0994313955307007,1.4716095924377441, 2.823857545852661
28,1017072978,0.67691,-0.24262565,-0.6540117,-0.23493484,9.730316162109375,-0.15734422206878662,0.04180161654949188,1.0613582134246826,0.04473898559808731, 2.212085723876953
29,1017089645,0.67663884,-0.24250999,-0.65451574,-0.23443092,9.792607307434082,-0.2169981449842453,0.050371017307043076,1.2873647212982178,-1.1009492874145508, 1.560357689857483
30,1017106312,0.67638004,-0.24226916,-0.65509063,-0.2338204,9.952542304992676,-0.18183088302612305,0.17919644713401794,1.277542233467102,-1.5478010177612305, 1.2391103506088257
31,1017122979,0.6760943,-0.24229386,-0.6554515,-0.23361048,10.01667594909668,-0.16423700749874115,0.01783083938062191,1.8652513027191162,-0.7888199687004089, 0.8984870910644531
32,1017139646,0.6759784,-0.24207272,-0.655789,-0.23322694,9.970011711120605,-0.09917060285806656,-0.04019618034362793,1.4314744472503662,0.09126444905996323, 0.7839471101760864
33,1017156313,0.6758486,-0.24202695,-0.65599185,-0.23308,9.892663955688477,-0.1321377158164978,-0.09721598774194717,0.6381596326828003,0.6246488690376282, 0.6831610798835754
34,1017172980,0.6757444,-0.2418605,-0.65624225,-0.23285022,9.810230255126953,-0.1200389713048935,-0.08476684242486954,0.0785861611366272,0.5300612449645996, 0.4114232063293457
35,1017189647,0.67557365,-0.24176183,-0.6564826,-0.23277082,9.777976989746094,-0.08548912405967712,-0.013432265259325504,-0.06628566980361938,0.31648972630500793, -0.0799756571650505
36,1017206314,0.6752416,-0.24197721,-0.65666366,-0.23299983,9.828969955444336,-0.13454407453536987,0.07992108166217804,-0.1372968703508377,-0.2979653477668762, -0.20152071118354797
37,1017222981,0.6751962,-0.24140422,-0.6571342,-0.2323984,9.930875778198242,-0.1244487464427948,0.10846984386444092,0.25592848658561707,-0.43230393528938293, -0.1228000819683075
38,1017239648,0.6750033,-0.24140884,-0.6573286,-0.23240419,9.923099517822266,-0.0007474306621588767,-0.08791390806436539,0.7207862138748169,0.0033232481218874454, -0.003470520954579115
39,1017256315,0.67493844,-0.24121743,-0.6575337,-0.23221062,9.874197959899902,0.028534557670354843,-0.0708017498254776,0.2150634229183197,0.5168322324752808, 0.1908978372812271
40,1017272982,0.67478925,-0.24138102,-0.65756017,-0.23239952,9.876808166503906,-0.047873083502054214,-0.10325869172811508,-0.2697657346725464,0.9122283458709717, 0.2699514329433441
41,1017289649,0.6747083,-0.2414263,-0.65761924,-0.23242028,9.87759780883789,-0.06354404240846634,-0.05548322573304176,-0.18465474247932434,0.9678334593772888, 0.5397299528121948
42,1017306316,0.67464685,-0.24141814,-0.65770227,-0.23237234,9.87618350982666,-0.007770264521241188,-0.009859941899776459,-0.2964414060115814,0.88026362657547, 0.5859097242355347
43,1017322983,0.6745789,-0.24147543,-0.65776855,-0.23232189,9.871867179870605,-0.014478635042905807,0.04837724566459656,-0.29431551694869995,0.7520849108695984, 0.9233313202857971
44,1017339650,0.6745603,-0.24137168,-0.6579171,-0.23206346,9.885295867919922,-0.017042137682437897,0.08518929034471512,0.3723510205745697,0.45993369817733765, 1.0836029052734375
45,1017356317,0.67456883,-0.24128605,-0.6580414,-0.23177467,9.927393913269043,-0.015497883781790733,0.08451062440872192,1.23928964138031,0.5249770879745483, 1.4054391384124756
46,1017372984,0.6745681,-0.24138637,-0.6580547,-0.23163515,9.911492347717285,-0.05517690256237984,0.0009939521551132202,0.9193871021270752,0.8533191680908203, 1.7519150972366333
47,1017389651,0.6746284,-0.24127981,-0.65816396,-0.23125987,9.862090110778809,-0.025385340675711632,-0.03262043371796608,1.0018600225448608,0.6256222128868103, 1.800989031791687
48,1017406318,0.6745675,-0.2413149,-0.6582893,-0.23104323,9.804415702819824,-0.05242794752120972,-0.014967245981097221,1.132459044456482,-0.02566392347216606, 1.5158042907714844
49,1017422985,0.67452544,-0.2410121,-0.6586339,-0.23049994,9.770240783691406,-0.12708313763141632,0.013092290610074997,1.1664727926254272,-0.9233889579772949, 1.105104684829712
50,1017439652,0.67431,-0.2410063,-0.65893567,-0.23027346,9.82309341430664,-0.07904619723558426,0.04108930751681328,1.356186032295227,-1.5656403303146362, 0.8111733794212341
51,1017456319,0.6741123,-0.24089672,-0.6592925,-0.22994569,9.893733978271484,-0.08996467292308807,0.03313710168004036,1.5176100730895996,-1.766226053237915, 0.7250508069992065
52,1017472986,0.6739043,-0.24093053,-0.6595482,-0.22978602,9.955370903015137,-0.041377078741788864,0.0051926374435424805,1.3844622373580933,-1.361686110496521, 0.7582574486732483
53,1017489653,0.67380655,-0.24083667,-0.6597645,-0.22955021,9.933798789978027,-0.006749392487108707,-0.0405418761074543,1.559192180633545,-0.6154475212097168, 0.7589746713638306
54,1017506320,0.6737546,-0.2407584,-0.65992224,-0.22933199,9.89440631866455,-0.031074710190296173,-0.12812183797359467,1.2467173337936401,-0.14959096908569336, 0.9219611287117004
55,1017522987,0.6736905,-0.24072693,-0.660046,-0.22919664,9.840352058410645,-0.0472828708589077,-0.12126180529594421,1.0439544916152954,0.001287038205191493, 0.7948068976402283
56,1017539654,0.6735966,-0.24073695,-0.6601653,-0.22911862,9.822049140930176,-0.028454335406422615,-0.051801569759845734,0.8769595623016357,-0.09758438915014267, 0.6809072494506836
57,1017556321,0.6734879,-0.24072036,-0.66032183,-0.22900447,9.844520568847656,-0.05772963538765907,-0.004052581265568733,0.9265586137771606,-0.36724767088890076, 0.6410666108131409
58,1017572988,0.67338675,-0.24070112,-0.66048235,-0.22885938,9.903820991516113,-0.05158241465687752,0.0637001097202301,1.0082247257232666,-0.4211496114730835, 0.7731128931045532
59,1017589655,0.6733268,-0.240697,-0.66058713,-0.22873779,9.928474426269531,-0.0001370504905935377,-0.05616074055433273,1.0524322986602783,-0.00029454604373313487, 0.890713632106781
60,1017606322,0.67337215,-0.24062288,-0.66062385,-0.22857602,9.922772407531738,0.0033114925026893616,-0.11291041225194931,0.8826713562011719,0.8399749398231506, 1.035451054573059
61,1017622989,0.6734363,-0.24060524,-0.6605927,-0.22849596,9.869507789611816,-0.03207201883196831,-0.1211363896727562,0.6334213018417358,1.2714720964431763, 1.0676077604293823
62,1017639656,0.67347014,-0.24061239,-0.6605698,-0.22845483,9.798506736755371,-0.06179971620440483,-0.08198058605194092,0.7322607040405273,1.1087546348571777, 0.945140540599823
63,1017656323,0.6734303,-0.2405889,-0.66064477,-0.22838013,9.809203147888184,-0.02113250084221363,-0.008770223706960678,0.7507786750793457,0.3123532831668854, 0.6774879097938538
64,1017672990,0.67334527,-0.24055429,-0.6607916,-0.22824222,9.872795104980469,0.002541555557399988,0.0526156984269619,0.9111014604568481,-0.3248714804649353, 0.7305062413215637
65,1017689657,0.6732287,-0.2406285,-0.6609153,-0.22814992,9.91722583770752,0.01817133277654648,0.00509222224354744,1.1545755863189697,-0.5042116045951843, 1.0200576782226562
66,1017706324,0.6731798,-0.24061102,-0.66104347,-0.22794154,9.921751022338867,0.007000616751611233,-0.042449694126844406,1.3764712810516357,-0.26370835304260254, 1.2384058237075806
67,1017722991,0.6732022,-0.24053362,-0.66113853,-0.22768053,9.905518531799316,0.0063175600953400135,-0.06524757295846939,1.3357726335525513,0.22445048391819, 1.3763688802719116
68,1017739658,0.6733044,-0.24031168,-0.6612412,-0.22731498,9.85602855682373,-0.04247124865651131,-0.09738986939191818,0.896425187587738,0.6392225623130798, 1.3044098615646362
69,1017756325,0.67337066,-0.24023423,-0.6612735,-0.22710648,9.803079605102539,0.005415360443294048,-0.12984143197536469,0.6654499769210815,0.8024523258209229, 1.3082774877548218
70,1017772992,0.6733863,-0.24026267,-0.66127974,-0.22701184,9.804245948791504,-0.04367778077721596,-0.033696506172418594,0.760434627532959,0.6889240145683289, 1.2458209991455078
71,1017789659,0.6733771,-0.24020989,-0.66136354,-0.22685082,9.86185073852539,-0.02654784731566906,0.03021129034459591,1.0739853382110596,0.23633480072021484, 1.0137057304382324
72,1017806326,0.6733524,-0.24011998,-0.66149604,-0.2266325,9.939631462097168,-0.04839374125003815,0.08681312203407288,1.2116023302078247,-0.1033344492316246, 1.005509853363037
73,1017822993,0.6732904,-0.24016269,-0.66156614,-0.22656748,9.968283653259277,-0.05248333513736725,0.06682253628969193,1.2543115615844727,0.004988073371350765, 0.9601367712020874
74,1017839660,0.6732569,-0.24014264,-0.6616421,-0.22646615,9.922367095947266,-0.04811941087245941,0.007750310003757477,0.7692838311195374,0.15091641247272491, 0.8689940571784973
75,1017856327,0.6732533,-0.23998383,-0.66177523,-0.22625615,9.852022171020508,-0.021493006497621536,-0.02833428978919983,0.3637707829475403,0.08771709352731705, 0.6793192625045776
76,1017872994,0.67314214,-0.23996079,-0.6619124,-0.22620998,9.831161499023438,0.030193917453289032,-0.03584432601928711,0.3907153606414795,-0.4056411385536194, 0.38342854380607605
77,1017889661,0.67298514,-0.23995693,-0.6621115,-0.22609834,9.82059383392334,-0.006049353163689375,-0.06267629563808441,0.5785332322120667,-1.042449712753296, 0.6101137399673462
78,1017906328,0.67279947,-0.2399463,-0.6623487,-0.22596785,9.846927642822266,0.0023170807398855686,-0.08277896046638489,0.6608524322509766,-1.3710349798202515, 0.5647152066230774
79,1017922995,0.67261565,-0.2399354,-0.6625879,-0.22582512,9.878698348999023,0.01507769338786602,-0.05716874077916145,0.6038386225700378,-1.3897449970245361, 0.6255069375038147
80,1017939662,0.6724507,-0.23991458,-0.66281354,-0.22567631,9.90423583984375,-0.01781364530324936,-0.04663567617535591,0.5476443767547607,-1.2350059747695923, 0.6680752635002136
81,1017956329,0.6723356,-0.23985001,-0.66302675,-0.22546145,9.872834205627441,-0.0010909559205174446,-0.07270270586013794,0.781283438205719,-0.9890600442886353, 0.874321460723877
82,1017972996,0.6722391,-0.23978387,-0.6632145,-0.22526753,9.861702919006348,0.03633080795407295,-0.12542979419231415,0.7742718458175659,-0.7537305355072021, 0.8488433361053467
83,1017989663,0.67215604,-0.2397845,-0.6633495,-0.22511725,9.864008903503418,0.0457720011472702,-0.11682399362325668,0.6140068769454956,-0.486654132604599, 1.0718594789505005
84,1018006330,0.67211056,-0.2397722,-0.6634563,-0.224951,9.871509552001953,0.061163317412137985,-0.12168677151203156,0.6811633110046387,-0.1874721497297287, 1.2021000385284424
85,1018022997,0.67209125,-0.23981489,-0.6635063,-0.22481571,9.825675964355469,0.0589551106095314,-0.1530734896659851,0.6090251207351685,0.1531447321176529, 1.4580732583999634
86,1018039664,0.6721031,-0.23983027,-0.66354746,-0.22464235,9.831354141235352,0.037900060415267944,-0.1569216549396515,0.8699673414230347,0.32241907715797424, 1.5841902494430542
87,1018056331,0.6721925,-0.23984215,-0.66351026,-0.22447225,9.913483619689941,0.0253166314214468,-0.127008318901062,0.7756102085113525,1.0563764572143555, 1.8115414381027222
88,1018072998,0.6723756,-0.239919,-0.6633417,-0.22433995,9.930272102355957,0.06780675053596497,-0.20316846668720245,0.5479517579078674,2.048330783843994, 2.3056490421295166
89,1018089665,0.6726206,-0.24006663,-0.6630655,-0.22426416,9.897693634033203,0.07735265046358109,-0.15429094433784485,0.14750996232032776,2.815687656402588, 2.655710458755493
90,1018106332,0.67293334,-0.24026525,-0.66269314,-0.22421432,9.905781745910645,0.10442335158586502,-0.13865946233272552,-0.11144087463617325,3.5354299545288086, 3.0473928451538086
91,1018122999,0.6733739,-0.24041031,-0.6622386,-0.22407909,9.931085586547852,0.06226823478937149,-0.12713484466075897,-0.39980143308639526,4.469550609588623, 3.542025327682495
92,1018139666,0.673934,-0.24063168,-0.6616157,-0.22399737,9.956975936889648,0.07275506108999252,-0.16665667295455933,-0.7798940539360046,5.762006759643555, 4.1204633712768555
93,1018156333,0.6746343,-0.24088165,-0.66083604,-0.22392185,9.914880752563477,0.06646218150854111,-0.1540093868970871,-1.377387523651123,7.113986968994141, 4.709056377410889
94,1018173000,0.6754462,-0.24127913,-0.659828,-0.22401936,9.916322708129883,0.017811913043260574,-0.12231136858463287,-2.5579543113708496,8.736067771911621, 5.147329330444336
95,1018189667,0.676378,-0.24169542,-0.6586898,-0.22410892,9.882699012756348,0.02744710072875023,-0.06116725131869316,-2.6122915744781494,9.850591659545898, 5.6834797859191895
96,1018206334,0.6774126,-0.2420174,-0.6575239,-0.22405963,9.893414497375488,0.010262180119752884,-0.054606400430202484,-1.5791773796081543,10.369518280029297, 6.118306636810303
97,1018223001,0.6785002,-0.2423192,-0.6563209,-0.22397043,9.87903118133545,0.0060422420501708984,-0.043388042598962784,-0.9835281372070312,10.744218826293945, 6.375829219818115
98,1018239668,0.679656,-0.2425777,-0.65508175,-0.22381315,9.8644380569458,-0.07677562534809113,0.02036828175187111,-0.742281973361969,11.193734169006348, 6.671362400054932
99,1018256335,0.6808946,-0.24290925,-0.65370446,-0.22371626,9.9077730178833,-0.07320909202098846,0.08619526773691177,-1.3243823051452637,12.202378273010254, 7.087557315826416
100,1018273002,0.68229556,-0.2434071,-0.6520213,-0.2238185,9.935674667358398,-0.056703854352235794,0.16497734189033508,-3.183687210083008,14.442380905151367, 7.674718379974365
101,1018289669,0.6837692,-0.24399932,-0.65017235,-0.22405553,9.914525032043457,-0.11713627725839615,0.24121269583702087,-4.005805492401123,15.61111831665039, 7.881222248077393
102,1018306336,0.6852349,-0.24459721,-0.6483094,-0.22432354,9.847352027893066,-0.10182809084653854,0.2985248863697052,-3.6621592044830322,15.656272888183594, 7.80510139465332
103,1018323003,0.68664855,-0.24527167,-0.6464475,-0.22463794,9.883329391479492,-0.1336321085691452,0.29575368762016296,-4.947431564331055,15.401566505432129, 7.837065696716309
104,1018339670,0.68804115,-0.2459982,-0.6445758,-0.22496083,9.817550659179688,-0.1781976819038391,0.3326711058616638,-5.499232292175293,15.296823501586914, 8.016380310058594
105,1018356337,0.6893808,-0.24668522,-0.6428106,-0.22515786,9.825363159179688,-0.24263975024223328,0.46503376960754395,-4.629499912261963,14.402656555175781, 8.187600135803223
106,1018373004,0.69071317,-0.24722275,-0.6411599,-0.2251914,9.829662322998047,-0.22738733887672424,0.4027232229709625,-3.120180130004883,13.779112815856934, 8.099607467651367
107,1018389671,0.6920157,-0.24762006,-0.6396402,-0.22507837,9.851694107055664,-0.29078930616378784,0.44742894172668457,-1.6204910278320312,12.99255657196045, 7.920444488525391
108,1018406338,0.6932943,-0.24785472,-0.63824946,-0.22483273,9.841811180114746,-0.30798807740211487,0.5922389030456543,-0.08028306812047958,12.298709869384766, 7.587839126586914
109,1018423005,0.6945686,-0.24795777,-0.63695055,-0.22446932,9.819109916687012,-0.40238964557647705,0.569699764251709,1.1590458154678345,11.839343070983887, 7.412198066711426
110,1018439672,0.6958068,-0.24795865,-0.63573545,-0.22407794,9.795591354370117,-0.3708973228931427,0.613736629486084,1.7781821489334106,11.392172813415527, 6.8968586921691895
111,1018456339,0.6969579,-0.24796665,-0.6345986,-0.22371387,9.8026704788208,-0.39567866921424866,0.7176512479782104,1.6644483804702759,10.664972305297852, 6.538393974304199
112,1018473006,0.69802845,-0.24793023,-0.633578,-0.22330908,9.798330307006836,-0.4229997992515564,0.7362381815910339,2.2622745037078857,9.736473083496094, 6.234114170074463
113,1018489673,0.698998,-0.24788429,-0.63267195,-0.22289614,9.776436805725098,-0.4447929561138153,0.8383843302726746,2.393270492553711,8.736590385437012, 5.888329029083252
114,1018506340,0.6999231,-0.24773368,-0.6319043,-0.22233745,9.827149391174316,-0.548860490322113,0.8949812650680542,3.3352551460266113,7.798538684844971, 5.806829452514648
115,1018523007,0.7007748,-0.24739666,-0.6313413,-0.22162805,9.80811882019043,-0.4092123806476593,0.76813805103302,5.2342705726623535,6.4981303215026855, 5.269756317138672
116,1018539674,0.70147717,-0.24704927,-0.630942,-0.22092932,9.792253494262695,-0.3809693455696106,0.784341037273407,5.5087738037109375,5.072551250457764, 4.696991920471191
117,1018556341,0.70203686,-0.24674016,-0.63067675,-0.22025357,9.767593383789062,-0.4299320578575134,0.8272997736930847,5.04170036315918,3.7937982082366943, 4.305834770202637
118,1018573008,0.70248055,-0.2463918,-0.63054574,-0.21960276,9.787931442260742,-0.5371428728103638,0.9232012629508972,4.835197925567627,2.75871205329895, 3.593827486038208
119,1018589675,0.70285195,-0.2459767,-0.63051015,-0.2189816,9.79956340789795,-0.4981003701686859,0.7801936268806458,5.042224884033203,2.1249256134033203, 2.8901822566986084
120,1018606342,0.7031216,-0.24565384,-0.63049036,-0.21853428,9.785100936889648,-0.4397970139980316,0.7677627205848694,4.0659332275390625,1.734677791595459, 2.3046884536743164
121,1018623009,0.7033147,-0.24536583,-0.6305194,-0.21815243,9.756709098815918,-0.4964239299297333,0.7710601687431335,3.3469722270965576,1.240071177482605, 1.9311273097991943
122,1018639676,0.7034478,-0.24507527,-0.63060004,-0.217817,9.78117561340332,-0.44446322321891785,0.8388245105743408,3.384737253189087,0.7942178249359131, 1.542992353439331
123,1018656343,0.70354146,-0.24481152,-0.6307048,-0.21750787,9.782464981079102,-0.4147988259792328,0.7735130786895752,2.807823896408081,0.5266803503036499, 1.4145317077636719
124,1018673010,0.70353055,-0.24461553,-0.6308652,-0.2172984,9.770905494689941,-0.4257511794567108,0.8078806400299072,1.9540249109268188,-0.12983077764511108, 0.9860697388648987
125,1018689677,0.7034537,-0.24439631,-0.6311206,-0.21705166,9.79116153717041,-0.486357182264328,0.9447782635688782,1.6211621761322021,-0.8610348701477051, 0.7626757621765137
126,1018706344,0.7033002,-0.24419609,-0.63142437,-0.21689078,9.833362579345703,-0.49230077862739563,0.9124004244804382,1.5450029373168945,-1.354399561882019, 0.27612411975860596
127,1018723011,0.7030985,-0.24401364,-0.63175166,-0.21679729,9.83509635925293,-0.4052995443344116,0.7702895998954773,1.5395218133926392,-1.631055235862732, -0.04359281808137894
128,1018739678,0.7028434,-0.24383019,-0.6321227,-0.21674919,9.79519271850586,-0.4283808469772339,0.6993743181228638,1.0965373516082764,-1.9816420078277588, -0.42928168177604675
129,1018756345,0.7025264,-0.24366239,-0.63254136,-0.2167444,9.777807235717773,-0.43745431303977966,0.7134077548980713,0.839808464050293,-2.4308886528015137, -0.7308071851730347
130,1018773012,0.702158,-0.24346356,-0.6330118,-0.21678825,9.727730751037598,-0.40937426686286926,0.6942864656448364,0.9536824822425842,-2.7868154048919678, -1.242433786392212
131,1018789679,0.701705,-0.243287,-0.6335668,-0.2168324,9.759359359741211,-0.3837609887123108,0.736082911491394,0.5724119544029236,-3.57710862159729, -1.4267685413360596
132,1018806346,0.7012016,-0.24313532,-0.6341609,-0.21689361,9.790034294128418,-0.31610995531082153,0.7095485329627991,0.4435158967971802,-4.001216411590576, -1.5240709781646729
133,1018823013,0.7006084,-0.24299507,-0.6348552,-0.21693769,9.749011039733887,-0.3185475468635559,0.6771648526191711,0.4487025737762451,-4.92130184173584, -1.6806541681289673
134,1018839680,0.6998963,-0.2428094,-0.63571566,-0.2169239,9.689412117004395,-0.31484898924827576,0.6561627984046936,0.3442666828632355,-6.227254390716553, -2.0881779193878174
135,1018856347,0.6989993,-0.24266577,-0.6367596,-0.21691485,9.687236785888672,-0.4182182848453522,0.679248034954071,0.12484270334243774,-7.975423336029053, -2.4937551021575928
136,1018873014,0.6978955,-0.24253066,-0.6380213,-0.21691233,9.714340209960938,-0.47177502512931824,0.8157742619514465,0.20921100676059723,-9.942481994628906, -3.140758514404297
137,1018889681,0.6966836,-0.24229823,-0.6394461,-0.21687338,9.923705101013184,-0.5319623947143555,0.9505265951156616,0.9704592227935791,-11.132987022399902, -3.820558547973633
138,1018906348,0.6954096,-0.2420216,-0.64094746,-0.21683879,9.88864517211914,-0.36424070596694946,0.6527387499809265,1.513576626777649,-11.742095947265625, -4.236560344696045
139,1018923015,0.69408876,-0.24174625,-0.64247805,-0.2168479,9.846267700195312,-0.21344073116779327,0.5614475011825562,1.291258454322815,-12.023823738098145, -4.552198886871338
140,1018939682,0.69273436,-0.24152428,-0.64400345,-0.21690124,9.84424877166748,-0.2305808812379837,0.4844794273376465,1.1847224235534668,-12.176360130310059, -4.530709743499756
141,1018956349,0.69134253,-0.24133098,-0.6455417,-0.21698456,9.849912643432617,-0.1821126937866211,0.41746628284454346,0.5005044937133789,-12.375347137451172, -4.632495403289795
142,1018973016,0.6898617,-0.24126032,-0.64708334,-0.21718465,9.774271011352539,-0.19041578471660614,0.3911290764808655,-0.30824902653694153,-12.794998168945312, -4.746330738067627
143,1018989683,0.6882639,-0.24126679,-0.6487117,-0.2173896,9.773550987243652,-0.23902742564678192,0.47537291049957275,-0.8188770413398743,-13.82806396484375, -4.736739158630371
144,1019006350,0.686615,-0.24120091,-0.6504597,-0.21745324,9.875378608703613,-0.2422512322664261,0.5708798170089722,-0.32882896065711975,-14.726125717163086, -4.682274341583252
145,1019023017,0.6849156,-0.24118575,-0.6522253,-0.21754071,9.861858367919922,-0.1749943345785141,0.3491947650909424,-0.2677297592163086,-15.108175277709961, -4.648580551147461
146,1019039684,0.68318564,-0.24114528,-0.6540355,-0.21759066,9.759856224060059,-0.175784170627594,0.2972259819507599,0.06916075199842453,-15.483467102050781, -4.6951069831848145
147,1019056351,0.6814206,-0.2410623,-0.65593034,-0.21751356,9.915705680847168,-0.15648245811462402,0.3237670660018921,0.5670464634895325,-16.173526763916016, -4.484275817871094
148,1019073018,0.67957544,-0.24102578,-0.65787077,-0.21746619,9.866217613220215,-0.031591419130563736,0.17240116000175476,0.6913962364196777,-16.79811668395996, -4.589095592498779
149,1019089685,0.6778007,-0.24096425,-0.6597629,-0.21734136,9.893735885620117,-0.14683952927589417,0.3746313452720642,0.30997157096862793,-16.310029983520508, -4.156189441680908
150,1019106352,0.6762733,-0.24068569,-0.66156,-0.21694529,10.024535179138184,-0.06741664558649063,-0.06831738352775574,2.9578404426574707,-14.89145565032959, -3.3390796184539795
151,1019123019,0.6750186,-0.24040191,-0.66305363,-0.21660705,10.080716133117676,0.11241929233074188,-0.27541399002075195,2.704542636871338,-12.127031326293945, -2.7108113765716553
152,1019139686,0.6740078,-0.24055603,-0.66401064,-0.21665236,9.908761978149414,0.051739491522312164,-0.3486485481262207,-0.6692215204238892,-8.553043365478516, -1.2189342975616455
153,1019156353,0.6731636,-0.24065436,-0.6648099,-0.2167164,9.858428955078125,-0.04264242574572563,-0.32288557291030884,-0.9786102771759033,-6.907171249389648, -1.0354833602905273
154,1019173020,0.67244804,-0.24062482,-0.66554075,-0.21672751,9.916558265686035,-0.04589368402957916,-0.32657143473625183,0.40265092253685,-5.897517204284668, -1.0602378845214844
155,1019189687,0.67186326,-0.24045801,-0.66622037,-0.21663848,9.892417907714844,0.05284581705927849,-0.29944658279418945,1.1098432540893555,-4.9875359535217285, -0.9351966381072998
156,1019206354,0.6713321,-0.24030542,-0.666831,-0.21657604,9.86468505859375,0.0012644556118175387,-0.1944413185119629,1.0223119258880615,-4.3907856941223145, -0.7843378186225891
157,1019223021,0.6707943,-0.24017037,-0.6674433,-0.21650629,9.830698013305664,-0.06681127101182938,-0.02365492470562458,1.4949047565460205,-4.47798490524292, -0.6738190650939941
158,1019239688,0.6702605,-0.23987669,-0.6681652,-0.21625768,9.933064460754395,-0.049949005246162415,0.03581203892827034,2.247123956680298,-4.997306823730469, -0.7402326464653015
159,1019256355,0.6697421,-0.23945045,-0.66897714,-0.21582595,9.910591125488281,0.0639054998755455,-0.04093318060040474,3.6406726837158203,-5.449691295623779, -0.6201604008674622
160,1019273022,0.6692002,-0.23911178,-0.6697783,-0.21539715,9.933001518249512,0.1460484266281128,-0.17572206258773804,3.741305351257324,-5.65573263168335, -0.24025993049144745
161,1019289689,0.6686834,-0.2388544,-0.67051154,-0.21500574,9.877703666687012,0.01920812577009201,-0.22707591950893402,3.3398900032043457,-5.291840076446533, 0.1275576651096344
162,1019306356,0.66821724,-0.23857409,-0.6712132,-0.21457684,9.851184844970703,-0.022032154724001884,-0.2986834645271301,3.5918288230895996,-4.934824466705322, 0.33092251420021057
163,1019323023,0.66778016,-0.23831378,-0.6718563,-0.21421386,9.833697319030762,-0.006859370972961187,-0.3081384301185608,3.087822675704956,-4.443753242492676, 0.2670060396194458
164,1019339690,0.66732985,-0.2381567,-0.67243207,-0.21398553,9.836318969726562,0.02605317533016205,-0.2482653558254242,2.115410566329956,-4.128575325012207, 0.22004511952400208
165,1019356357,0.6668598,-0.23806238,-0.6729834,-0.21382193,9.891733169555664,0.0035043328534811735,-0.14240965247154236,1.2185560464859009,-4.084649085998535, 0.23793557286262512
166,1019373024,0.6663895,-0.23795375,-0.67356104,-0.21359044,9.912491798400879,0.0070602381601929665,-0.1439245045185089,1.5319660902023315,-4.298861980438232, 0.4494580924510956
167,1019389691,0.66591525,-0.23787358,-0.674147,-0.21331008,9.921784400939941,0.0882430300116539,-0.2058776468038559,2.0130748748779297,-4.494439601898193, 0.7852789759635925
168,1019406358,0.6654543,-0.23782615,-0.67471755,-0.21299763,9.890976905822754,0.12347006052732468,-0.17806412279605865,1.7627365589141846,-4.459234714508057, 1.1461107730865479
169,1019423025,0.66501945,-0.23784025,-0.67523056,-0.21271369,9.924038887023926,0.02712818793952465,-0.2675282955169678,1.7168769836425781,-4.1362080574035645, 1.4384413957595825
170,1019439692,0.66467136,-0.23772503,-0.6757448,-0.21229771,9.901422500610352,0.015175014734268188,-0.3754926919937134,2.375687599182129,-3.7474207878112793, 1.5916568040847778
171,1019456359,0.66436183,-0.23761182,-0.67620796,-0.21191841,9.8377103805542,0.03407430648803711,-0.43538135290145874,1.716979742050171,-3.260061740875244, 1.5927708148956299
172,1019473026,0.6640214,-0.23765634,-0.6765748,-0.21176428,9.851239204406738,0.018120404332876205,-0.38494277000427246,0.3524627387523651,-2.8361709117889404, 1.4023786783218384
173,1019489693,0.6637169,-0.23772314,-0.6768794,-0.21167015,9.905611991882324,-0.018839240074157715,-0.3546765148639679,-0.01764714904129505,-2.315976858139038, 1.3930554389953613
174,1019506360,0.66351336,-0.23778367,-0.6770883,-0.21157247,9.921205520629883,0.06561779975891113,-0.43532049655914307,-0.01728857308626175,-1.404382586479187, 1.690252661705017
175,1019523027,0.6634449,-0.237876,-0.67715377,-0.21147405,9.913625717163086,0.08926546573638916,-0.43675607442855835,-0.09270516782999039,-0.16536839306354523, 2.2819316387176514
176,1019539694,0.6634915,-0.23797488,-0.6771106,-0.21135516,9.899328231811523,0.07934703677892685,-0.4482648968696594,0.34662309288978577,0.8173971772193909, 2.7517194747924805
177,1019556361,0.66361153,-0.23798934,-0.6770451,-0.21117121,9.885137557983398,-0.020785097032785416,-0.4001463055610657,0.6466886401176453,1.2959579229354858, 2.8232431411743164
178,1019573028,0.6637103,-0.23808084,-0.6769315,-0.21112221,9.873091697692871,-0.015063120983541012,-0.3821842670440674,0.3796762526035309,1.5038176774978638, 2.5956997871398926
179,1019589695,0.6638381,-0.23816724,-0.67677695,-0.21111812,9.919251441955566,0.005943408701568842,-0.3123481869697571,-0.4762040376663208,1.927067518234253, 2.5002923011779785
180,1019606362,0.6639664,-0.23833255,-0.6765607,-0.21122113,9.916746139526367,-0.019064050167798996,-0.3178943395614624,-0.6466181874275208,2.2461118698120117, 2.4644601345062256
181,1019623029,0.6640873,-0.23851134,-0.6763485,-0.21131895,9.8758544921875,-0.015954481437802315,-0.34443792700767517,-0.6219531297683716,2.1591951847076416, 2.538084030151367
182,1019639696,0.6642778,-0.23861493,-0.67613417,-0.21129014,9.882652282714844,-0.032661810517311096,-0.22448807954788208,-0.20353129506111145,2.412684202194214, 2.893857002258301
183,1019656363,0.6644833,-0.23866957,-0.67592657,-0.21124586,9.883078575134277,-0.0505293570458889,-0.3078141212463379,0.15405400097370148,2.490290880203247, 2.7520015239715576
184,1019673030,0.6646745,-0.23868181,-0.6757541,-0.21118253,9.856042861938477,-0.06197633966803551,-0.2658359706401825,0.24166223406791687,2.2985029220581055, 2.5737242698669434
185,1019689697,0.66479987,-0.23875605,-0.675601,-0.21119332,9.871316909790039,-0.05443091690540314,-0.31426942348480225,0.38962677121162415,1.904835820198059, 2.3755075931549072
186,1019706364,0.6649553,-0.23869456,-0.67549163,-0.21112391,9.871932029724121,-0.03476154804229736,-0.355756014585495,0.13899371027946472,1.9520524740219116, 2.1238880157470703
187,1019723031,0.665087,-0.23867391,-0.6753685,-0.2111264,9.87269115447998,-0.003461819142103195,-0.28403565287590027,-0.37692931294441223,1.9634504318237305, 1.9760903120040894
188,1019739698,0.66520035,-0.23867515,-0.675243,-0.21116954,9.873005867004395,-0.06489485502243042,-0.204546257853508,-0.44343262910842896,1.9140818119049072, 1.8678251504898071
189,1019756365,0.66530615,-0.23865089,-0.67514807,-0.21116741,9.898568153381348,-0.13880649209022522,-0.0812687873840332,0.08714079856872559,1.6899324655532837, 1.894654631614685
190,1019773032,0.6654502,-0.23852211,-0.67508,-0.211076,9.919303894042969,-0.025746526196599007,-0.25924524664878845,0.5477851629257202,1.753823161125183, 1.8405989408493042
191,1019789699,0.6655975,-0.23840474,-0.6749981,-0.21100673,9.878100395202637,-0.014847144484519958,-0.3402670621871948,0.4120635390281677,1.8479756116867065, 1.8247320652008057
192,1019806366,0.66570884,-0.23833232,-0.67491883,-0.2109906,9.828255653381348,-0.06841803342103958,-0.2968932092189789,0.3314475417137146,1.6800715923309326, 1.728825330734253
193,1019823033,0.66576326,-0.23830076,-0.6748512,-0.21107063,9.82949447631836,-0.06932186335325241,-0.23602642118930817,0.22493712604045868,1.4412071704864502, 1.3646894693374634
194,1019839700,0.6657671,-0.23820585,-0.67487836,-0.21107912,9.866259574890137,-0.08026815950870514,-0.12950286269187927,0.17782257497310638,0.7673628926277161, 1.189063310623169
195,1019856367,0.6657306,-0.23802786,-0.67500865,-0.21097845,9.868877410888672,-0.04371025785803795,-0.15819019079208374,0.9072465896606445,0.04847843945026398, 1.0836796760559082
196,1019873034,0.66566443,-0.23787485,-0.6751675,-0.21085171,9.908162117004395,0.00774024473503232,-0.23718318343162537,1.000784158706665,-0.30831286311149597, 1.229531168937683
197,1019889701,0.66559654,-0.23776187,-0.67530864,-0.2107415,9.876382827758789,-0.04133287072181702,-0.2753959894180298,1.06295907497406,-0.2810097634792328, 1.3655219078063965
198,1019906368,0.66553265,-0.23759648,-0.67547005,-0.21061268,9.837729454040527,-0.06821998953819275,-0.2889938950538635,1.174553632736206,-0.3029726445674896, 1.189460277557373
199,1019923035,0.6654847,-0.23729283,-0.67569196,-0.2103945,9.854376792907715,-0.08445865660905838,-0.24674342572689056,1.3373223543167114,-0.4207782745361328, 0.9064526557922363
200,1019939702,0.6653693,-0.2371335,-0.6758744,-0.21035361,9.868715286254883,-0.04268018528819084,-0.284620463848114,1.1315498352050781,-0.5208982825279236, 0.6974018216133118
201,1019956369,0.6652891,-0.23687887,-0.6760861,-0.21021368,9.891755104064941,0.011903750710189342,-0.2477632462978363,1.0279465913772583,-0.48162123560905457, 0.7408666014671326
202,1019973036,0.6652297,-0.2366761,-0.6762559,-0.2100839,9.892731666564941,0.00805758684873581,-0.29174306988716125,1.0372823476791382,-0.2639772891998291, 1.0312249660491943
203,1019989703,0.66516185,-0.23653995,-0.6763962,-0.21000029,9.884303092956543,-0.025192825123667717,-0.2776883542537689,1.1482110023498535,-0.21158649027347565, 1.1538329124450684
204,1020006370,0.665102,-0.23640762,-0.6765217,-0.20993453,9.863162994384766,-0.04119435325264931,-0.3078761100769043,1.3631399869918823,-0.0944596379995346, 1.1210870742797852
205,1020023037,0.6650128,-0.23640744,-0.6765808,-0.21002708,9.856226921081543,-0.015221078880131245,-0.31129083037376404,1.1818276643753052,0.10028012096881866, 1.044774055480957
206,1020039704,0.6649774,-0.23625946,-0.6766871,-0.20996338,9.87861156463623,-0.023051250725984573,-0.3145551383495331,1.0212103128433228,0.14383451640605927, 1.1221884489059448
207,1020056371,0.66494244,-0.23608501,-0.6768088,-0.2098782,9.851046562194824,-0.019008910283446312,-0.2591644823551178,0.9707788825035095,0.0882805734872818, 1.0833852291107178
208,1020073038,0.6648733,-0.23593889,-0.6769563,-0.20978598,9.870768547058105,-0.04270616173744202,-0.21921315789222717,0.9694855213165283,-0.24752114713191986, 1.1566888093948364
209,1020089705,0.664765,-0.2358057,-0.67712563,-0.20973189,9.880411148071289,-0.04410858824849129,-0.2640669643878937,1.1859512329101562,-0.5059789419174194, 0.9388655424118042
210,1020106372,0.6646772,-0.23566099,-0.67728776,-0.20964973,9.88064956665039,0.018256831914186478,-0.29524853825569153,0.9155323505401611,-0.39466607570648193, 1.0690292119979858
211,1020123039,0.66459984,-0.23553242,-0.6774332,-0.20956993,9.855633735656738,-0.021297652274370193,-0.28436312079429626,0.811160683631897,-0.29170307517051697, 1.1803549528121948
212,1020139706,0.66459656,-0.23511747,-0.6776866,-0.20922714,9.875128746032715,-0.053763408213853836,-0.2696153521537781,1.012527585029602,-0.3804253935813904, 1.0516124963760376
213,1020156373,0.6644971,-0.23499516,-0.6778431,-0.20917273,9.880836486816406,-0.020115358754992485,-0.25500693917274475,0.9855062365531921,-0.4266819357872009, 1.0381531715393066
214,1020173040,0.6643307,-0.23501779,-0.677978,-0.20923875,9.88845157623291,0.01184772327542305,-0.2792411148548126,0.8671371340751648,-0.6916709542274475, 1.0684144496917725
215,1020189707,0.66422904,-0.2349405,-0.6781248,-0.20917249,9.891467094421387,0.014487512409687042,-0.29008999466896057,0.7244359850883484,-0.48156997561454773, 1.321813702583313
216,1020206374,0.66416764,-0.23491886,-0.6781975,-0.20915642,9.911731719970703,0.02634481154382229,-0.3088410496711731,0.6616976857185364,0.031189866364002228, 1.5206067562103271
217,1020223041,0.66415036,-0.23486552,-0.6782535,-0.20908968,9.896790504455566,-0.0191965289413929,-0.30521702766418457,0.8266178965568542,0.2820662558078766, 1.7060426473617554
218,1020239708,0.66416144,-0.23473522,-0.67831457,-0.20900272,9.865890502929688,-0.05093652755022049,-0.34903180599212646,0.6597383618354797,0.48586657643318176, 1.4926378726959229
219,1020256375,0.66421634,-0.23446114,-0.6784183,-0.20879918,9.83332347869873,-0.019382966682314873,-0.3438771963119507,0.647392988204956,0.5514606237411499, 1.3876510858535767
220,1020273042,0.664211,-0.23437946,-0.67845976,-0.20877312,9.882791519165039,-0.012521245516836643,-0.2858029901981354,0.770180344581604,0.5091612339019775, 1.4320893287658691
221,1020289709,0.6642106,-0.2342618,-0.6785158,-0.20872459,9.884610176086426,-0.028609581291675568,-0.23581472039222717,0.7529429197311401,0.4881076216697693, 1.3598999977111816
222,1020306376,0.6642258,-0.23410091,-0.67859465,-0.20860024,9.916316986083984,-0.028510430827736855,-0.21273601055145264,0.7552481293678284,0.4073379933834076, 1.5084280967712402
223,1020323043,0.664276,-0.23383902,-0.6786983,-0.2083971,9.92428207397461,0.023620428517460823,-0.2879026234149933,0.5204436779022217,0.4999791383743286, 1.4426161050796509
224,1020339710,0.6642941,-0.23379597,-0.678698,-0.20838843,9.886940956115723,0.026938963681459427,-0.34606364369392395,0.1665145456790924,0.7738043665885925, 1.6499378681182861
225,1020356377,0.66430074,-0.23378755,-0.67869496,-0.20838678,9.85871410369873,-0.034851573407649994,-0.3098657727241516,0.0017992921639233828,0.6934446096420288, 1.768908977508545
226,1020373044,0.66423696,-0.23396388,-0.67864,-0.20857143,9.862288475036621,-0.07579518109560013,-0.27545779943466187,0.41573888063430786,0.5731289386749268, 1.696104884147644
227,1020389711,0.66422486,-0.23389976,-0.67868596,-0.2085321,9.875914573669434,-0.047067925333976746,-0.2930436432361603,0.6150954365730286,0.3931485712528229, 1.5706796646118164
228,1020406378,0.66423637,-0.23376623,-0.678751,-0.20843373,9.85793685913086,0.041298143565654755,-0.35855188965797424,0.46327608823776245,0.44013503193855286, 1.5422366857528687
229,1020423045,0.66429263,-0.23355874,-0.67882097,-0.20825896,9.881163597106934,-0.01717243902385235,-0.2814621925354004,0.2128223329782486,0.6386206746101379, 1.6330722570419312
230,1020439712,0.66429573,-0.23362279,-0.67877364,-0.20833188,9.89574909210205,-0.051767703145742416,-0.21793727576732635,0.3298339247703552,0.857122540473938, 1.8050613403320312
231,1020456379,0.6642697,-0.23372352,-0.67872876,-0.2084481,9.888915061950684,-0.04204605147242546,-0.2913966774940491,0.49617552757263184,0.7045477032661438, 1.7183752059936523
232,1020473046,0.66427445,-0.23365834,-0.67876756,-0.20838,9.864182472229004,-0.042150918394327164,-0.3069736361503601,0.6365844011306763,0.45052093267440796, 1.7405812740325928
233,1020489713,0.6642979,-0.23350474,-0.6788412,-0.2082374,9.84805965423584,0.012240663170814514,-0.3616544008255005,0.44227373600006104,0.41290876269340515, 1.6662790775299072
234,1020506380,0.66427445,-0.23348781,-0.6788767,-0.20821583,9.85751724243164,-0.0222531296312809,-0.24892108142375946,0.4870319366455078,0.3300516605377197, 1.7112932205200195
235,1020523047,0.66423386,-0.23339114,-0.6789886,-0.20808896,9.855437278747559,-0.04652445763349533,-0.20875754952430725,0.8576731085777283,-0.1424962431192398, 1.6888821125030518
236,1020539714,0.66411793,-0.23333299,-0.6791389,-0.20803359,9.886695861816406,-0.056535255163908005,-0.24349504709243774,0.9934718608856201,-0.6344522833824158, 1.3514477014541626
237,1020556381,0.6640115,-0.23320028,-0.67932844,-0.20790333,9.878530502319336,-0.011826541274785995,-0.3081618547439575,1.0487439632415771,-0.7688804268836975, 1.315525770187378
238,1020573048,0.6639116,-0.23303767,-0.6795323,-0.2077385,9.862960815429688,-0.022138232365250587,-0.32695260643959045,0.7418782711029053,-0.8004481792449951, 1.3395377397537231
239,1020589715,0.6638243,-0.23290639,-0.6797024,-0.20760792,9.865323066711426,-0.03906062990427017,-0.327129602432251,1.0066367387771606,-0.59319007396698, 1.3848209381103516
240,1020606382,0.6637222,-0.23275554,-0.6799041,-0.20744295,9.85103702545166,-0.04786299169063568,-0.2935943007469177,1.2754802703857422,-0.834679365158081, 1.3773547410964966
241,1020623049,0.6636253,-0.23255041,-0.6801334,-0.20723139,9.873429298400879,-0.07457975298166275,-0.257599413394928,1.4711744785308838,-0.9284347891807556, 1.3095070123672485
242,1020639716,0.6634899,-0.23238981,-0.6803659,-0.20708191,9.851339340209961,-0.02767196111381054,-0.3263038396835327,1.5686308145523071,-1.108889102935791, 1.152526617050171
243,1020656383,0.6633109,-0.23234165,-0.6805748,-0.20702349,9.837697982788086,-0.00600586598739028,-0.3143504559993744,1.6146950721740723,-1.2487983703613281, 1.2063900232315063
244,1020673050,0.6631501,-0.23208198,-0.68089765,-0.20676768,9.870165824890137,-0.06401526182889938,-0.242869034409523,1.7563458681106567,-1.6492527723312378, 1.020710825920105
245,1020689717,0.66295344,-0.23184584,-0.68125033,-0.20650241,9.941386222839355,-0.0327751599252224,-0.22207438945770264,1.9381321668624878,-2.012389659881592, 1.0660710334777832
246,1020706384,0.6627022,-0.23175249,-0.681566,-0.20637181,9.934344291687012,0.0386272631585598,-0.3078092634677887,1.659568428993225,-2.123075008392334, 1.0645215511322021
247,1020723051,0.6625881,-0.23133896,-0.68196285,-0.20589018,9.92889404296875,0.033090345561504364,-0.3983171582221985,1.1442793607711792,-1.8577017784118652, 1.361077904701233
248,1020739718,0.6625336,-0.23108432,-0.6822111,-0.20552939,9.952707290649414,0.04552891477942467,-0.4308415353298187,0.645702600479126,-0.9586066007614136, 1.8512284755706787
249,1020756385,0.6625184,-0.23110947,-0.6822259,-0.20550065,9.942594528198242,0.013276554644107819,-0.44393181800842285,0.3025820255279541,0.3545117676258087, 1.9876670837402344
250,1020773052,0.6626613,-0.23115195,-0.68206775,-0.20551677,9.928634643554688,-0.011166984215378761,-0.4384329319000244,-0.6303926110267639,1.9489153623580933, 2.385394334793091
251,1020789719,0.6629309,-0.23116152,-0.6817783,-0.20559753,9.89224624633789,-0.043709833174943924,-0.5195623636245728,-1.4978562593460083,3.3123812675476074, 2.3471415042877197
252,1020806386,0.6632389,-0.2312222,-0.68139255,-0.2058147,9.827677726745605,-0.10888908803462982,-0.33992302417755127,-1.490761399269104,4.05479097366333, 2.1416122913360596
253,1020823053,0.6635662,-0.23123099,-0.68101627,-0.20599571,9.848722457885742,-0.006026311777532101,-0.45088842511177063,-0.6659303307533264,4.10592794418335, 2.0598182678222656
254,1020839720,0.6638797,-0.23126136,-0.6806264,-0.20623988,9.800045013427734,-0.02130819298326969,-0.3625602424144745,-0.40022405982017517,4.157690525054932, 1.8562740087509155
255,1020856387,0.6642219,-0.23107003,-0.6803515,-0.20625953,9.818496704101562,-0.05846979469060898,-0.2913091480731964,0.09435077756643295,3.771847724914551, 1.7524656057357788
256,1020873054,0.66445154,-0.23112285,-0.6800379,-0.20649496,9.86557388305664,-0.09225832670927048,-0.2196233719587326,0.5172420144081116,3.3436288833618164, 1.7302210330963135
257,1020889721,0.6646953,-0.23085734,-0.6799123,-0.20642002,9.881808280944824,-0.038699377328157425,-0.19078443944454193,0.415802925825119,2.5899112224578857, 1.4698039293289185
258,1020906388,0.66484374,-0.23065993,-0.6798507,-0.20636617,9.907386779785156,-0.07060536742210388,-0.12781010568141937,0.08169810473918915,1.7782447338104248, 1.4505689144134521
259,1020923055,0.66484344,-0.23062941,-0.6798335,-0.20645826,9.86418342590332,-0.07101906090974808,-0.10417758673429489,0.23694948852062225,0.8205733299255371, 1.2328096628189087
260,1020939722,0.66473264,-0.23059244,-0.6799467,-0.2064835,9.862128257751465,-0.044712815433740616,-0.15842127799987793,0.8524227142333984,-0.4044373631477356, 1.1355839967727661
261,1020956389,0.66454434,-0.23047091,-0.6801979,-0.20639871,9.853887557983398,-0.057716235518455505,-0.17489883303642273,0.9551421999931335,-1.4364752769470215, 0.936176061630249
262,1020973056,0.66434115,-0.23016262,-0.68058735,-0.2061121,9.866340637207031,-0.06911623477935791,-0.21977823972702026,1.0685553550720215,-2.152299165725708, 0.7936670780181885
263,1020989723,0.664012,-0.23013058,-0.68091995,-0.2061102,9.85525894165039,-0.0645676702260971,-0.24001170694828033,1.3199825286865234,-2.504448413848877, 0.6085257530212402
264,1021006390,0.66370064,-0.22992204,-0.6813477,-0.20593277,9.867984771728516,-0.04540888965129852,-0.2968860864639282,1.5061484575271606,-2.8471591472625732, 0.5013750791549683
265,1021023057,0.6634729,-0.22943068,-0.68187207,-0.20547861,9.850874900817871,-0.01353729609400034,-0.36908337473869324,1.6349031925201416,-2.8680460453033447, 0.48517492413520813
266,1021039724,0.6632604,-0.22902822,-0.6823238,-0.20511372,9.862332344055176,-0.006240074057132006,-0.3910609483718872,1.9235072135925293,-2.4790401458740234, 0.5968847274780273
267,1021056391,0.6630442,-0.22883418,-0.6826528,-0.20493433,9.861166954040527,0.034766148775815964,-0.40652212500572205,1.9113539457321167,-1.9835880994796753, 0.8554192781448364
268,1021073058,0.6629028,-0.2286365,-0.6829088,-0.2047594,9.861042022705078,0.007614380680024624,-0.4150351583957672,1.749738097190857,-1.282965898513794, 1.045068621635437
269,1021089725,0.66280353,-0.22855826,-0.6830496,-0.20469864,9.932598114013672,-0.0331912524998188,-0.4223549962043762,1.7069649696350098,-0.5719059705734253, 1.2893626689910889
270,1021106392,0.6628947,-0.22823472,-0.68315107,-0.20442568,9.95604419708252,0.04383150488138199,-0.4275749921798706,1.3473752737045288,0.5769324898719788, 1.5211703777313232
271,1021123059,0.6630273,-0.2282753,-0.6829858,-0.20450306,9.953855514526367,0.053554967045784,-0.43830981850624084,0.5092508792877197,1.9615933895111084, 2.023320198059082
272,1021139726,0.6632932,-0.22825816,-0.68272424,-0.20453304,9.922117233276367,-0.01586175337433815,-0.32334551215171814,-0.0417230948805809,3.061415910720825, 2.344785451889038
273,1021156393,0.6636346,-0.22810936,-0.68247443,-0.20442529,9.891865730285645,-0.013620494864881039,-0.36283907294273376,0.09390255063772202,3.3582921028137207, 2.480135202407837
274,1021173060,0.66395295,-0.22803085,-0.6822007,-0.20439282,9.862038612365723,-0.003330279840156436,-0.37510111927986145,0.1587667018175125,3.359956979751587, 2.446134090423584
275,1021189727,0.6642857,-0.2279449,-0.6819147,-0.20436187,9.868491172790527,0.027255361899733543,-0.33841001987457275,-0.051788873970508575,3.5029399394989014, 2.450296401977539
276,1021206394,0.66457224,-0.22805496,-0.6815544,-0.20451003,9.865606307983398,-0.006792549975216389,-0.35702598094940186,0.07095358520746231,3.581238031387329, 2.5464084148406982
277,1021223061,0.66490495,-0.22803591,-0.68123454,-0.20451544,9.84643840789795,-0.03349478170275688,-0.3131113648414612,0.2904416024684906,3.5974385738372803, 2.6276514530181885
278,1021239728,0.66519916,-0.22805916,-0.6809295,-0.20454815,9.823269844055176,-0.043531063944101334,-0.27822786569595337,0.48982366919517517,3.319309711456299, 2.6088647842407227
279,1021256395,0.66545266,-0.22800128,-0.6807215,-0.20448044,9.821249961853027,-0.039209552109241486,-0.25309208035469055,0.5703500509262085,2.659001588821411, 2.498781681060791
280,1021273062,0.66566783,-0.2279056,-0.6805854,-0.20434044,9.854000091552734,-0.009026328101754189,-0.2373809814453125,0.7984694242477417,2.0962648391723633, 2.492736577987671
281,1021289729,0.6657762,-0.22798301,-0.6804502,-0.20435163,9.86009407043457,-0.047257620841264725,-0.20440620183944702,1.0038193464279175,1.5357823371887207, 2.4134654998779297
282,1021306396,0.66587603,-0.22779086,-0.68049705,-0.20408426,9.832603454589844,-0.052598532289266586,-0.18978756666183472,1.0441850423812866,0.6714561581611633, 2.1964361667633057
283,1021323063,0.6658341,-0.2277021,-0.680623,-0.20390013,9.85677433013916,-0.08417103439569473,-0.09567029029130936,0.8905343413352966,-0.3929116129875183, 1.9556255340576172
284,1021339730,0.66565335,-0.22772348,-0.6808359,-0.20375572,9.808771133422852,-0.05084500461816788,-0.1957969069480896,0.9177606701850891,-1.5635015964508057, 1.9355195760726929
285,1021356397,0.66534114,-0.22771765,-0.68120986,-0.20353213,9.817987442016602,0.012872310355305672,-0.09661103785037994,1.0081350803375244,-2.9939708709716797, 1.7430275678634644
286,1021373064,0.6649791,-0.22751018,-0.68178254,-0.20302857,9.878264427185059,0.0020059996750205755,-0.13732433319091797,0.6321535110473633,-4.227222919464111, 1.7754404544830322
287,1021389731,0.6644117,-0.22764269,-0.6823784,-0.2027364,9.86806869506836,-0.10764704644680023,-0.04078059270977974,0.5380780696868896,-5.517526626586914, 2.0069282054901123
288,1021406398,0.66378236,-0.22773626,-0.6830858,-0.20230994,9.919702529907227,-0.15514129400253296,-0.1259355992078781,1.2164050340652466,-6.47861909866333, 2.1791739463806152
289,1021423065,0.66308033,-0.22788484,-0.68383914,-0.2018995,9.849705696105957,-0.042554572224617004,-0.27179425954818726,1.1839791536331177,-7.098176956176758, 2.17764949798584
290,1021439732,0.6622999,-0.22803093,-0.68468714,-0.20142141,9.817678451538086,-0.025444457307457924,-0.32257187366485596,0.5792826414108276,-7.980003833770752, 2.246260166168213
291,1021456399,0.66138923,-0.22832978,-0.68561095,-0.20093296,9.773821830749512,0.04264628142118454,-0.34262293577194214,0.5303558707237244,-9.186124801635742, 2.691107749938965
292,1021473066,0.66032076,-0.2287202,-0.68668276,-0.20034243,9.811736106872559,-0.01880383864045143,-0.2562856376171112,0.5240039825439453,-10.891292572021484, 3.1405599117279053
293,1021489733,0.6589285,-0.22932917,-0.6880256,-0.19962174,9.803947448730469,-0.09948287904262543,0.14457128942012787,0.6461768746376038,-14.179444313049316, 3.865682601928711
294,1021506400,0.65698606,-0.22988528,-0.69004,-0.19842798,9.708736419677734,-0.2625216543674469,0.5064569711685181,2.4482638835906982,-20.500869750976562, 3.974501132965088
295,1021523067,0.65430313,-0.23039939,-0.692936,-0.19659565,9.828036308288574,-0.1501011699438095,0.391423761844635,6.57373046875,-29.00668716430664, 4.201590538024902
296,1021539734,0.65078205,-0.23093335,-0.6967796,-0.19405511,9.757257461547852,0.08941162377595901,0.22269436717033386,8.541285514831543,-38.40612030029297, 4.922461032867432
297,1021556401,0.6462753,-0.23140793,-0.70172864,-0.1906883,9.547248840332031,-0.0011406732955947518,0.5481774210929871,10.966118812561035,-49.282371520996094, 5.41223669052124
298,1021573068,0.64084804,-0.23165382,-0.7077833,-0.186279,9.572100639343262,-0.23310108482837677,0.04590514302253723,17.916364669799805,-60.063289642333984, 5.93022346496582
299,1021589735,0.63458335,-0.23210317,-0.7145217,-0.1813769,9.70205307006836,0.10843659192323685,-0.41354885697364807,18.085773468017578,-68.19152069091797, 7.052728652954102
300,1021606402,0.6270255,-0.23358506,-0.72181565,-0.17682277,9.810149192810059,0.046819716691970825,0.01473042368888855,13.055420875549316,-77.80989074707031, 7.822861671447754
301,1021623069,0.61819273,-0.23523852,-0.7300155,-0.17200235,9.530679702758789,-0.6197682023048401,0.14272525906562805,12.629231452941895,-88.71739196777344, 6.835666656494141
302,1021639736,0.6086883,-0.23611705,-0.73903364,-0.16608271,9.108176231384277,-0.9943943619728088,-1.5717439651489258,19.448686599731445,-96.40276336669922, 5.829912185668945
303,1021656403,0.59878314,-0.2369224,-0.74817383,-0.15990417,9.319796562194824,-0.7185190320014954,-2.5974345207214355,19.581621170043945,-99.23633575439453, 6.120689392089844
304,1021673070,0.5879172,-0.23881796,-0.75721,-0.15478845,9.104898452758789,-0.23722319304943085,-1.8690185546875,10.384533882141113,-103.30182647705078, 5.934041976928711
305,1021689737,0.5757255,-0.24144916,-0.766473,-0.15089245,8.445698738098145,0.3076073229312897,-1.4083962440490723,-1.3733346462249756,-109.88475799560547, 3.204829454421997
306,1021706404,0.5630788,-0.24340941,-0.77602476,-0.14658341,8.972384452819824,-0.964543342590332,-3.142360210418701,3.9400970935821533,-113.48941802978516, 0.10243623703718185
307,1021723071,0.5501508,-0.2445673,-0.7857649,-0.14178057,9.396819114685059,-0.3579391837120056,-2.807504653930664,9.963321685791016,-115.75162506103516, -3.0877199172973633
308,1021739738,0.536481,-0.24594215,-0.79548246,-0.13753437,8.932414054870605,-0.2830120027065277,-2.654940605163574,4.434427261352539,-118.94145965576172, -4.569995403289795
309,1021756405,0.5223754,-0.24700218,-0.80524975,-0.13301921,8.929194450378418,-1.7595404386520386,-2.8849682807922363,6.305120468139648,-121.68523406982422, -5.775352478027344
310,1021773072,0.5080365,-0.24814254,-0.8147471,-0.12852547,8.139573097229004,-1.4423656463623047,-3.826367139816284,5.441890716552734,-122.0791244506836, -5.309024333953857
311,1021789739,0.49345112,-0.24981858,-0.8238025,-0.12431274,6.8854217529296875,-0.6235960721969604,-4.323067665100098,1.0105315446853638,-121.89889526367188, -2.718123435974121
312,1021806406,0.4789658,-0.25113335,-0.8325724,-0.11981064,6.612196445465088,-0.43616729974746704,-6.792693614959717,3.8961925506591797,-120.53092956542969, -3.2794644832611084
313,1021823073,0.46507195,-0.25212818,-0.84064597,-0.1160227,8.25534725189209,0.007961317896842957,-6.606812477111816,1.1263246536254883,-113.25772857666016, -5.677196979522705
314,1021839740,0.45163387,-0.2526063,-0.84819967,-0.11305686,9.511712074279785,-0.07775919884443283,-6.383077144622803,-6.237752437591553,-106.869384765625, -7.022672176361084
315,1021856407,0.43872347,-0.2535513,-0.8549326,-0.11104561,9.32259464263916,-1.0095789432525635,-6.29780387878418,-8.279461860656738,-100.15522003173828, -8.457334518432617
316,1021873074,0.4266529,-0.2542337,-0.86106974,-0.10908188,8.123597145080566,-0.5621094107627869,-6.730912208557129,-11.656496047973633,-92.95674133300781, -4.927242279052734
317,1021889741,0.415361,-0.25519165,-0.86648726,-0.10751741,7.512190818786621,0.4254498779773712,-7.49330472946167,-13.684256553649902,-85.75520324707031, -2.7040560245513916
318,1021906408,0.40496475,-0.25511584,-0.8716287,-0.10578372,8.750778198242188,0.4387226998806,-7.41909646987915,-8.561827659606934,-79.13385772705078, -6.880392074584961
319,1021923075,0.39549437,-0.25383282,-0.87644994,-0.10486269,10.621227264404297,0.1443922370672226,-7.979865074157715,-8.923540115356445,-70.40280151367188, -14.756094932556152
320,1021939742,0.38690066,-0.25284657,-0.88043743,-0.105896555,10.202359199523926,-0.021326882764697075,-7.69937801361084,-15.567667961120605,-59.81073760986328, -20.414840698242188
321,1021956409,0.3797975,-0.25142616,-0.8836525,-0.10818925,8.486385345458984,0.29088467359542847,-8.244251251220703,-20.000036239624023,-46.2614860534668, -23.96966552734375
322,1021973076,0.37465057,-0.24983206,-0.88593554,-0.11111493,6.171811103820801,0.6620270609855652,-8.822287559509277,-20.69641876220703,-30.709732055664062, -23.611536026000977
323,1021989743,0.37212676,-0.24728674,-0.88742393,-0.11339024,5.08678674697876,1.3288758993148804,-8.776238441467285,-15.029372215270996,-13.092494010925293, -20.033811569213867
324,1022006410,0.37204003,-0.24513221,-0.8878382,-0.11509653,4.865662574768066,2.4718422889709473,-8.52322769165039,-8.918298721313477,3.308901071548462, -12.737948417663574
325,1022023077,0.37441882,-0.24333915,-0.88722986,-0.11587677,5.1777119636535645,3.3572490215301514,-8.186700820922852,-0.7944300174713135,19.193340301513672, -4.4888997077941895
326,1022039744,0.37916172,-0.24143167,-0.88566935,-0.11638022,8.485994338989258,2.5285699367523193,-8.705780029296875,3.937053918838501,35.74549102783203, -0.5514310598373413
327,1022056411,0.3863412,-0.24044427,-0.88252425,-0.11868198,11.829174995422363,-0.9636260867118835,-9.153188705444336,-6.577570915222168,56.977073669433594, 4.837993621826172
328,1022073078,0.3963448,-0.24092193,-0.87729114,-0.12343128,13.317917823791504,0.4913474917411804,-9.819581031799316,-22.916236877441406,82.44866943359375, 13.210183143615723
329,1022089745,0.40946838,-0.24248526,-0.86986095,-0.12994686,13.121345520019531,2.759126901626587,-10.40775203704834,-33.31703186035156,109.20149230957031, 21.0357666015625
330,1022106412,0.42807525,-0.244588,-0.8590548,-0.13769774,14.83407211303711,2.774007797241211,-10.641277313232422,-35.667694091796875,153.0785675048828, 30.731504440307617
331,1022123079,0.45497403,-0.2496323,-0.84133583,-0.15114214,20.364459991455078,3.0232622623443604,-10.199151039123535,-65.65546417236328,229.34783935546875, 47.29096603393555
332,1022139746,0.49138603,-0.25631326,-0.8143142,-0.17246178,31.2264461517334,2.965691328048706,-6.585455894470215,-109.7220687866211,325.26531982421875, 58.06794738769531
333,1022156413,0.5385327,-0.25941077,-0.77731407,-0.19616084,40.63051223754883,-2.6279733180999756,1.1104156970977783,-103.94180297851562,427.3609924316406, 60.36250686645508
334,1022173080,0.5926368,-0.2563435,-0.7330327,-0.21386977,26.72288703918457,-12.410552024841309,3.6771867275238037,-46.61492156982422,488.7494812011719, 71.8772201538086
335,1022189747,0.6364242,-0.24332626,-0.699714,-0.21485968,23.73702621459961,-4.889187812805176,-23.147607803344727,76.05179595947266,376.7304382324219, 54.97888946533203
336,1022206414,0.65373355,-0.25577387,-0.67139995,-0.2375749,11.378520965576172,2.582202911376953,-12.515289306640625,-176.9268341064453,226.61569213867188, 34.77869415283203
337,1022223081,0.6547116,-0.2814936,-0.6503419,-0.26301527,-1.4133440256118774,1.2768088579177856,-2.668691396713257,-266.0564270019531,102.02286529541016, 44.421546936035156
338,1022239748,0.6485569,-0.29681978,-0.6444671,-0.27557462,-0.8338664770126343,-5.575984477996826,-11.005411148071289,-147.95941162109375,-4.311580657958984, 13.652765274047852
339,1022256415,0.6469869,-0.29230723,-0.6523473,-0.26535857,-0.1541910618543625,2.4406025409698486,0.35941845178604126,76.85472106933594,-53.90716552734375, 7.767978668212891
340,1022273082,0.64532715,-0.28143546,-0.66566,-0.24749005,0.5591980218887329,3.826569080352783,-1.8561038970947266,149.2117462158203,-82.26495361328125, 2.2711634635925293
341,1022289749,0.64566773,-0.2648452,-0.67987084,-0.22528513,1.3148103952407837,3.6852645874023438,2.050340175628662,199.85842895507812,-75.69783020019531, -2.8936123847961426
342,1022306416,0.6471809,-0.24783623,-0.69083554,-0.20612586,1.1217259168624878,6.379342079162598,1.468308687210083,184.59051513671875,-49.649864196777344, -10.547428131103516
343,1022323083,0.6472511,-0.23974256,-0.69564223,-0.1991966,0.8152816295623779,7.40270471572876,2.809149742126465,75.64546203613281,-20.918947219848633, -14.0010986328125
344,1022339750,0.6452988,-0.24220854,-0.6951116,-0.20433307,0.5404108762741089,3.4430794715881348,2.825705051422119,-39.67877960205078,-1.4916797876358032, -10.966360092163086
345,1022356417,0.6429079,-0.24805392,-0.6924309,-0.213742,0.5096583366394043,0.5927769541740417,1.8933277130126953,-78.83271026611328,8.225095748901367, -10.725584983825684
346,1022373084,0.6404022,-0.2542759,-0.68944645,-0.22338316,0.2869202792644501,-0.5028111338615417,2.122586250305176,-82.24504089355469,8.79548168182373, -9.607878684997559
347,1022389751,0.6387402,-0.258691,-0.686989,-0.2305285,0.22266818583011627,-1.6093977689743042,2.0170252323150635,-60.17641830444336,8.816590309143066, -6.837784290313721
348,1022406418,0.6387071,-0.25981402,-0.68554246,-0.23364252,0.4693434536457062,-2.3727543354034424,1.8230258226394653,-22.182653427124023,10.060246467590332, -3.9557740688323975
349,1022423085,0.6402992,-0.25777718,-0.68508714,-0.23287512,0.952732264995575,-2.3520843982696533,1.42879319190979,14.474477767944336,11.464213371276855, -1.0360733270645142
350,1022439752,0.6426986,-0.25434256,-0.68498313,-0.23033464,1.2421200275421143,-0.9964385032653809,0.9606397151947021,30.965370178222656,12.78449535369873, 0.7895978093147278
351,1022456419,0.6446957,-0.2526191,-0.6843126,-0.22863719,1.1726226806640625,-0.7141446471214294,0.8136447668075562,17.827911376953125,12.138808250427246, 5.447811603546143
352,1022473086,0.6457506,-0.25316757,-0.6833606,-0.22789982,1.14931058883667,-1.4578332901000977,0.9249444007873535,1.1580084562301636,7.032680988311768, 10.866353988647461
353,1022489753,0.6458014,-0.25536072,-0.68249273,-0.22790894,1.1054893732070923,-1.3426613807678223,1.1306108236312866,-11.27205753326416,0.6421686410903931, 13.515982627868652
354,1022506420,0.64514595,-0.25828207,-0.68186235,-0.22836035,1.5491224527359009,-0.9384015202522278,1.3593696355819702,-17.453781127929688,-4.118081092834473, 13.403885841369629
355,1022523087,0.64441097,-0.26107338,-0.68141055,-0.22861011,2.0448639392852783,-0.8726766705513,1.2889982461929321,-15.795902252197266,-5.47083044052124, 13.216052055358887
356,1022539754,0.64424616,-0.2627927,-0.6812451,-0.22759533,2.3693511486053467,-1.349738359451294,0.9686376452445984,-3.6526050567626953,-4.684759140014648, 14.151676177978516
357,1022556421,0.64470065,-0.2633616,-0.6814773,-0.22493991,2.449084758758545,-1.7608331441879272,0.27357110381126404,10.86290454864502,-4.731350898742676, 16.244882583618164
358,1022573088,0.6453088,-0.26324478,-0.68225527,-0.2209391,1.8294568061828613,-1.1449038982391357,-0.333540141582489,21.321388244628906,-7.808798313140869, 18.20158576965332
359,1022589755,0.64556706,-0.2627928,-0.6836258,-0.21644077,1.113163948059082,-0.27535802125930786,-0.8098894357681274,25.404945373535156,-12.456388473510742, 17.20642852783203
360,1022606422,0.64442956,-0.26360044,-0.6854234,-0.21313772,1.4852946996688843,0.37752416729927063,-1.1994179487228394,12.308135032653809,-20.600688934326172, 14.968725204467773
361,1022623089,0.6408917,-0.26663047,-0.6878322,-0.21227492,2.8838353157043457,0.6777517199516296,-2.5115480422973633,-12.488964080810547,-33.42031478881836, 10.013901710510254
362,1022639756,0.6340687,-0.27037433,-0.6925461,-0.21270175,1.8575422763824463,2.8015875816345215,-4.49565315246582,-24.383331298828125,-57.72872543334961, -1.2967376708984375
363,1022656423,0.62310696,-0.27367854,-0.7008195,-0.2137694,2.0335114002227783,3.3206961154937744,-6.248474597930908,-27.982778549194336,-91.00997161865234, -18.786823272705078
364,1022673090,0.60997224,-0.27368695,-0.71261805,-0.2126319,-0.7836531400680542,1.1808524131774902,-4.586172103881836,-2.110262393951416,-115.73702239990234, -34.968475341796875
365,1022689757,0.58007807,-0.26764008,-0.74220836,-0.20251593,-8.204727172851562,20.042205810546875,-69.45909881591797,61.8005485534668,-280.46435546875, -84.96780395507812
366,1022706424,0.5413419,-0.2584564,-0.78018206,-0.17740521,33.76079559326172,-43.41861343383789,-6.102391242980957,146.5019989013672,-381.4109802246094, -68.50647735595703
367,1022723091,0.5276286,-0.22390984,-0.81000024,-0.124014944,10.785475730895996,-12.392948150634766,8.520706176757812,426.9735412597656,-236.6331024169922, -55.30775451660156
368,1022739758,0.49911132,-0.23023677,-0.82403344,-0.13731483,137.3695068359375,41.69507598876953,22.68485450744629,-129.49969482421875,-193.95790100097656, -58.14238357543945
369,1022756425,0.46403527,-0.22416961,-0.84472245,-0.14446777,12.376415252685547,-9.63677978515625,1.069342017173767,-55.823997497558594,-252.49935913085938, -123.3575210571289
370,1022773092,0.44603267,-0.20770422,-0.8602352,-0.13385291,-30.550580978393555,-2.47719669342041,-23.154735565185547,101.61766052246094,-153.84439086914062, -102.30648803710938
371,1022789759,0.43182588,-0.21226114,-0.86622757,-0.13464457,-3.2653157711029053,8.494857788085938,-12.592370986938477,-33.639434814453125,-105.04777526855469, 4.202602863311768
372,1022806426,0.42317665,-0.21097454,-0.8709974,-0.13335012,25.855106353759766,9.145334243774414,-7.823982238769531,3.2382473945617676,-65.87432098388672, -17.332500457763672
373,1022823093,0.41674656,-0.21083763,-0.87418354,-0.1329671,11.155385971069336,1.0082868337631226,-9.327427864074707,-3.719289541244507,-47.76510238647461, -8.691038131713867
374,1022839760,0.41585833,-0.21115686,-0.87454313,-0.13287722,11.192322731018066,-1.7985364198684692,-11.742568969726562,-1.345563530921936,-6.3638224601745605, 2.360921621322632
375,1022856427,0.42045853,-0.21430139,-0.8712302,-0.13511111,13.972105026245117,9.528992652893066,-11.148690223693848,-18.82274627685547,37.90585708618164, 23.008516311645508
376,1022873094,0.42953256,-0.2207365,-0.86427236,-0.140776,11.240194320678711,3.5687355995178223,-11.620579719543457,-45.595821380615234,77.2342529296875, 42.43204879760742
377,1022889761,0.44789928,-0.22774254,-0.8522872,-0.1453737,13.898451805114746,1.7490479946136475,-12.786430358886719,-31.694765090942383,145.1240234375, 65.63818359375
378,1022906428,0.47654328,-0.23874237,-0.83127344,-0.15779865,23.127527236938477,7.080214977264404,-11.275524139404297,-82.82971954345703,241.43121337890625, 89.37638092041016
379,1022923095,0.5154194,-0.25365075,-0.79733485,-0.18511745,40.079315185546875,5.219474792480469,-4.977917671203613,-178.06588745117188,362.5560607910156, 95.35079193115234
380,1022939762,0.5655114,-0.2635024,-0.7513593,-0.21501155,42.81041717529297,-7.710209846496582,5.29693078994751,-170.12107849121094,477.7121887207031, 93.84000396728516
381,1022956429,0.62356484,-0.26529217,-0.69730335,-0.23358597,26.094892501831055,-6.327844142913818,8.924785614013672,-77.87805938720703,541.6817626953125, 122.5052490234375
382,1022973096,0.6534845,-0.2652142,-0.65949714,-0.2601741,23.582691192626953,20.424270629882812,-38.23797607421875,-133.55349731445312,354.2674560546875, 4.120047569274902
383,1022989763,0.6525236,-0.29011342,-0.6365289,-0.29135126,-0.4464990496635437,-23.18018341064453,-15.126352310180664,-296.37457275390625,111.1521987915039, 14.718457221984863
384,1023006430,0.6419286,-0.29948053,-0.635238,-0.30776516,-5.459518909454346,19.496030807495117,-5.417774200439453,-137.8257598876953,-26.520296096801758, -49.97715377807617
385,1023023097,0.62985027,-0.30224234,-0.64965814,-0.29981652,2.5912210941314697,-20.916595458984375,-11.474449157714844,27.968679428100586,-138.5126190185547, -6.510119438171387
386,1023039764,0.62562215,-0.27917618,-0.6799457,-0.261417,2.1012706756591797,0.047167159616947174,-1.1607906818389893,324.95794677734375,-182.162109375, -7.128236293792725
387,1023056431,0.6212931,-0.2513756,-0.70928985,-0.21845032,4.624894618988037,0.8572079539299011,-2.4756224155426025,364.8394470214844,-178.81683349609375, -7.967331886291504
388,1023073098,0.6120249,-0.23837231,-0.72886646,-0.19330126,1.999485731124878,12.19465160369873,4.605432033538818,191.36715698242188,-152.5110626220703, -2.4255990982055664
389,1023089765,0.59904164,-0.24157418,-0.7388398,-0.19213091,0.7138046026229858,6.0699462890625,3.84405517578125,-15.816995620727539,-112.90725708007812, -11.148430824279785
390,1023106432,0.5901188,-0.24518119,-0.7434521,-0.19731328,-0.7815191745758057,1.455503225326538,4.882909774780273,-50.059295654296875,-60.162628173828125, -20.917505264282227
391,1023123099,0.5861019,-0.24648522,-0.7449595,-0.20192221,-1.0220130681991577,-0.7986728549003601,5.336061000823975,-33.717079162597656,-20.31599998474121, -18.46702003479004
392,1023139766,0.58698434,-0.24422298,-0.74511474,-0.2015341,-0.03557509183883667,-4.1718058586120605,4.5223307609558105,12.668021202087402,6.722117900848389, -7.524352550506592
393,1023156433,0.59157866,-0.23804787,-0.7451792,-0.19514991,0.7721197605133057,-3.61745023727417,3.863355875015259,65.26036071777344,21.470781326293945, 1.8630026578903198
394,1023173100,0.59709203,-0.2316105,-0.74478257,-0.18746795,1.2756898403167725,-2.0942063331604004,3.0820109844207764,73.84014892578125,26.293371200561523, 7.733455181121826
395,1023189767,0.60212344,-0.22692814,-0.7436041,-0.18169037,1.6766142845153809,-0.9647372364997864,1.8849493265151978,55.09507369995117,27.814611434936523, 9.493661880493164
396,1023206434,0.606425,-0.22489232,-0.74144673,-0.1787081,1.704965591430664,-0.43509000539779663,1.395313024520874,27.47871971130371,29.20224952697754, 12.051212310791016
397,1023223101,0.6099599,-0.2258571,-0.7381732,-0.17901224,1.4652420282363892,0.6153693795204163,1.4653284549713135,-4.345635414123535,31.353181838989258, 14.419581413269043
398,1023239768,0.61295724,-0.22875126,-0.73418677,-0.1814774,1.437055230140686,-0.01756865531206131,1.311050295829773,-25.115930557250977,32.606319427490234, 15.598014831542969
399,1023256435,0.61687565,-0.23089874,-0.7301793,-0.18164746,1.63664972782135,-3.982064962387085,1.6857244968414307,-8.962362289428711,34.6758918762207, 22.679401397705078
400,1023273102,0.62304646,-0.2279825,-0.7272105,-0.17609543,1.3210737705230713,-2.3892996311187744,1.105441689491272,46.09367370605469,38.823883056640625, 22.638261795043945
401,1023289769,0.62954485,-0.224379,-0.7241218,-0.17024347,1.2212430238723755,-0.41529154777526855,0.5946634411811829,50.89469909667969,41.34678268432617, 21.039438247680664
402,1023306436,0.6356637,-0.22220558,-0.72035116,-0.16630709,1.0783041715621948,0.03733615577220917,0.10567797720432281,33.78295135498047,43.70153045654297, 20.46943473815918
403,1023323103,0.64091873,-0.22274901,-0.71560144,-0.16591634,1.1099635362625122,1.0063916444778442,-0.39142709970474243,1.9094303846359253,46.02642059326172, 18.93675994873047
404,1023339770,0.6453347,-0.22492622,-0.7101962,-0.16905667,0.9309507012367249,2.482914686203003,-0.3784984052181244,-24.690319061279297,48.34874725341797, 11.47491455078125
405,1023356437,0.6492643,-0.22875635,-0.7039163,-0.17503084,0.5343703031539917,2.0235464572906494,0.24740958213806152,-47.6202392578125,52.33271789550781, 7.791195392608643
406,1023373104,0.6534305,-0.23364435,-0.69702864,-0.18054798,0.9289487600326538,-1.5477110147476196,0.4056340754032135,-50.481624603271484,54.214317321777344, 16.217693328857422
407,1023389771,0.6581705,-0.23720585,-0.69050485,-0.18372685,1.9998124837875366,-3.0035817623138428,-0.28979378938674927,-31.94849395751953,53.22897720336914, 20.473913192749023
408,1023406438,0.6612044,-0.2414941,-0.6854814,-0.18604311,2.6834986209869385,-0.9197862148284912,-3.3176109790802,-32.03953170776367,36.024967193603516, 23.189403533935547
409,1023423105,0.6599321,-0.2503277,-0.68199915,-0.19159986,3.1497745513916016,2.588407278060913,-4.976996898651123,-73.15467071533203,8.3162260055542, 21.807533264160156
410,1023439772,0.6515068,-0.26745927,-0.67987096,-0.20442037,2.78532075881958,3.9599525928497314,-6.089603900909424,-155.39230346679688,-29.76720428466797, 16.049571990966797
411,1023456439,0.63505346,-0.28665164,-0.68255603,-0.22059652,1.2227146625518799,6.300677299499512,-8.242793083190918,-188.30233764648438,-85.5536117553711, -9.42265796661377
412,1023473106,0.59729284,-0.30131936,-0.7085321,-0.22458377,4.700394153594971,15.375943183898926,-71.97067260742188,-117.99712371826172,-304.45648193359375, -55.59092712402344
413,1023489773,0.56383,-0.28701398,-0.75220203,-0.18416888,36.01991271972656,-47.37628936767578,-2.307478189468384,253.83128356933594,-403.26025390625, -44.286865234375
414,1023506440,0.5448817,-0.24751164,-0.79217565,-0.11961245,39.551002502441406,-8.471284866333008,36.260345458984375,500.453369140625,-329.79278564453125, -55.96056365966797
415,1023523107,0.51617366,-0.24678738,-0.81047386,-0.12570015,46.77109909057617,18.755233764648438,-11.795356750488281,-64.76175689697266,-213.36952209472656, -80.57453155517578
416,1023539774,0.4821861,-0.24566019,-0.83031994,-0.13313092,70.52918243408203,20.649757385253906,13.188642501831055,-78.28514862060547,-245.77752685546875, -94.5493392944336
417,1023556441,0.45203322,-0.23427601,-0.8502369,-0.13373598,4.721530914306641,-13.08527946472168,-18.406618118286133,1.4365930557250977,-226.58184814453125, -126.90489196777344
418,1023573108,0.43177345,-0.22962926,-0.8615895,-0.1360629,-16.428529739379883,0.22064535319805145,-11.367042541503906,-21.622894287109375,-145.4524383544922, -70.06511688232422
419,1023589775,0.41690892,-0.23314281,-0.8671602,-0.14096834,0.9738736748695374,14.448482513427734,-11.415765762329102,-58.00410461425781,-99.73601531982422, -15.179527282714844
420,1023606442,0.40899935,-0.23092628,-0.87177396,-0.13932039,16.072742462158203,5.24006462097168,-10.051560401916504,7.861863613128662,-60.4040641784668, -22.16259765625
421,1023623109,0.40467006,-0.23080207,-0.87391806,-0.13873391,14.360006332397461,1.3444374799728394,-10.138211250305176,-1.0171993970870972,-32.34273910522461, -5.229979038238525
422,1023639776,0.40414762,-0.23222035,-0.8735109,-0.14044388,15.561644554138184,1.8846744298934937,-10.356884956359863,-15.496224403381348,-0.21923209726810455, 5.328311443328857
423,1023656443,0.4078062,-0.23434825,-0.8706542,-0.14402719,14.297046661376953,2.9142870903015137,-10.48548698425293,-24.401485443115234,33.974853515625, 12.337393760681152
424,1023673110,0.41728982,-0.23602943,-0.86511,-0.14748506,10.692220687866211,3.190653085708618,-11.190178871154785,-15.6580810546875,76.60118103027344, 20.129756927490234
425,1023689777,0.43497175,-0.23807992,-0.8552557,-0.15054104,10.113385200500488,2.5359480381011963,-12.00071907043457,-5.374209403991699,136.7160186767578, 38.81330108642578
426,1023706444,0.46303087,-0.24308662,-0.8378557,-0.15657832,15.934854507446289,4.319120407104492,-11.710365295410156,-22.56953239440918,222.16810607910156, 70.41218566894531
427,1023723111,0.50265735,-0.25218764,-0.80878985,-0.17205682,28.299671173095703,8.228890419006348,-8.412515640258789,-83.23597717285156,337.4058837890625, 95.96974182128906
428,1023739778,0.5550907,-0.26255164,-0.7651459,-0.19364923,45.960914611816406,7.272058010101318,-0.3812248706817627,-116.67729187011719,468.27264404296875, 122.44666290283203
429,1023756445,0.6176527,-0.2577166,-0.7123014,-0.21147446,40.62049102783203,-1.768787145614624,4.300018787384033,-32.76984405517578,570.1778564453125, 87.05245208740234
430,1023773112,0.66382045,-0.24420595,-0.6713813,-0.2212708,33.71091079711914,6.286563396453857,-29.64801788330078,31.66396141052246,437.1216735839844, 33.62247848510742
431,1023789779,0.675172,-0.25449756,-0.64280623,-0.25725746,0.4769529700279236,-11.01406478881836,-6.777778625488281,-237.67881774902344,227.76622009277344, -49.681644439697266
432,1023806446,0.66126734,-0.28477785,-0.62626135,-0.2990505,-5.464428901672363,13.287603378295898,-14.22006607055664,-379.197509765625,35.07392501831055, -54.191551208496094
433,1023823113,0.6499523,-0.30025908,-0.6277988,-0.3054221,-3.777008533477783,-28.05127716064453,-6.508021354675293,-116.9294662475586,-74.84471893310547, 13.229474067687988
434,1023839780,0.65320206,-0.27369663,-0.65183234,-0.2711814,0.09068574011325836,-5.500829219818115,-0.9188326597213745,323.5995178222656,-107.99049377441406, -2.985399007797241
435,1023856447,0.65929794,-0.24272786,-0.6731058,-0.23096749,1.4762108325958252,0.4765940308570862,4.97376012802124,370.4059753417969,-85.82732391357422, 14.538585662841797
436,1023873114,0.6640196,-0.22076878,-0.6850898,-0.20248099,1.2657816410064697,3.5681562423706055,3.096590518951416,258.1303405761719,-44.79752731323242, 16.40738868713379
437,1023889781,0.6661336,-0.2118605,-0.6885194,-0.19320881,1.11183500289917,7.661970615386963,3.0443904399871826,92.13758087158203,-7.021766662597656, -0.44213971495628357
438,1023906448,0.6656123,-0.21834207,-0.68457574,-0.20161985,0.837697446346283,4.35606050491333,2.3022000789642334,-75.6551513671875,19.57866859436035, -1.2411282062530518
439,1023923115,0.66461945,-0.2312911,-0.67672426,-0.21641949,0.27500200271606445,0.2647242844104767,1.094948649406433,-141.43490600585938,35.85636901855469, 5.22672176361084
440,1023939782,0.66500175,-0.24290988,-0.668238,-0.22854526,-0.09811285883188248,-1.9288873672485352,-0.3224768042564392,-121.67236328125,42.8761100769043, 14.310235977172852
441,1023956449,0.6672794,-0.24902086,-0.6619699,-0.23351711,-0.3762633204460144,-3.0311219692230225,-1.3067528009414673,-56.977516174316406,38.15776443481445, 20.959922790527344
442,1023973116,0.67056894,-0.24911857,-0.6591301,-0.23201808,-0.16109496355056763,-1.4318794012069702,-1.7529457807540894,7.281698703765869,25.634384155273438, 18.99338150024414
443,1023989783,0.673185,-0.2470447,-0.65847355,-0.22849745,-0.20862118899822235,0.6633151769638062,-1.1739146709442139,28.77609634399414,12.548948287963867, 13.640324592590332
444,1024006450,0.6742532,-0.24524729,-0.6590382,-0.22563809,0.18703919649124146,1.853182315826416,-1.1780210733413696,23.79545021057129,0.6048389077186584, 7.3339385986328125
445,1024023117,0.6739813,-0.24466991,-0.66001785,-0.2242095,0.5976576805114746,2.188202142715454,-1.1510694026947021,10.048835754394531,-6.845920562744141, 3.4742047786712646
446,1024039784,0.67248374,-0.24645182,-0.66083634,-0.22434336,0.6189303398132324,1.5193729400634766,-1.003024935722351,-10.273341178894043,-12.647038459777832, 5.350133895874023
447,1024056451,0.669898,-0.2501077,-0.66176003,-0.22530894,0.4418366551399231,0.09347836673259735,-0.7851567268371582,-24.38869285583496,-19.538028717041016, 8.18135929107666
448,1024073118,0.6665202,-0.25411725,-0.6634575,-0.22584665,0.303048700094223,-0.6255493760108948,-0.34559476375579834,-24.231388092041016,-27.970544815063477, 9.204477310180664
449,1024089785,0.6623952,-0.2583688,-0.6656325,-0.22675812,0.862738311290741,-0.2919737696647644,-0.4215070903301239,-27.608585357666016,-33.2768669128418, 6.591631889343262
450,1024106452,0.65673006,-0.26402783,-0.66837555,-0.22864076,1.3627656698226929,-0.1939343363046646,-0.670386016368866,-40.31114959716797,-43.368587493896484, 5.195798873901367
451,1024123119,0.6499884,-0.26963037,-0.6718126,-0.23127912,1.3706541061401367,1.2027323246002197,0.45136281847953796,-44.38898849487305,-49.974388122558594, -1.4305429458618164
452,1024139786,0.64254206,-0.2759731,-0.67517227,-0.23479459,0.9531744718551636,0.7749751210212708,1.536867380142212,-53.16554260253906,-52.432647705078125, -2.8925373554229736
453,1024156453,0.63558567,-0.28078943,-0.67932045,-0.23604962,1.1173802614212036,-1.6917986869812012,1.3233537673950195,-33.7150993347168,-55.47471618652344, -0.6881722211837769
454,1024173120,0.6301824,-0.28122085,-0.68533105,-0.23262425,2.2844696044921875,-2.7194042205810547,0.49282488226890564,13.323504447937012,-58.28129577636719, -1.8133764266967773
455,1024189787,0.62618,-0.2777258,-0.6929121,-0.22505009,3.290111780166626,-2.2739319801330566,0.503451943397522,55.09415054321289,-60.221492767333984, -3.1716949939727783
456,1024206454,0.6216354,-0.27412626,-0.7012337,-0.2161085,3.331434726715088,-1.3391499519348145,0.3645424246788025,62.160221099853516,-68.43912506103516, -0.06676151603460312
457,1024223121,0.61560416,-0.27235976,-0.7096274,-0.20805883,3.197659969329834,0.25307002663612366,0.5178413987159729,47.3273811340332,-76.9543685913086, 2.59391713142395
458,1024239788,0.6073,-0.27273113,-0.7179308,-0.2034388,4.763452529907227,1.7895644903182983,1.666986107826233,17.167137145996094,-84.29802703857422, -4.572831630706787
459,1024256455,0.5966901,-0.27664232,-0.72525364,-0.20357968,5.658333778381348,1.1827956438064575,1.4796699285507202,-26.787429809570312,-87.62910461425781, -8.34451961517334
460,1024273122,0.5844796,-0.2801047,-0.73333126,-0.20532362,4.871711254119873,0.19769829511642456,-1.4868956804275513,-34.91053771972656,-95.0542984008789, -20.82256317138672
461,1024289789,0.5741958,-0.27609974,-0.7431658,-0.20440245,-0.21050971746444702,4.505718231201172,-0.2173604667186737,14.73526382446289,-86.98084259033203, -48.42658615112305
462,1024306456,0.5229561,-0.27290747,-0.7837135,-0.19452274,1.3343377113342285,24.861948013305664,-116.308349609375,22.789161682128906,-435.93658447265625, -124.81912994384766
463,1024323123,0.50474083,-0.24460483,-0.8157488,-0.1413026,38.626522064208984,-27.403057098388672,45.66309356689453,397.687744140625,-274.2681579589844, -43.9008674621582
464,1024339790,0.4873383,-0.22539052,-0.83655787,-0.10899063,16.846210479736328,-22.051578521728516,-0.25085052847862244,238.8245086669922,-204.77769470214844, -46.14631652832031
465,1024356457,0.4714009,-0.22403903,-0.8465374,-0.10473621,109.57843780517578,20.134782791137695,7.304233551025391,11.414608001708984,-129.96900939941406, -19.734180450439453
466,1024373124,0.4401857,-0.22348793,-0.862161,-0.11391079,34.611907958984375,1.9405643939971924,-3.191556930541992,-88.64629364013672,-217.5320281982422, -78.15923309326172
467,1024389791,0.42121902,-0.21485928,-0.87342614,-0.11638011,-15.301063537597656,-4.626131057739258,-14.210514068603516,-9.019919395446777,-135.76368713378906, -89.4521484375
468,1024406458,0.40841952,-0.21109873,-0.8804028,-0.11631542,-13.939179420471191,-2.0589230060577393,-10.764381408691406,-2.2496469020843506,-93.81525421142578, -41.620487213134766
469,1024423125,0.40180078,-0.20768507,-0.8840441,-0.117884174,14.805014610290527,8.922272682189941,-9.992015838623047,-6.8093414306640625,-44.836753845214844, -34.32190704345703
470,1024439792,0.39615265,-0.20424965,-0.8871204,-0.11987474,21.2105655670166,6.404304504394531,-8.509917259216309,-8.28496265411377,-36.767093658447266, -33.97650146484375
471,1024456459,0.39219248,-0.2014279,-0.88913566,-0.122707106,11.591520309448242,0.36972445249557495,-9.51279067993164,-13.539266586303711,-22.952253341674805, -29.620744705200195
472,1024473126,0.39343092,-0.19988841,-0.8885744,-0.12529874,12.667452812194824,2.4187746047973633,-10.923918724060059,-10.505387306213379,14.34356689453125, -13.182954788208008
473,1024489793,0.3996929,-0.20061223,-0.8852788,-0.12762955,9.317132949829102,5.188929557800293,-10.931234359741211,-10.469392776489258,50.104225158691406, 9.443665504455566
474,1024506460,0.41238207,-0.2036938,-0.87846875,-0.12942255,9.107276916503906,5.00313663482666,-11.527265548706055,-7.844386100769043,96.07596588134766, 35.792938232421875
475,1024523127,0.43290177,-0.21014905,-0.86661845,-0.13195933,11.424880027770996,4.866115093231201,-11.907243728637695,-15.374563217163086,155.71331787109375, 68.12995147705078
476,1024539794,0.46263102,-0.22095348,-0.84746146,-0.13772655,15.597427368164062,5.574459552764893,-12.495835304260254,-40.862823486328125,233.07977294921875, 103.40443420410156
477,1024556461,0.5047034,-0.23558061,-0.81636477,-0.15274955,27.732139587402344,8.03126335144043,-9.53994083404541,-99.5172348022461,353.5137939453125, 126.16964721679688
478,1024573128,0.5589488,-0.25332063,-0.7689326,-0.17931779,50.64786148071289,0.9378891587257385,1.2329883575439453,-172.6595916748047,494.182373046875, 142.99993896484375
479,1024589795,0.62105423,-0.26271206,-0.709133,-0.20594119,44.16105270385742,-7.100455284118652,8.796768188476562,-142.51380920410156,593.7470092773438, 129.9393768310547
480,1024606462,0.66994613,-0.25251642,-0.66162825,-0.22285247,23.677587509155273,16.471981048583984,-23.20985221862793,-17.91689682006836,486.44537353515625, 34.78997039794922
481,1024623129,0.67375326,-0.28388593,-0.63162345,-0.25792378,-3.8401410579681396,-28.521583557128906,-25.411365509033203,-343.553466796875,168.2731170654297, 40.95199966430664
482,1024639796,0.66482645,-0.2925194,-0.6286291,-0.2779776,-4.264111042022705,20.10466957092285,-8.836946487426758,-149.9671173095703,-1.082814335823059, -63.94370651245117
483,1024656463,0.6524179,-0.30224127,-0.6374537,-0.27687776,0.6751186847686768,-20.30475425720215,-5.533429145812988,-47.82500076293945,-114.73592376708984, 7.260412693023682
484,1024673130,0.6510896,-0.2853217,-0.6588073,-0.24628128,4.457668304443359,-0.33549320697784424,-0.9936705827713013,247.7935333251953,-132.8997802734375, 17.622159957885742
485,1024689797,0.6553753,-0.25823876,-0.67817265,-0.20948817,2.147498846054077,4.191781997680664,2.9130516052246094,329.0694885253906,-93.48695373535156, 12.751049995422363
486,1024706464,0.6567041,-0.24247456,-0.6895914,-0.18551828,0.18121269345283508,5.3918938636779785,2.6860082149505615,201.5128631591797,-64.94844055175781, 17.66337013244629
487,1024723131,0.65432787,-0.23511319,-0.6968198,-0.17614368,0.25677481293678284,6.389206409454346,2.5174996852874756,82.85693359375,-49.9399528503418, -6.071984767913818
488,1024739798,0.64987975,-0.2356667,-0.6999683,-0.1793589,0.6817684173583984,5.5575761795043945,2.5633294582366943,-21.31505012512207,-30.718250274658203, -20.638320922851562
489,1024756465,0.6476892,-0.23769587,-0.7000496,-0.18422171,0.19296294450759888,0.33501020073890686,1.9586730003356934,-35.92302322387695,-5.280086040496826, -13.090360641479492
490,1024773132,0.6487722,-0.23699653,-0.6990568,-0.18507937,-0.3161953389644623,-0.8614709377288818,1.1974974870681763,-0.5058510899543762,12.188981056213379, -2.4907724857330322
491,1024789799,0.65161216,-0.23342647,-0.6981306,-0.18312563,-0.04972412809729576,-0.29243963956832886,0.39621368050575256,28.749677658081055,19.43410873413086, -1.6372473239898682
492,1024806466,0.654836,-0.22809952,-0.6977509,-0.17975429,0.25737133622169495,0.010201506316661835,-0.6362554430961609,44.72248840332031,18.7961483001709, -4.120593070983887
493,1024823133,0.657495,-0.2225991,-0.69798446,-0.17599803,0.6141472458839417,-0.4965694844722748,-1.1775954961776733,47.219303131103516,12.971681594848633, -4.882897853851318
494,1024839800,0.6592092,-0.21767813,-0.69873923,-0.17271541,0.4405069053173065,-0.4541258215904236,-0.6477600932121277,41.50590515136719,6.139243125915527, -6.1941118240356445
495,1024856467,0.6594138,-0.21486343,-0.69959384,-0.17199756,0.4691968560218811,1.1166385412216187,0.01590057462453842,17.49318504333496,-0.19577094912528992, -9.652441024780273
496,1024873134,0.6579329,-0.21519867,-0.7001105,-0.17511857,0.29857945442199707,1.7237521409988403,0.6824080944061279,-18.135786056518555,-4.798395156860352, -13.392868041992188
497,1024889801,0.6554246,-0.21822661,-0.70012003,-0.18065237,0.24899040162563324,0.7641875147819519,0.869161069393158,-44.05215072631836,-7.100789546966553, -11.819746971130371
498,1024906468,0.652245,-0.22293736,-0.69987077,-0.18725339,0.5804884433746338,-0.024756625294685364,0.5694808959960938,-58.09775924682617,-9.638474464416504, -8.972047805786133
499,1024923135,0.6482395,-0.22902472,-0.699607,-0.19465584,1.020648717880249,-0.34371504187583923,0.3624018728733063,-69.4141616821289,-14.075812339782715, -6.987666130065918
500,1024939802,0.64311993,-0.23666628,-0.69943845,-0.20292677,1.476686716079712,-1.0235532522201538,0.7164897918701172,-82.14845275878906,-20.558528900146484, -5.032268047332764
501,1024956469,0.6373514,-0.24492915,-0.6994529,-0.21110754,1.4881609678268433,-2.326474666595459,1.4536327123641968,-85.27156829833984,-25.492389678955078, -2.8632466793060303
502,1024973136,0.6324077,-0.25140694,-0.69966996,-0.21754177,1.1404109001159668,-1.9934502840042114,1.7498549222946167,-67.3821029663086,-22.757482528686523, -2.968027114868164
503,1024989803,0.62862134,-0.25581452,-0.6999298,-0.22248623,0.86891770362854,-0.9156008362770081,1.5479916334152222,-49.163997650146484,-16.847043991088867, -4.816859722137451
504,1025006470,0.6255925,-0.2597259,-0.6998488,-0.22670634,0.7768345475196838,-0.6876593828201294,1.1527559757232666,-42.72954177856445,-12.23287582397461, -2.3273141384124756
505,1025023137,0.62318486,-0.26342472,-0.6995753,-0.22989188,1.155724287033081,-1.3228256702423096,0.5455597043037415,-36.03480529785156,-9.919578552246094, 2.402912139892578
506,1025039804,0.62207836,-0.26658973,-0.6987651,-0.23169677,1.9339271783828735,-1.948172926902771,0.624072790145874,-25.608577728271484,-3.0021109580993652, 8.765385627746582
507,1025056471,0.62167895,-0.26787746,-0.6987821,-0.23123153,2.2500662803649902,-1.3123573064804077,0.1231960877776146,-4.074827671051025,-4.300130367279053, 9.042675018310547
508,1025073138,0.6193023,-0.26765874,-0.70142525,-0.22985578,2.951072931289673,0.087915800511837,-1.441843867301941,7.2610554695129395,-24.290250778198242, -2.2989749908447266
509,1025089805,0.61470217,-0.26642784,-0.7063706,-0.22848538,3.6768438816070557,1.8903887271881104,-3.5079891681671143,11.091082572937012,-43.18242263793945, -14.954743385314941
510,1025106472,0.6072864,-0.26422378,-0.7146812,-0.22500585,3.854896306991577,0.7567073702812195,-5.310946941375732,25.59031105041504,-73.38334655761719, -21.338417053222656
511,1025123139,0.56492084,-0.26892808,-0.7483766,-0.22018689,1.9399828910827637,24.857696533203125,-102.97250366210938,-20.89496421813965,-364.3578796386719, -82.0223388671875
512,1025139806,0.53400326,-0.25387603,-0.78716403,-0.17540772,51.998199462890625,-39.880489349365234,46.08103942871094,290.7541198730469,-368.91259765625, -20.326990127563477
513,1025156473,0.5119897,-0.23821735,-0.8123263,-0.14578271,25.13727378845215,-6.188656330108643,14.129155158996582,209.5516815185547,-243.7364501953125, -45.161590576171875
514,1025173140,0.4906474,-0.23622017,-0.82627845,-0.14400241,64.97453308105469,19.098045349121094,-4.09767484664917,-4.364185810089111,-168.6254425048828, -47.896820068359375
515,1025189807,0.4578976,-0.24173212,-0.8425761,-0.14821796,60.15009307861328,8.60776424407959,6.326956272125244,-79.77302551269531,-239.2560577392578, -40.440975189208984
516,1025206474,0.43442804,-0.23293383,-0.8580579,-0.14407723,-8.341259002685547,-13.380485534667969,-20.766237258911133,28.36739158630371,-182.38009643554688, -86.2038803100586
517,1025223141,0.4203983,-0.23138176,-0.8653216,-0.14475502,-15.069921493530273,2.503770589828491,-9.149358749389648,-14.869392395019531,-101.51652526855469, -35.39200973510742
518,1025239808,0.41225904,-0.23163642,-0.86877126,-0.14707468,12.737675666809082,11.51425838470459,-11.769560813903809,-24.23842430114746,-54.53188705444336, -17.429128646850586
519,1025256475,0.40756783,-0.22936817,-0.8717026,-0.14635885,18.894710540771484,-0.4195767641067505,-7.811556816101074,6.1414408683776855,-34.750343322753906, -19.52613067626953
520,1025273142,0.40523133,-0.22874388,-0.87274945,-0.14757912,10.91446590423584,3.291504383087158,-8.869856834411621,-8.275858879089355,-14.001877784729004, -9.77295970916748
521,1025289809,0.40639812,-0.22817948,-0.87207454,-0.1492259,13.125996589660645,2.928292989730835,-10.157801628112793,-7.212375164031982,12.419163703918457, -4.328357219696045
522,1025306476,0.41232172,-0.2278085,-0.8691972,-0.15032515,11.635722160339355,3.728377342224121,-10.540306091308594,0.7540755271911621,46.019832611083984, 6.705371856689453
523,1025323143,0.42440796,-0.22818047,-0.86318207,-0.15078369,10.310776710510254,3.4390382766723633,-11.003799438476562,8.91713809967041,89.96529388427734, 24.263397216796875
524,1025339810,0.444213,-0.2315474,-0.85203516,-0.1520001,11.82992935180664,4.288763999938965,-11.9453763961792,2.4963271617889404,148.8356475830078, 55.904701232910156
525,1025356477,0.4739927,-0.23872417,-0.83300894,-0.15634973,17.42467498779297,6.838840007781982,-11.983274459838867,-19.821496963500977,232.3650665283203, 91.67184448242188
526,1025373144,0.51533556,-0.24936664,-0.8024725,-0.16819945,28.842947006225586,9.92941951751709,-7.9504170417785645,-67.44437408447266,344.7656555175781, 118.49960327148438
527,1025389811,0.5687122,-0.2645388,-0.75506306,-0.19097967,51.03718566894531,5.099874496459961,2.9120371341705322,-142.72999572753906,484.663330078125, 147.797119140625
528,1025406478,0.6290544,-0.27294838,-0.6945089,-0.21784094,44.93606185913086,-1.7047407627105713,11.363112449645996,-142.1397247314453,588.660400390625, 129.89236450195312
529,1025423145,0.6762208,-0.25540194,-0.65309453,-0.22576618,30.135530471801758,7.946183681488037,-33.47762680053711,64.64718627929688,445.67913818359375, 32.07141876220703
530,1025439812,0.68769515,-0.2608707,-0.63315296,-0.24113667,-8.183547019958496,-24.756330490112305,-18.932662963867188,-105.18158721923828,162.66798400878906, 7.795841217041016
531,1025456479,0.67343533,-0.27516773,-0.632796,-0.2652248,-4.980985641479492,26.496774673461914,-14.545239448547363,-198.7316436767578,-40.86713409423828, -73.1115493774414
532,1025473146,0.6565347,-0.28339225,-0.6469321,-0.26483437,-0.9942975044250488,-23.899124145507812,-6.709399700164795,-42.503414154052734,-154.64291381835938, -18.136749267578125
533,1025489813,0.6498127,-0.26060277,-0.67468864,-0.23373607,2.4734978675842285,-0.9015748500823975,0.6038000583648682,278.67926025390625,-174.17755126953125, -25.765193939208984
534,1025506480,0.6492272,-0.22832647,-0.699522,-0.19247784,2.717712163925171,-1.4705758094787598,5.036458492279053,374.59442138671875,-135.576904296875, -9.273388862609863
535,1025523147,0.648571,-0.20562679,-0.71432346,-0.16377673,1.1557550430297852,7.31812858581543,4.048214912414551,257.92022705078125,-84.02163696289062, -3.613507032394409
536,1025539814,0.6459973,-0.19779624,-0.72049,-0.15641685,1.0671157836914062,7.390924453735352,4.085986137390137,74.3627700805664,-41.45572280883789, -15.63088321685791
537,1025556481,0.6422569,-0.20372142,-0.7201439,-0.16554129,0.699406623840332,3.4790966510772705,4.2201128005981445,-76.93020629882812,-10.665565490722656, -13.040706634521484
538,1025573148,0.639659,-0.21347897,-0.7163685,-0.17912784,-0.1345410943031311,-1.1272461414337158,2.909721851348877,-118.23394775390625,12.02556324005127, -7.647846698760986
539,1025589815,0.6393693,-0.22088663,-0.71181625,-0.18905349,-0.3168018162250519,-3.135056734085083,1.7082964181900024,-87.45188903808594,24.33698844909668, 0.8370152711868286
540,1025606482,0.6409567,-0.22434601,-0.708018,-0.19380754,-0.06367743015289307,-2.363786220550537,0.77935391664505,-40.98495101928711,27.498397827148438, 5.501726150512695
541,1025623149,0.6429671,-0.22590971,-0.70517236,-0.19569793,0.15304745733737946,-1.5200361013412476,0.172567680478096,-16.793439865112305,23.487279891967773, 7.957575798034668
542,1025639816,0.6445391,-0.22645165,-0.7033067,-0.19661231,0.46595218777656555,-0.41101837158203125,-0.3398168087005615,-6.923467636108398,16.910415649414062, 5.186021327972412
543,1025656483,0.6453724,-0.22698987,-0.7018177,-0.19856912,0.6736312508583069,1.2377588748931885,0.29417890310287476,-12.595890045166016,13.320557594299316, -1.043705701828003
544,1025673150,0.6455783,-0.22894002,-0.6999185,-0.20232841,0.6708549857139587,1.4751347303390503,1.0710129737854004,-29.09259605407715,13.01961612701416, -2.4363653659820557
545,1025689817,0.64536303,-0.23229216,-0.6976237,-0.20706435,0.32008007168769836,0.2464728206396103,1.3447635173797607,-41.220375061035156,12.350249290466309, 0.024300208315253258
546,1025706484,0.64506143,-0.23585577,-0.6955239,-0.21100187,0.050385043025016785,-1.2456316947937012,1.8414055109024048,-38.19075393676758,9.509285926818848, 4.1457133293151855
547,1025723151,0.64487636,-0.23780239,-0.6946349,-0.21230726,0.3680538237094879,-1.8558038473129272,1.7091658115386963,-16.500629425048828,2.7857747077941895, 6.274919509887695
548,1025739818,0.6445782,-0.23845793,-0.6947882,-0.2119751,0.8862980604171753,-0.5975013375282288,0.7436395287513733,-1.635947346687317,-3.155933141708374, 5.476949691772461
549,1025756485,0.6434526,-0.2397309,-0.69534993,-0.21211843,1.3765733242034912,-0.16278782486915588,-0.00183603644836694,-7.411192417144775,-9.0234375, 4.433912754058838
550,1025773152,0.6414946,-0.24177806,-0.6959832,-0.21364255,1.6529221534729004,1.235726237297058,1.1763026714324951,-18.708162307739258,-12.15532112121582, 0.6898087859153748
551,1025789819,0.6394065,-0.2451642,-0.69596714,-0.21608165,1.2856175899505615,0.5005353689193726,1.3737460374832153,-30.153995513916016,-10.35048770904541, 3.9607303142547607
552,1025806486,0.6372606,-0.24870971,-0.6961915,-0.21764034,1.2506433725357056,-1.4672328233718872,0.455745667219162,-26.378320693969727,-13.395445823669434, 8.105119705200195
553,1025823153,0.63574,-0.2501547,-0.6973137,-0.21683787,1.7396924495697021,-2.014702558517456,-0.5308246612548828,-3.4733288288116455,-15.216994285583496, 7.778488636016846
554,1025839820,0.6338474,-0.25069514,-0.69942117,-0.21495788,2.13535737991333,-0.9528253078460693,-0.8525744676589966,6.457723140716553,-21.79300308227539, 5.878977298736572
555,1025856487,0.6305581,-0.25208402,-0.70221764,-0.21388818,2.7946395874023438,-0.2839239239692688,-1.0223798751831055,-2.5318238735198975,-31.350900650024414, 3.1636853218078613
556,1025873154,0.6248242,-0.2553103,-0.70588404,-0.21481772,2.8623294830322266,-0.455674409866333,-0.887090802192688,-23.111711502075195,-46.14408874511719, -1.7388626337051392
557,1025889821,0.6178068,-0.25639704,-0.71169704,-0.21463966,3.3098950386047363,-0.27534767985343933,0.13560451567173004,-7.634660720825195,-60.36341094970703, -13.035249710083008
558,1025906488,0.61178917,-0.25212163,-0.7197646,-0.20998852,3.7188687324523926,0.8250648975372314,1.5518139600753784,42.1307258605957,-65.0107192993164, -22.779165267944336
559,1025923155,0.6073812,-0.24252874,-0.72974265,-0.19937672,4.029850006103516,0.6558210253715515,-0.6367191672325134,99.54498291015625,-67.73553466796875, -25.0080623626709
560,1025939822,0.5875825,-0.23029369,-0.75418824,-0.18143669,-0.647478461265564,19.474796295166016,-57.92729949951172,141.5543670654297,-214.00047302246094, -52.90046691894531
561,1025956489,0.53961694,-0.23473312,-0.790342,-0.17053159,51.132720947265625,-19.56304359436035,-26.37027359008789,7.8915324211120605,-416.90673828125, -48.37759017944336
562,1025973156,0.5119375,-0.20795569,-0.82434934,-0.12300497,12.427648544311523,-15.898353576660156,26.419235229492188,353.02203369140625,-321.3928527832031, -55.113677978515625
563,1025989823,0.49495143,-0.19820456,-0.83894426,-0.10916925,31.97711753845215,-15.68714427947998,-17.39726448059082,100.5246810913086,-158.53440856933594, -40.502220153808594
564,1026006490,0.47404957,-0.20087641,-0.84969604,-0.11379645,86.32881927490234,35.827842712402344,22.807838439941406,-56.63823699951172,-152.30763244628906, -29.453811645507812
565,1026023157,0.44669455,-0.19342932,-0.8659318,-0.11497275,20.340246200561523,-6.9298095703125,-13.41717529296875,-7.7731499671936035,-204.96908569335938, -89.77533721923828
566,1026039824,0.43009892,-0.18717748,-0.87544304,-0.11656124,-17.597360610961914,-8.705451011657715,-12.507884979248047,-4.979506492614746,-120.67283630371094, -66.5013427734375
567,1026056491,0.42029545,-0.18666086,-0.8801734,-0.11752365,-5.314536094665527,4.921810150146484,-12.830333709716797,-13.336240768432617,-70.9684066772461, -18.559349060058594
568,1026073158,0.41557184,-0.18197443,-0.8834378,-0.11717684,21.98904037475586,10.470608711242676,-7.993117332458496,12.046584129333496,-34.2437629699707, -33.99718475341797
569,1026089825,0.41130048,-0.17982034,-0.8856736,-0.118685596,14.91065788269043,0.378380686044693,-8.580392837524414,-6.621054172515869,-28.30830955505371, -22.231887817382812
570,1026106492,0.40998945,-0.17783517,-0.8863944,-0.12081309,12.212141990661621,1.3410359621047974,-10.011682510375977,-8.453227043151855,-5.396936416625977, -18.669265747070312
571,1026123159,0.41288257,-0.17662738,-0.8848449,-0.12404722,11.583822250366211,3.47973370552063,-10.30466079711914,-14.129337310791016,27.316682815551758, -10.781771659851074
572,1026139826,0.42101175,-0.17654876,-0.8805524,-0.12733601,9.023885726928711,3.440363645553589,-10.808417320251465,-13.621652603149414,66.05353546142578, 3.740403652191162
573,1026156493,0.4360272,-0.17770462,-0.87267864,-0.12938635,9.477696418762207,2.9233806133270264,-11.188424110412598,-4.444573402404785,115.5323486328125, 25.19015121459961
574,1026173160,0.45963633,-0.18336676,-0.8587121,-0.13316143,13.469966888427734,6.279027462005615,-11.690807342529297,-23.20674705505371,183.47401428222656, 62.170494079589844
575,1026189827,0.4933943,-0.19374429,-0.83585846,-0.1427343,20.412412643432617,8.562623023986816,-11.380044937133789,-67.64852905273438,274.5167236328125, 92.2431411743164
576,1026206494,0.5404968,-0.20859303,-0.79895914,-0.16131945,35.7056999206543,6.798587322235107,-6.192098617553711,-130.62808227539062,406.6256408691406, 119.28923034667969
577,1026223161,0.6008137,-0.22494054,-0.7444938,-0.18482766,58.96859359741211,4.3495259284973145,8.134401321411133,-163.87351989746094,550.1829833984375, 149.2423095703125
578,1026239828,0.6689079,-0.22357082,-0.68061966,-0.19834998,34.13225555419922,-4.307189464569092,5.671525955200195,-39.39118576049805,635.9951171875, 124.29248046875
579,1026256495,0.6923827,-0.2292536,-0.6468777,-0.22272375,26.306283950805664,5.370789051055908,-65.8616714477539,-150.1793670654297,294.7657165527344, 0.013611998409032822
580,1026273162,0.69080883,-0.22982584,-0.6409384,-0.24324647,-15.348709106445312,11.66207504272461,9.157941818237305,-105.5662612915039,52.810447692871094, -86.5283432006836
581,1026289829,0.66072065,-0.25870094,-0.6485899,-0.27542856,-4.226205825805664,-6.287611961364746,-27.388320922851562,-313.7537841796875,-166.370849609375, -86.28564453125
582,1026306496,0.64078367,-0.24768645,-0.67962384,-0.25722903,5.528897762298584,-15.11252498626709,-0.26382914185523987,154.59088134765625,-241.25804138183594, -57.750057220458984
583,1026323163,0.6303717,-0.21433252,-0.7151443,-0.21276574,4.6476731300354,-7.04212760925293,1.604543685913086,400.04156494140625,-221.78530883789062, -37.37929153442383
584,1026339830,0.62523395,-0.18284045,-0.7394288,-0.17001323,-0.041690975427627563,5.4084320068359375,7.794847011566162,374.7651672363281,-147.2564697265625, -11.400971412658691
585,1026356497,0.6194529,-0.1701214,-0.7504536,-0.15544637,1.2794134616851807,8.747403144836426,7.429881572723389,134.31190490722656,-79.94615936279297, -21.153179168701172
586,1026373164,0.61621976,-0.1719314,-0.751002,-0.16345236,0.5088690519332886,2.713252305984497,7.714405536651611,-52.197147369384766,-11.290785789489746, -27.283418655395508
587,1026389831,0.61745775,-0.18018208,-0.74454075,-0.17873718,-0.5708920955657959,-2.7435004711151123,6.073984622955322,-119.65270233154297,42.85771560668945, -11.545958518981934
588,1026406498,0.6211797,-0.19099942,-0.734969,-0.19360498,-0.7727165222167969,-4.851855278015137,4.176471710205078,-129.19253540039062,65.10515594482422, 10.236764907836914
589,1026423165,0.62575877,-0.20064309,-0.72580343,-0.20343366,0.3504926860332489,-5.412387847900391,1.5132315158843994,-97.0950927734375,62.647090911865234, 26.387296676635742
590,1026439832,0.63062054,-0.20607036,-0.7193732,-0.20582123,0.4453984498977661,-4.328554630279541,0.6194908022880554,-37.650760650634766,47.93156051635742, 33.931278228759766
591,1026456499,0.6340524,-0.20924605,-0.715774,-0.20461859,0.4389849901199341,-2.0157432556152344,-0.05977199971675873,-8.191980361938477,26.700716018676758, 32.28661346435547
592,1026473166,0.63579226,-0.2106835,-0.71452266,-0.20210259,0.7373037934303284,-0.7209639549255371,0.0738741084933281,6.7003045082092285,8.715248107910156, 23.680912017822266
593,1026489833,0.63675267,-0.21098398,-0.7145989,-0.1984634,0.953152060508728,0.680974543094635,0.7655053734779358,17.89609146118164,-0.9446371793746948, 19.99221420288086
594,1026506500,0.63751173,-0.21116452,-0.7151313,-0.19386381,0.8395960330963135,0.32724159955978394,1.2309880256652832,23.473955154418945,-5.144253730773926, 22.677806854248047
595,1026523167,0.6384726,-0.21097618,-0.7158529,-0.18815939,1.104060173034668,-0.04028886929154396,0.8517162799835205,31.070173263549805,-6.079991340637207, 25.704139709472656
596,1026539834,0.6393856,-0.21124253,-0.7164073,-0.1825671,1.4648756980895996,0.5562900304794312,0.32062211632728577,28.23529624938965,-5.994006633758545, 27.628568649291992
597,1026556501,0.6393441,-0.21398337,-0.7163482,-0.17972988,1.50032377243042,1.3517645597457886,-0.1252385675907135,1.6342931985855103,-7.087655544281006, 27.403507232666016
598,1026573168,0.63787055,-0.21953078,-0.71582115,-0.18037462,1.5450547933578491,1.3862205743789673,-0.7869923114776611,-30.525625228881836,-10.41390323638916, 24.851348876953125
599,1026589835,0.6351593,-0.2266423,-0.71516025,-0.18373671,1.5698412656784058,1.4468306303024292,-0.7223050594329834,-52.78117370605469,-13.73843002319336, 19.311992645263672
600,1026606502,0.63241965,-0.23245804,-0.7145975,-0.18806008,1.2722026109695435,1.8303048610687256,0.6614798307418823,-51.75871276855469,-11.155275344848633, 8.5667724609375
601,1026623169,0.6302928,-0.23852259,-0.71341527,-0.1920527,0.8201434016227722,0.07426280528306961,1.201104760169983,-51.020904541015625,-6.290478229522705, 13.02629566192627
602,1026639836,0.6296164,-0.2426234,-0.7124716,-0.19263624,1.4053133726119995,-2.692391872406006,0.635832667350769,-23.0955867767334,-3.1979997158050537, 19.693994522094727
603,1026656503,0.630062,-0.2436971,-0.71246034,-0.18984541,1.8816344738006592,-1.437452793121338,0.044529009610414505,9.621638298034668,-3.3464584350585938, 19.379209518432617
604,1026673170,0.6299115,-0.24559288,-0.7127664,-0.18672775,2.2318356037139893,-0.02255576103925705,-0.11224369704723358,7.066208362579346,-9.248420715332031, 23.500415802001953
605,1026689837,0.62916344,-0.24831627,-0.7131256,-0.1842599,2.3000600337982178,0.6031463146209717,0.3766815960407257,-0.6402167081832886,-12.360207557678223, 23.885677337646484
606,1026706504,0.62756574,-0.25114644,-0.7139262,-0.18276608,2.4347853660583496,-0.1486872434616089,0.8228203654289246,-6.762689590454102,-16.899988174438477, 18.371780395507812
607,1026723171,0.62492114,-0.25469393,-0.71507937,-0.18240981,3.3829493522644043,1.349000334739685,1.0723358392715454,-16.806406021118164,-22.49107551574707, 15.06083869934082
608,1026739838,0.6180252,-0.26418352,-0.71602374,-0.1885985,4.793929100036621,4.8563947677612305,-1.8706198930740356,-82.20315551757812,-38.48899459838867, 11.203177452087402
609,1026756505,0.6062513,-0.2759043,-0.71880203,-0.19916703,4.658300399780273,3.839545726776123,-2.8364274501800537,-119.689697265625,-65.22815704345703, -6.031405448913574
610,1026773172,0.59180933,-0.28207758,-0.72588795,-0.20805842,1.8910220861434937,5.457886695861816,-3.478262186050415,-87.4013671875,-91.94219970703125, -38.247989654541016
611,1026789839,0.54481864,-0.28061262,-0.76423347,-0.20095764,-4.6355366706848145,20.29477882385254,-113.83279418945312,5.147951126098633,-401.87628173828125, -118.5189208984375
612,1026806506,0.5232288,-0.25075284,-0.8027318,-0.13778089,56.7546272277832,-51.8409423828125,50.17472457885742,455.9889221191406,-337.5405578613281, -22.75542449951172
613,1026823173,0.5077156,-0.22474119,-0.8245498,-0.10881715,15.629805564880371,-3.979336977005005,3.0045557022094727,247.0564422607422,-188.8129425048828, -90.4583740234375
614,1026839840,0.48317367,-0.22886442,-0.8363087,-0.121488445,101.49689483642578,32.617855072021484,6.432963848114014,-115.81739044189453,-163.0865936279297, -56.15757751464844
615,1026856507,0.44877294,-0.21955407,-0.8564531,-0.1299785,40.08536911010742,-8.622222900390625,-3.6285805702209473,-55.30522537231445,-243.36598205566406, -140.810546875
616,1026873174,0.42969304,-0.2038852,-0.86985654,-0.13096544,-15.836642265319824,-6.8784499168396,-15.68395709991455,25.49837303161621,-138.05096435546875, -131.25961303710938
617,1026889841,0.41540283,-0.20259224,-0.8760679,-0.13751237,-20.086498260498047,6.931861877441406,-9.024415969848633,-50.0455436706543,-93.18524932861328, -47.313743591308594
618,1026906508,0.4098567,-0.19976066,-0.8789406,-0.13994406,14.505898475646973,12.870403289794922,-10.854571342468262,-11.731561660766602,-35.12372589111328, -31.871789932250977
619,1026923175,0.4074299,-0.19690762,-0.8808912,-0.13880353,27.299638748168945,6.03782844543457,-9.17690658569336,13.453767776489258,-18.565122604370117, -17.63107681274414
620,1026939842,0.40813947,-0.19771121,-0.88028574,-0.13941635,14.590788841247559,4.016524314880371,-11.28632926940918,-5.566640853881836,6.403913497924805, 6.064699172973633
621,1026956509,0.41449288,-0.20092672,-0.87651956,-0.13980412,12.63619327545166,5.040126323699951,-11.311782836914062,-6.300244331359863,46.79335021972656, 31.00865364074707
622,1026973176,0.42644602,-0.2063748,-0.8692714,-0.1411662,9.477008819580078,5.21004581451416,-11.0372953414917,-14.100602149963379,89.65216827392578, 51.89684295654297
623,1026989843,0.4471554,-0.21287659,-0.85669297,-0.14429261,10.058381080627441,1.540166974067688,-11.80804443359375,-20.43727684020996,159.1054229736328, 69.11505889892578
624,1027006510,0.4782627,-0.22003832,-0.83665663,-0.1511981,17.07753562927246,2.9022445678710938,-11.780069351196289,-36.908512115478516,248.18930053710938, 82.64881134033203
625,1027023177,0.52193093,-0.23035935,-0.803657,-0.1693087,35.78664779663086,4.677330493927002,-5.279008865356445,-106.2684326171875,376.8558349609375, 96.71810150146484
626,1027039844,0.5745425,-0.2433069,-0.75655466,-0.19579343,53.39561080932617,0.8100628852844238,6.573901176452637,-164.3115234375,487.22515869140625, 114.02819061279297
627,1027056511,0.6351417,-0.24497259,-0.69909555,-0.21876141,29.87131690979004,-9.539226531982422,9.343709945678711,-102.04358673095703,579.0375366210938, 97.3351821899414
628,1027073178,0.6647663,-0.23551269,-0.67005,-0.23164658,31.93050193786621,7.459372520446777,-51.60210418701172,-14.421353340148926,305.1117248535156, -6.756420135498047
629,1027089845,0.6666441,-0.24368425,-0.6561416,-0.25629902,-11.920979499816895,-4.86782169342041,6.702593803405762,-170.0068359375,99.09512329101562, -47.932613372802734
630,1027106512,0.64464515,-0.2685457,-0.6569329,-0.2841874,-2.5610101222991943,5.2044291496276855,-22.01559829711914,-275.29559326171875,-99.99209594726562, -54.26275634765625
631,1027123179,0.6299058,-0.26477164,-0.6779015,-0.27124086,2.6071436405181885,-19.415658950805664,-0.9700514078140259,89.00366973876953,-175.95559692382812, -25.637699127197266
632,1027139846,0.6221217,-0.23830575,-0.70854086,-0.23270695,4.11318826675415,-1.2536063194274902,-2.5961520671844482,337.2320556640625,-189.71876525878906, -25.411684036254883
633,1027156513,0.61720926,-0.20968775,-0.7339454,-0.19082803,1.352768063545227,2.498189926147461,3.527186870574951,359.0583190917969,-155.3346710205078, -8.39828872680664
634,1027173180,0.6109604,-0.19426155,-0.74892783,-0.16764383,-0.10661471635103226,9.303997993469238,4.12451696395874,193.0032958984375,-108.12773895263672, -7.8491644859313965
635,1027189847,0.6046067,-0.19051553,-0.7557939,-0.1641267,-0.5278856158256531,5.230504035949707,4.482405662536621,33.235382080078125,-61.729557037353516, -19.518918991088867
636,1027206514,0.60062766,-0.1908634,-0.7579311,-0.16842078,0.189348965883255,1.458032488822937,4.085007667541504,-26.55414390563965,-24.101442337036133, -21.807825088500977
637,1027223181,0.59924453,-0.19168624,-0.7579554,-0.17225957,0.07790574431419373,-3.277543783187866,3.2796969413757324,-25.17568588256836,-2.9843356609344482, -11.672928810119629
638,1027239848,0.60056585,-0.18942961,-0.7579199,-0.17029977,0.2627357840538025,-4.294375896453857,2.216496467590332,21.180631637573242,7.371136665344238, -0.5839961767196655
639,1027256515,0.6041231,-0.18463022,-0.7579347,-0.1627553,0.39821383357048035,-3.5325560569763184,1.6958516836166382,63.70077133178711,14.532084465026855, 11.737439155578613
640,1027273182,0.60867226,-0.18031634,-0.7571122,-0.1542482,1.1626672744750977,-0.9290270805358887,1.5833555459976196,66.97994232177734,21.427867889404297, 20.406208038330078
641,1027289849,0.6124301,-0.18051097,-0.7546901,-0.15098202,1.3611173629760742,1.7396700382232666,1.721266508102417,18.136276245117188,25.732057571411133, 23.073881149291992
642,1027306516,0.6148287,-0.18559922,-0.7507986,-0.15442683,0.8665505051612854,1.5631014108657837,2.495306968688965,-40.49406814575195,28.129127502441406, 20.629640579223633
643,1027323183,0.6164571,-0.19227311,-0.7465778,-0.160128,0.9260299205780029,-0.07744558155536652,2.1596438884735107,-60.168907165527344,26.752012252807617, 18.886232376098633
644,1027339850,0.61825085,-0.19729958,-0.7429145,-0.16408569,1.2834888696670532,-1.0822913646697998,1.6824328899383545,-43.41159439086914,24.75678062438965, 17.25682258605957
645,1027356517,0.6204401,-0.20052564,-0.73993564,-0.16536732,1.2864277362823486,-1.034283995628357,1.3069978952407837,-20.797271728515625,22.279016494750977, 18.938095092773438
646,1027373184,0.62334186,-0.2025285,-0.73708695,-0.16473417,1.5332326889038086,-1.2738196849822998,0.7921928763389587,-4.723293781280518,24.112289428710938, 21.498964309692383
647,1027389851,0.6264043,-0.20379098,-0.7343602,-0.16373608,1.3567949533462524,0.007634530309587717,1.0658475160598755,0.6420292854309082,24.748231887817383, 19.30862808227539
648,1027406518,0.62964344,-0.20455344,-0.7314826,-0.16324061,1.40548574924469,1.358878254890442,0.9494162201881409,0.3334721028804779,27.571044921875, 15.02591609954834
649,1027423185,0.6331389,-0.20568481,-0.7280565,-0.16361555,1.3617091178894043,0.7765386700630188,0.613720715045929,-5.885005474090576,32.05958938598633, 14.181693077087402
650,1027439852,0.6366264,-0.20769618,-0.7244195,-0.16368577,1.6714553833007812,-1.1298786401748657,-0.27978628873825073,-8.434074401855469,31.53172492980957, 20.207870483398438
651,1027456519,0.6403708,-0.20906566,-0.72108936,-0.16203205,1.8875505924224854,-1.8839095830917358,-0.44538751244544983,3.661911725997925,29.74860954284668, 24.394859313964844
652,1027473186,0.64389527,-0.20979175,-0.71830684,-0.15946461,2.306299924850464,-2.0625200271606445,-0.7184953093528748,11.296120643615723,25.670446395874023, 24.17481231689453
653,1027489853,0.64600474,-0.21257292,-0.71578455,-0.1585892,1.9526124000549316,-0.8029510974884033,-1.1015877723693848,-7.932960033416748,17.737709045410156, 24.884946823120117
654,1027506520,0.64575917,-0.22021657,-0.71298087,-0.16175732,1.3923786878585815,0.734163761138916,-0.8586016297340393,-53.18454360961914,8.030935287475586, 28.69108772277832
655,1027523187,0.64297885,-0.23200923,-0.71018314,-0.16851506,2.1689507961273193,1.9081120491027832,-0.6575974822044373,-93.02752685546875,-3.5747439861297607, 30.2736873626709
656,1027539854,0.63717973,-0.24713795,-0.7078547,-0.17853281,4.158926963806152,1.7632213830947876,-2.1014232635498047,-127.9475326538086,-19.033845901489258, 27.92951202392578
657,1027556521,0.62825286,-0.26173183,-0.7079515,-0.18869844,4.2489800453186035,-0.2859102487564087,-3.2554328441619873,-128.64297485351562,-43.951072692871094, 16.74527359008789
658,1027573188,0.61724085,-0.2707299,-0.71296304,-0.19341779,3.3443119525909424,2.3828132152557373,-2.766038656234741,-75.33293151855469,-77.83920288085938, 1.4886524677276611
659,1027589855,0.59840256,-0.27107286,-0.7309344,-0.18486811,-3.2631096839904785,11.263103485107422,-40.4879035949707,29.13897705078125,-184.3792724609375, -19.132091522216797
660,1027606522,0.5453875,-0.27988914,-0.7727838,-0.16439895,51.62893295288086,-19.757888793945312,-48.214298248291016,20.968074798583984,-487.4530029296875, -15.362080574035645
661,1027623189,0.5258979,-0.23366047,-0.81168395,-0.10005408,28.588537216186523,-14.193353652954102,45.46453094482422,522.1577758789062,-320.6234130859375, -100.02485656738281
662,1027639856,0.5006922,-0.22486229,-0.8297733,-0.10113393,37.477237701416016,0.3942094147205353,-22.00901985168457,-2.7230331897735596,-197.72520446777344, -98.19088745117188
663,1027656523,0.47567654,-0.221488,-0.843965,-0.11137925,55.902652740478516,31.381290435791016,6.126319885253906,-76.05500030517578,-172.91378784179688, -92.58480072021484
664,1027673190,0.45154622,-0.20943986,-0.85934025,-0.11740004,18.77591323852539,-6.852843761444092,-10.041820526123047,-20.500173568725586,-171.58958435058594, -130.07867431640625
665,1027689857,0.43730998,-0.20056668,-0.8681685,-0.121753775,-9.37269115447998,-2.180133819580078,-12.69173812866211,-11.631396293640137,-97.78656005859375, -88.74956512451172
666,1027706524,0.42934623,-0.19715099,-0.87236,-0.12565276,-3.1838014125823975,9.599087715148926,-10.519808769226074,-20.566240310668945,-51.519386291503906, -43.16165542602539
667,1027723191,0.42721298,-0.1943777,-0.8737056,-0.1278758,18.03695297241211,6.200085639953613,-9.450241088867188,-6.824319362640381,-10.908366203308105, -25.42890167236328
668,1027739858,0.4284649,-0.19345015,-0.8730208,-0.12975742,18.21056365966797,3.551480293273926,-8.770903587341309,-7.387810230255127,13.278614044189453, -7.633678913116455
669,1027756525,0.43368185,-0.19525555,-0.86966395,-0.13224106,15.207742691040039,4.310671329498291,-10.338602066040039,-16.1382999420166,43.27330017089844, 14.095548629760742
670,1027773192,0.44437525,-0.19879565,-0.8631306,-0.13425338,12.77951717376709,3.652618169784546,-10.345745086669922,-13.989786148071289,83.25526428222656, 35.13483810424805
671,1027789859,0.4615209,-0.20457353,-0.8524105,-0.13620584,9.91466236114502,4.92099666595459,-10.571544647216797,-15.486227989196777,132.17820739746094, 60.30015563964844
672,1027806526,0.4870434,-0.21166721,-0.8360051,-0.13816121,11.252167701721191,5.62459135055542,-12.060853004455566,-13.173615455627441,198.0996551513672, 83.88977813720703
673,1027823193,0.5234883,-0.2201183,-0.8102986,-0.14467707,20.996885299682617,6.8990373611450195,-9.760713577270508,-36.83139419555664,297.431884765625, 100.41434478759766
674,1027839860,0.5742219,-0.23187916,-0.7685266,-0.16085882,40.53312683105469,3.122728109359741,-2.2700161933898926,-96.96512603759766,446.3812255859375, 122.74247741699219
675,1027856527,0.63321286,-0.24831085,-0.70788395,-0.19050206,61.62085723876953,-4.177453994750977,13.277423858642578,-194.4625244140625,581.1032104492188, 133.6649627685547
676,1027873194,0.6886614,-0.23199679,-0.6567585,-0.20149152,36.60624694824219,-8.734049797058105,-13.79920768737793,45.51643753051758,532.9627685546875, 34.49225616455078
677,1027889861,0.7012465,-0.24256982,-0.63055843,-0.22763303,-2.8956398963928223,-14.773954391479492,-35.20003890991211,-184.24673461914062,207.79910278320312, -15.071764945983887
678,1027906528,0.69016844,-0.2650211,-0.6230558,-0.25542173,-4.694190502166748,17.931312561035156,-6.617222309112549,-259.0108642578125,-0.6565099358558655, -39.94038009643555
679,1027923195,0.67477375,-0.27938178,-0.63231224,-0.25848585,-3.0206713676452637,-26.146852493286133,-9.332108497619629,-92.9471206665039,-129.48194885253906, 4.794890403747559
680,1027939862,0.66938937,-0.2609609,-0.65742356,-0.22719808,3.5236997604370117,0.34312528371810913,-2.750974416732788,255.73477172851562,-167.17144775390625, 8.679550170898438
