PacketCounter,SampleTimeFine,Quat_W,Quat_X,Quat_Y,Quat_Z,Acc_X,Acc_Y,Acc_Z,Gyr_X,Gyr_Y,Gyr_Z 
2,1791553985,0.86811966,0.22562918,-0.23836017,0.3723497,9.017820358276367,3.4615578651428223,11.111515998840332,10.927939414978027,-96.57525634765625, 25.996774673461914
3,1791570652,0.8575628,0.23976286,-0.25957835,0.3737898,8.26030445098877,1.6453357934951782,14.527849197387695,4.369030952453613,-92.208740234375, 22.19729995727539
4,1791587319,0.85247487,0.23857324,-0.26739106,0.38061997,7.648623943328857,2.652745008468628,15.748831748962402,29.06642723083496,-94.76806640625, 20.927440643310547
5,1791603986,0.852009,0.23142049,-0.26596993,0.38702145,7.70729398727417,3.059384346008301,14.494183540344238,12.436663627624512,-88.3763427734375, 22.64469337463379
6,1791620653,0.8513631,0.22689174,-0.26318952,0.39297882,7.572139263153076,2.1655898094177246,13.314534187316895,12.763936042785645,-85.18036651611328, 26.577274322509766
7,1791637320,0.85054404,0.22445805,-0.262309,0.39672118,7.6596198081970215,2.8571300506591797,12.36161994934082,23.395933151245117,-81.99085235595703, 27.54771614074707
8,1791653987,0.8490682,0.22510718,-0.26178533,0.39984834,7.604582786560059,2.862603187561035,11.937703132629395,28.640857696533203,-72.86809539794922, 24.99521255493164
9,1791670654,0.8468854,0.2282665,-0.26127964,0.40300456,7.74220609664917,2.4786384105682373,12.211586952209473,37.364471435546875,-65.32090759277344, 24.88189697265625
10,1791687321,0.8443994,0.23265886,-0.26013875,0.40643284,7.826319217681885,3.3149020671844482,13.161808013916016,45.641937255859375,-55.26809310913086, 23.454233169555664
11,1791703988,0.8426007,0.23651892,-0.25829682,0.4091037,7.340337753295898,3.9041531085968018,13.164695739746094,38.891788482666016,-45.50482940673828, 18.96488380432129
12,1791720655,0.8414914,0.23947763,-0.25563046,0.41133425,7.021181583404541,2.8537189960479736,11.302772521972656,30.658008575439453,-35.63939666748047, 17.427757263183594
13,1791737322,0.840018,0.24309364,-0.25236094,0.41423354,7.479776859283447,2.787630319595337,10.097274780273438,37.73722839355469,-27.941686630249023, 19.253786087036133
14,1791753989,0.8384238,0.24613619,-0.250042,0.417063,7.884191036224365,3.7393085956573486,8.825894355773926,31.292734146118164,-24.403335571289062, 20.427364349365234
15,1791770656,0.8372095,0.24769312,-0.2493103,0.41901428,8.137539863586426,4.107357978820801,9.144598007202148,13.311101913452148,-21.659151077270508, 19.604869842529297
16,1791787323,0.83618486,0.24894966,-0.2493125,0.42031226,8.459165573120117,3.908159017562866,8.608694076538086,5.881248474121094,-19.838176727294922, 17.260488510131836
17,1791803990,0.8351287,0.25102866,-0.24937464,0.42113787,8.53183364868164,3.835139513015747,8.46805191040039,8.429725646972656,-17.976564407348633, 12.929885864257812
18,1791820657,0.83409023,0.25407088,-0.24932823,0.421399,8.802969932556152,4.040304183959961,8.533438682556152,12.588170051574707,-16.91936683654785, 7.295809268951416
19,1791837324,0.8331214,0.25787365,-0.24897908,0.4212118,9.173279762268066,4.088819980621338,8.729228973388672,16.378856658935547,-14.79152774810791, 2.3183183670043945
20,1791853991,0.83203393,0.26191267,-0.24851748,0.4211421,10.211090087890625,3.9444425106048584,7.169845104217529,18.236318588256836,-12.259066581726074, 2.2519683837890625
21,1791870658,0.83165854,0.26408517,-0.24892688,0.4202838,10.823659896850586,5.309024810791016,6.879488468170166,2.077773094177246,-7.975578784942627, -0.48277390003204346
22,1791887325,0.83237356,0.26329982,-0.24995372,0.4187489,10.405651092529297,4.363323211669922,6.710409641265869,-21.128576278686523,1.3559705018997192, -1.259685754776001
23,1791903992,0.83386886,0.26054475,-0.25086728,0.41694713,10.461479187011719,4.40571403503418,6.530630588531494,-34.237545013427734,11.028154373168945, -2.3605668544769287
24,1791920659,0.8366565,0.25607166,-0.2508727,0.41412136,9.231741905212402,3.3587424755096436,6.421902656555176,-45.84749221801758,23.547056198120117, -10.968567848205566
25,1791937326,0.8398649,0.25347793,-0.24833067,0.41074064,9.000246047973633,2.7440028190612793,6.76186990737915,-29.0753173828125,33.37849807739258, -23.738262176513672
26,1791953993,0.84389967,0.25165796,-0.24338469,0.40652877,9.297422409057617,3.09097957611084,6.956790924072266,-19.9571590423584,45.328433990478516, -37.25847244262695
27,1791970660,0.849204,0.24845175,-0.23623252,0.40164506,9.823874473571777,2.3987343311309814,7.285643100738525,-24.75361442565918,63.267784118652344, -46.88945388793945
28,1791987327,0.85543215,0.24347612,-0.22716968,0.3966727,9.750814437866211,1.530202865600586,7.638577938079834,-30.789819717407227,81.08113861083984, -51.360267639160156
29,1792003994,0.8621462,0.23745869,-0.2160033,0.39199504,9.626832008361816,0.9553400278091431,7.412590980529785,-30.42660140991211,97.82867431640625, -54.05269241333008
30,1792020661,0.8692915,0.2297542,-0.20318015,0.38763806,9.110522270202637,-0.059973690658807755,7.393202304840088,-35.010860443115234,113.7583236694336, -54.71449279785156
31,1792037328,0.87627244,0.22244073,-0.18835808,0.383651,8.596602439880371,0.1885223686695099,7.2650346755981445,-25.106481552124023,125.29656982421875, -57.0123405456543
32,1792053995,0.8834407,0.21377482,-0.171752,0.3799132,8.114625930786133,-0.3722625970840454,7.5843329429626465,-27.371376037597656,140.45584106445312, -57.879493713378906
33,1792070662,0.89023143,0.20497443,-0.15340543,0.37674987,7.879004955291748,-0.39652639627456665,7.732364177703857,-21.134157180786133,151.86746215820312, -56.604122161865234
34,1792087329,0.89653105,0.19591802,-0.13400395,0.37402043,7.313497543334961,-0.4397382438182831,7.210465431213379,-17.666770935058594,159.21249389648438, -54.50998306274414
35,1792103996,0.90230995,0.18585122,-0.11430025,0.37179518,6.422565937042236,-0.8186383247375488,6.539119720458984,-20.967571258544922,164.04067993164062, -49.95451736450195
36,1792120663,0.90747327,0.17482743,-0.09438252,0.37016168,5.669334888458252,-0.695040225982666,6.615614414215088,-24.157093048095703,168.16798400878906, -44.47330856323242
37,1792137330,0.91212463,0.16213454,-0.0746767,0.36900496,5.470116138458252,-0.03190334513783455,7.010180950164795,-33.37767028808594,171.27105712890625, -38.87693786621094
38,1792153997,0.9161218,0.14833808,-0.05531151,0.36831704,4.812714576721191,0.11141207814216614,7.1577019691467285,-39.6741943359375,172.0834503173828, -33.16809844970703
39,1792170664,0.9195145,0.13320762,-0.036397304,0.3680003,4.538998126983643,0.8532527089118958,7.278465747833252,-48.056060791015625,172.63290405273438, -28.039745330810547
40,1792187331,0.92225957,0.11720708,-0.017969344,0.3679362,4.351230144500732,1.1607335805892944,7.056910037994385,-54.02754211425781,171.7245635986328, -23.75236701965332
41,1792203998,0.9240661,0.10199136,0.000032952765,0.36837432,4.044801712036133,0.5103505849838257,6.699146270751953,-49.36137390136719,167.28077697753906, -17.556703567504883
42,1792220665,0.9249249,0.0880879,0.017320698,0.36939746,3.880293607711792,0.7574267387390137,7.600605010986328,-42.07805252075195,159.7814178466797, -10.600133895874023
43,1792237332,0.9249849,0.07594303,0.03356431,0.37082246,3.261798620223999,0.6655231714248657,7.592798233032227,-33.076194763183594,148.96983337402344, -4.881682872772217
44,1792253999,0.9244965,0.066179276,0.04885367,0.37220946,2.4851739406585693,1.4254330396652222,7.587714672088623,-20.0447998046875,136.79513549804688, -2.4232399463653564
45,1792270666,0.9238248,0.058735017,0.063303925,0.3729488,1.634971261024475,1.277222990989685,6.673316478729248,-7.351366996765137,125.02123260498047, -4.71920919418335
46,1792287333,0.92311007,0.05347176,0.07697844,0.37293845,0.7773126363754272,1.0166829824447632,5.9214959144592285,4.642969608306885,113.8036880493164, -7.966504096984863
47,1792304000,0.92237204,0.04990009,0.08923194,0.37252885,0.3264729082584381,0.9168592691421509,5.208238124847412,11.778146743774414,99.76287841796875, -8.913641929626465
48,1792320667,0.92162126,0.046941657,0.09958276,0.37214804,-0.40596991777420044,0.694060206413269,5.4414753913879395,10.611812591552734,85.55847930908203, -7.581789016723633
49,1792337334,0.9209059,0.044913273,0.10850517,0.37167457,-0.6321766376495361,1.0710798501968384,5.451215744018555,12.80389404296875,73.41641998291016, -7.06323766708374
50,1792354001,0.92020583,0.04375502,0.115719445,0.37137043,-0.7822956442832947,0.9146487712860107,4.128643035888672,13.652256965637207,59.79572677612305, -4.784720420837402
51,1792370668,0.9196271,0.043049514,0.12100083,0.3712034,-1.2390024662017822,0.9208706617355347,3.7363157272338867,11.27639102935791,45.7299919128418, -3.222691535949707
52,1792387335,0.91930103,0.04352272,0.12457477,0.37077338,-1.7277700901031494,0.6722338199615479,3.203853130340576,14.353920936584473,30.976003646850586, -3.975696563720703
53,1792404002,0.9192709,0.04562185,0.12631404,0.37000638,-1.78607177734375,0.7896058559417725,2.5584661960601807,20.029630661010742,14.172492027282715, -4.8553080558776855
54,1792420669,0.9194269,0.04890498,0.12576355,0.36938614,-1.8386989831924438,1.18411386013031,2.905430555343628,21.34630584716797,-4.107361793518066, -2.6098999977111816
55,1792437336,0.9197394,0.051853336,0.12300543,0.36913446,-1.8816883563995361,1.9107555150985718,4.314039707183838,13.056191444396973,-17.843618392944336, -0.18786945939064026
56,1792454003,0.92018396,0.05344922,0.1179573,0.36944658,-1.9132957458496094,2.6352813243865967,5.164628982543945,-2.083484172821045,-29.332115173339844, 2.7506141662597656
57,1792470670,0.9210131,0.051442303,0.10722875,0.3709322,-1.4491955041885376,3.825758934020996,-0.37090450525283813,-40.71751022338867,-56.46495056152344, 8.42616081237793
58,1792487337,0.92281145,0.051610902,0.079977125,0.37330833,5.718047142028809,-0.02355554699897766,-25.682559967041016,-70.73662567138672,-167.56846618652344, 19.12285804748535
59,1792504004,0.92574674,0.045213412,0.04113487,0.37317136,10.785799026489258,-0.7396739721298218,3.391327381134033,-141.88722229003906,-225.6912384033203, 0.8690837025642395
60,1792520671,0.92690367,0.04449495,0.009429164,0.37253314,2.4129586219787598,-3.813830614089966,11.812455177307129,-86.48790740966797,-193.99874877929688, 1.7969717979431152
61,1792537338,0.92743343,0.04772737,-0.021366764,0.37031454,5.007184028625488,-1.6339856386184692,-1.566503643989563,-58.06806945800781,-200.63169860839844, -6.420567989349365
62,1792554005,0.9271917,0.04818334,-0.050250232,0.3680612,0.6070021986961365,2.386563539505005,3.3497073650360107,-70.65592956542969,-182.909423828125, -4.741156101226807
63,1792570672,0.9262316,0.048367605,-0.0736723,0.36650822,3.2576582431793213,3.888718605041504,5.835760593414307,-58.294456481933594,-148.63380432128906, -0.03934464231133461
64,1792587339,0.92534226,0.05484289,-0.09214007,0.36365438,5.535149097442627,2.376614570617676,9.136602401733398,-6.55610466003418,-133.8972625732422, -13.273951530456543
65,1792604006,0.924112,0.05772224,-0.11000094,0.36136556,6.913540363311768,2.1865129470825195,10.90323543548584,-27.421751022338867,-121.31622314453125, -6.761712551116943
66,1792620673,0.9225404,0.058876343,-0.12717548,0.3595542,8.167840003967285,-2.086334466934204,6.685247898101807,-36.160888671875,-112.88014221191406, -1.8405940532684326
67,1792637340,0.92045915,0.063365884,-0.14223267,0.35848275,9.315874099731445,-2.3248260021209717,6.281539440155029,-8.831738471984863,-107.89492797851562, 0.32106199860572815
68,1792654007,0.91844296,0.06927865,-0.15483782,0.35733518,8.563532829284668,-3.110455274581909,8.086341857910156,6.160431861877441,-95.87947845458984, -2.7907865047454834
69,1792670674,0.91620505,0.07437919,-0.16666108,0.3567355,9.816302299499512,-4.291787624359131,8.727831840515137,3.6704599857330322,-88.96208953857422, 1.691042423248291
70,1792687341,0.91338944,0.08138287,-0.17682116,0.35753447,10.11876392364502,-4.706431865692139,9.425863265991211,21.666576385498047,-83.117919921875, 8.878780364990234
71,1792704008,0.9100445,0.09156603,-0.18435375,0.35978976,10.788141250610352,-2.878054141998291,11.424148559570312,50.1810417175293,-74.2771987915039, 13.978248596191406
72,1792720675,0.90629745,0.102803044,-0.19029109,0.36310562,10.801698684692383,-0.5824103355407715,13.041236877441406,62.31798553466797,-66.7577133178711, 19.264883041381836
73,1792737342,0.9047324,0.11366134,-0.19555552,0.36096895,9.080632209777832,1.3030205965042114,12.903602600097656,73.20340728759766,-59.96449279785156, 22.310396194458008
74,1792754009,0.9015503,0.12544441,-0.20029752,0.36242485,9.525646209716797,2.155203104019165,12.69225025177002,74.80451202392578,-59.636268615722656, 22.059104919433594
75,1792770676,0.8981807,0.14097193,-0.19973427,0.36538312,9.20141887664795,3.1251258850097656,12.497330665588379,103.66624450683594,-36.703125, 2.654772996902466
76,1792787343,0.8941702,0.15289348,-0.20275916,0.3687438,6.2363433837890625,2.3741209506988525,9.776779174804688,71.01387023925781,-50.96742248535156, 10.575944900512695
77,1792804010,0.8890173,0.16045462,-0.21136163,0.37313402,7.3148884773254395,3.911144971847534,9.843323707580566,29.620752334594727,-75.57074737548828, 26.625476837158203
78,1792820677,0.8835946,0.16359021,-0.22513907,0.37657866,7.907137393951416,2.2398643493652344,7.238869667053223,-12.89313793182373,-97.45267486572266, 32.5696907043457
79,1792837344,0.8768327,0.17138836,-0.23756532,0.3812521,9.764348030090332,-0.4555138647556305,10.377593994140625,22.257675170898438,-101.86811065673828, 35.491058349609375
80,1792854011,0.86760485,0.18968786,-0.24400742,0.38953942,8.836748123168945,-0.6712324619293213,14.937227249145508,109.96426391601562,-93.17530059814453, 40.14008712768555
81,1792870678,0.8571822,0.21197575,-0.24817182,0.39839193,8.624603271484375,3.1712698936462402,14.4934720993042,143.48802185058594,-91.5246810913086, 39.273033142089844
82,1792887345,0.8487999,0.22734037,-0.25330502,0.40458843,8.087977409362793,4.7961039543151855,13.815017700195312,93.27867126464844,-78.6339111328125, 32.80554962158203
83,1792904012,0.8426606,0.23722017,-0.25981912,0.4076074,7.6070380210876465,4.3959760665893555,14.383378028869629,54.419586181640625,-70.80377960205078, 27.448448181152344
84,1792920679,0.83750147,0.24558355,-0.26600888,0.40929157,6.953642845153809,4.262514591217041,13.086928367614746,42.55359649658203,-65.13292694091797, 19.16087532043457
85,1792937346,0.8337175,0.25145188,-0.27247626,0.4091992,7.601238250732422,4.509001731872559,11.308836936950684,21.829059600830078,-60.220577239990234, 10.104519844055176
86,1792954013,0.83138335,0.2539025,-0.2792295,0.4078802,7.814140319824219,3.5400540828704834,11.052332878112793,-3.37926983833313,-51.657737731933594, 5.900562763214111
87,1792970680,0.8296399,0.25434777,-0.2859257,0.40651152,7.620137691497803,2.164916515350342,11.135034561157227,-15.807465553283691,-44.667781829833984, 7.71339750289917
88,1792987347,0.8274729,0.25537643,-0.29154664,0.40629044,7.493603706359863,2.176926851272583,11.212958335876465,-6.468590259552002,-39.00102996826172, 12.40951156616211
89,1793004014,0.8253169,0.2568638,-0.2959511,0.4065536,7.081666946411133,3.3778436183929443,10.754396438598633,0.4983035624027252,-32.501319885253906, 12.07476806640625
90,1793020681,0.8233744,0.25748327,-0.2998095,0.40727285,6.754164218902588,2.7551522254943848,9.336726188659668,-2.3525593280792236,-25.749576568603516, 14.87389850616455
91,1793037348,0.82088333,0.2600847,-0.30192766,0.40907964,6.833764553070068,2.696572780609131,8.530879974365234,16.951766967773438,-20.657636642456055, 15.402847290039062
92,1793054015,0.8185331,0.26279673,-0.3031658,0.411135,7.268558502197266,3.206205368041992,8.014934539794922,20.312692642211914,-15.263140678405762, 14.608061790466309
93,1793070682,0.81660575,0.26446107,-0.30419618,0.4131344,7.57194185256958,3.1271591186523438,8.6354398727417,14.116572380065918,-10.345641136169434, 14.911130905151367
94,1793087349,0.81485826,0.2655368,-0.30539602,0.4150055,7.881472110748291,2.769216775894165,8.432770729064941,9.731193542480469,-9.479644775390625, 15.222755432128906
95,1793104016,0.81273913,0.26776838,-0.30597705,0.41729307,7.8711442947387695,2.6991024017333984,7.6682000160217285,19.524242401123047,-9.326285362243652, 15.059144973754883
96,1793120683,0.810716,0.26958966,-0.3070381,0.41927192,8.485662460327148,3.904951333999634,7.446916103363037,15.025866508483887,-11.188353538513184, 14.805379867553711
97,1793137350,0.8095959,0.26925534,-0.30906922,0.42015755,8.706452369689941,3.7535293102264404,8.064864158630371,-3.7792346477508545,-10.488424301147461, 12.464400291442871
98,1793154017,0.80885774,0.26826447,-0.31160587,0.4203396,9.066524505615234,3.816878318786621,7.610899925231934,-11.104082107543945,-11.889445304870605, 9.781343460083008
99,1793170684,0.8085217,0.2669359,-0.3141807,0.419915,9.89860725402832,3.6652491092681885,6.965826988220215,-15.142749786376953,-11.371760368347168, 6.044957637786865
100,1793187351,0.808889,0.26493648,-0.31582233,0.41924205,10.410480499267578,4.349723815917969,7.294688701629639,-18.01374053955078,-3.161635637283325, 2.37229585647583
101,1793204018,0.81088966,0.25884005,-0.31756845,0.41786408,10.3731050491333,4.087739944458008,7.317800521850586,-45.619815826416016,10.349637985229492, 2.837620496749878
102,1793220685,0.8141692,0.2508447,-0.31843907,0.41569486,9.760520935058594,3.5326051712036133,6.840641498565674,-57.70693588256836,22.086915969848633, -2.6544976234436035
103,1793237352,0.8184511,0.24295756,-0.31729814,0.4128334,9.189494132995605,2.5717525482177734,7.187585353851318,-54.60446548461914,34.0534782409668, -13.097535133361816
104,1793254019,0.8231947,0.23792256,-0.31283432,0.4097295,8.910634994506836,2.4929120540618896,7.92254114151001,-30.42388343811035,45.26639938354492, -27.549076080322266
105,1793270686,0.8290916,0.23346314,-0.30566302,0.4057984,8.969304084777832,2.669740915298462,8.01606273651123,-23.203649520874023,60.09603500366211, -41.14981460571289
106,1793287353,0.8360977,0.22839835,-0.2962324,0.40127474,9.542645454406738,1.9469897747039795,7.579763412475586,-23.379934310913086,76.04609680175781, -49.97996139526367
107,1793304020,0.84422255,0.22210692,-0.28464767,0.39614752,9.858538627624512,1.0693590641021729,7.20323371887207,-27.472192764282227,93.16091918945312, -57.431243896484375
108,1793320687,0.8527155,0.21597317,-0.27042794,0.39128122,9.511524200439453,-0.14401806890964508,7.308526515960693,-19.420713424682617,109.17273712158203, -61.270328521728516
109,1793337354,0.86125225,0.2102063,-0.25370643,0.38689968,9.214157104492188,-0.5331728458404541,7.078924179077148,-9.679853439331055,123.68250274658203, -62.96869659423828
110,1793354021,0.8697751,0.20346086,-0.2353702,0.38300925,8.932271957397461,-0.7969359755516052,7.064628601074219,-10.277305603027344,136.5640411376953, -60.67665481567383
111,1793370688,0.8783609,0.19483536,-0.21626008,0.3791477,8.261987686157227,-0.9411938786506653,6.5593743324279785,-19.49639320373535,146.31849670410156, -58.73387145996094
112,1793387355,0.88645333,0.18598795,-0.19597039,0.37577218,7.082931995391846,-1.6153790950775146,6.581974506378174,-16.350814819335938,153.97283935546875, -55.78335189819336
113,1793404022,0.8938235,0.1774779,-0.17454459,0.372982,7.032784938812256,-1.1056559085845947,6.259920597076416,-9.61133098602295,159.8249053955078, -52.27527618408203
114,1793420689,0.90071994,0.16714573,-0.15289998,0.37065843,6.695178985595703,-1.6333132982254028,7.124446868896484,-19.084327697753906,165.87615966796875, -46.28584289550781
115,1793437356,0.9066728,0.15685935,-0.13127978,0.3689245,6.131711006164551,-0.8385995030403137,7.196140766143799,-17.122650146484375,165.3199462890625, -40.260520935058594
116,1793454023,0.91194004,0.1444237,-0.11063393,0.36778715,5.390168190002441,-0.5534489154815674,7.167847633361816,-31.692285537719727,164.74664306640625, -31.813302993774414
117,1793470690,0.91645986,0.13013895,-0.09071713,0.36733583,4.899336814880371,-0.29087790846824646,7.178341388702393,-43.84847640991211,164.98452758789062, -23.48836898803711
118,1793487357,0.91997427,0.11632716,-0.07071836,0.3675791,4.478053569793701,-0.1899193525314331,7.188788414001465,-39.31475067138672,164.31895446777344, -16.93366050720215
119,1793504024,0.9225109,0.10293469,-0.051264457,0.3684427,4.163585186004639,0.5140652656555176,6.989508152008057,-36.94516372680664,159.85067749023438, -10.299437522888184
120,1793520691,0.9243108,0.089397475,-0.032953203,0.36955628,3.6016054153442383,1.457480549812317,8.054790496826172,-40.15092086791992,152.9059600830078, -5.978442668914795
121,1793537358,0.9255447,0.076098435,-0.01605797,0.37056485,2.8591156005859375,1.8315683603286743,8.218584060668945,-41.927452087402344,143.1207733154297, -4.38140869140625
122,1793554025,0.92648834,0.062521584,-0.0004534022,0.3710934,2.4576950073242188,2.32185435295105,8.321712493896484,-46.90763473510742,135.33839416503906, -5.980601787567139
123,1793570692,0.92716163,0.04993484,0.014041782,0.37105355,2.1191415786743164,1.7554508447647095,7.321116924285889,-43.347999572753906,125.50592803955078, -8.430227279663086
124,1793587359,0.92766356,0.03841132,0.027418174,0.370423,1.3954408168792725,1.2625541687011719,6.294377326965332,-39.332481384277344,115.48250579833984, -11.267007827758789
125,1793604026,0.92783153,0.029821524,0.04025589,0.36961985,0.6430233716964722,0.17069751024246216,5.961959362030029,-21.888721466064453,104.59138488769531, -10.818270683288574
126,1793620693,0.9276958,0.025209237,0.05278396,0.36872604,0.19336029887199402,0.2353230118751526,5.68554162979126,2.787559986114502,92.56295013427734, -9.457802772521973
127,1793637360,0.927278,0.024941621,0.06542146,0.36776868,-0.5043616890907288,-0.2446340024471283,5.934864044189453,30.84905433654785,82.32411193847656, -7.589148044586182
128,1793654027,0.92666966,0.027944846,0.07762579,0.36671078,-0.5839733481407166,0.20767396688461304,5.214234352111816,50.69517135620117,71.33760070800781, -6.202885150909424
129,1793670694,0.92583936,0.032297585,0.08889625,0.36589056,-0.9952569603919983,0.45622217655181885,5.370793342590332,56.85618209838867,62.12812042236328, -3.231839895248413
130,1793687361,0.9249545,0.036619898,0.09847419,0.36526892,-1.198419451713562,0.8804013729095459,4.9470295906066895,52.294281005859375,51.48305892944336, -1.4745510816574097
131,1793704028,0.92425096,0.040571384,0.10556279,0.36465168,-1.4355690479278564,1.253128170967102,3.787884473800659,43.62715148925781,36.435096740722656, -1.527174472808838
132,1793720695,0.9239054,0.04342082,0.10935523,0.36408132,-1.6619126796722412,1.299031138420105,3.358142614364624,28.20929527282715,17.973520278930664, -2.008645534515381
133,1793737362,0.9238167,0.045429822,0.11018123,0.36381212,-1.8131728172302246,1.787335753440857,3.575509786605835,15.124289512634277,1.0948349237442017, -0.48459258675575256
134,1793754029,0.9239318,0.046126936,0.108479686,0.3639431,-2.0517847537994385,2.0288145542144775,4.994590759277344,0.07734397798776627,-11.742569923400879, 1.3436747789382935
135,1793770696,0.9242788,0.046655517,0.105259955,0.36394003,-2.0746920108795166,2.557119846343994,6.454456329345703,-4.789992332458496,-21.21434211730957, 0.26822301745414734
136,1793787363,0.9248567,0.045608122,0.1007901,0.36387023,-2.074439287185669,3.509911060333252,7.680119514465332,-17.988624572753906,-25.43138313293457, -1.4723637104034424
137,1793804030,0.92564857,0.039288852,0.091984555,0.36492518,-1.6675307750701904,4.719857215881348,3.499692440032959,-63.251075744628906,-39.630924224853516, 2.848271131515503
138,1793820697,0.9268082,0.03288039,0.06857236,0.36775467,1.5112237930297852,0.24278676509857178,-23.546154022216797,-101.7845230102539,-132.1591339111328, 17.106233596801758
139,1793837364,0.929177,0.020897008,0.028924659,0.36790907,15.616140365600586,1.1788430213928223,-6.152756214141846,-177.47793579101562,-222.77699279785156, -1.9478137493133545
140,1793854031,0.929242,0.015420371,-0.0038959286,0.3691295,1.4133192300796509,-5.1946024894714355,15.623422622680664,-118.52763366699219,-194.59848022460938, 11.001770973205566
141,1793870698,0.92917067,0.015673993,-0.036239803,0.3675364,6.450136661529541,-0.5741881728172302,-2.912728786468506,-80.61259460449219,-206.3743896484375, -6.812812805175781
142,1793887365,0.92818743,0.0070444797,-0.07061018,0.3652846,-0.6379706859588623,2.1969587802886963,3.51639461517334,-142.5489501953125,-197.0206756591797, -6.264777660369873
143,1793904032,0.9267707,0.0060418886,-0.096630014,0.3629359,2.6081430912017822,1.6393545866012573,4.526773929595947,-72.95864868164062,-163.12567138671875, -9.872608184814453
144,1793920699,0.9257586,0.010825544,-0.117605746,0.35919756,5.14084005355835,0.4231511056423187,8.584174156188965,-24.47691535949707,-145.174072265625, -23.769681930541992
145,1793937366,0.9243034,0.013208735,-0.13691495,0.35601002,7.287939071655273,0.34046027064323425,9.22499942779541,-35.18037033081055,-128.8817596435547, -17.33181381225586
146,1793954033,0.92253494,0.017685678,-0.1531664,0.35377488,7.672317981719971,-4.910915374755859,6.998976707458496,-13.48218059539795,-114.6659927368164, -12.736495971679688
147,1793970700,0.9206036,0.027275419,-0.16621213,0.35230508,9.97010326385498,-2.502767562866211,6.4975690841674805,27.687419891357422,-106.71658325195312, -13.284499168395996
148,1793987367,0.9185922,0.037571702,-0.17708433,0.351309,9.592636108398438,-3.070709228515625,8.402093887329102,38.032413482666016,-94.48062896728516, -11.321358680725098
149,1794004034,0.9163137,0.04691945,-0.18635137,0.3513416,10.342248916625977,-4.666952610015869,8.178049087524414,37.30363464355469,-81.95726013183594, -3.4688777923583984
150,1794020701,0.91354907,0.0571819,-0.19337642,0.3532194,10.325746536254883,-4.224277973175049,9.339677810668945,51.10985565185547,-69.93476867675781, 7.3805155754089355
151,1794037368,0.9103999,0.06862591,-0.19807714,0.35669085,10.13624095916748,-2.536607265472412,11.026530265808105,66.53421783447266,-58.03723907470703, 15.7796049118042
152,1794054035,0.9067453,0.08153256,-0.20089236,0.36167365,9.798672676086426,-1.4565564393997192,11.731348991394043,82.6468505859375,-49.82424545288086, 23.551433563232422
153,1794070702,0.90262765,0.095837206,-0.202059,0.36776438,8.703374862670898,0.1900777518749237,12.678543090820312,97.25994110107422,-43.1193962097168, 28.719669342041016
154,1794087369,0.89828503,0.11034333,-0.20353748,0.3734714,8.681626319885254,1.3554601669311523,11.99764347076416,99.01776123046875,-46.14984130859375, 30.11393928527832
155,1794104036,0.8934981,0.12591319,-0.2044288,0.37949428,8.271756172180176,1.8852216005325317,11.470758438110352,105.14063262939453,-45.966949462890625, 26.14746856689453
156,1794120703,0.8895868,0.1415381,-0.20180334,0.38454902,8.843046188354492,3.1982972621917725,12.562250137329102,111.07881164550781,-24.493824005126953, 12.292235374450684
157,1794137370,0.8852233,0.1492425,-0.20738296,0.38871425,5.769396781921387,3.408724546432495,9.258970260620117,39.36156463623047,-55.53324508666992, 25.898605346679688
158,1794154037,0.8804942,0.15253827,-0.22054338,0.39092562,7.547746181488037,5.321095943450928,8.323561668395996,-11.448272705078125,-92.7223892211914, 27.275789260864258
159,1794170704,0.8757845,0.15361528,-0.23668803,0.39164123,8.767744064331055,1.3629915714263916,10.277578353881836,-35.76953887939453,-106.37694549560547, 24.389488220214844
160,1794187371,0.87000096,0.16206504,-0.24918473,0.39337057,8.171713829040527,0.43198490142822266,14.61585521697998,21.436946868896484,-104.8829345703125, 18.325244903564453
161,1794204038,0.86337423,0.17476568,-0.25875247,0.39634478,8.205151557922363,1.756256103515625,14.380831718444824,57.81734085083008,-99.05078125, 17.840316772460938
162,1794220705,0.85670936,0.18685086,-0.26741964,0.39952815,7.873532772064209,2.400019645690918,14.053607940673828,57.01237487792969,-91.98763275146484, 19.553730010986328
163,1794237372,0.8502545,0.19820718,-0.27517915,0.4025642,7.250842094421387,2.928607225418091,14.570150375366211,54.77138900756836,-84.55224609375, 18.75318145751953
164,1794254039,0.8439801,0.20925759,-0.28172258,0.405637,7.175397872924805,3.0668861865997314,13.433579444885254,55.927207946777344,-76.37385559082031, 17.4200382232666
165,1794270706,0.8386728,0.21898171,-0.28749135,0.40746018,7.3058295249938965,2.928433656692505,11.942744255065918,51.427146911621094,-67.3844223022461, 14.430999755859375
166,1794287373,0.8338634,0.22750019,-0.2924576,0.4091263,7.783298492431641,2.551252841949463,12.093487739562988,45.658058166503906,-58.68052673339844, 13.319364547729492
167,1794304040,0.8295587,0.2345745,-0.297058,0.41056585,7.502455234527588,2.7181127071380615,12.518106460571289,37.16436767578125,-51.90243911743164, 12.939440727233887
168,1794320707,0.82600796,0.23956506,-0.30116367,0.41184962,7.317722797393799,2.533433675765991,12.536795616149902,25.144081115722656,-41.96006393432617, 13.390689849853516
169,1794337374,0.82298154,0.24350709,-0.30447274,0.41316113,6.70964241027832,2.384373903274536,11.28940200805664,20.643901824951172,-33.385765075683594, 12.929399490356445
170,1794354041,0.820443,0.24647982,-0.30716294,0.41445395,6.884127140045166,2.8766064643859863,9.966774940490723,16.065324783325195,-26.180479049682617, 12.437337875366211
171,1794370708,0.8181322,0.24867567,-0.30968466,0.415831,7.448416233062744,3.0538413524627686,8.293933868408203,11.94946575164795,-22.41316032409668, 13.628151893615723
172,1794387375,0.8162392,0.24954922,-0.312249,0.41710845,7.971827030181885,3.01550555229187,8.597441673278809,3.4531044960021973,-18.148040771484375, 14.771404266357422
173,1794404042,0.8144654,0.24986242,-0.31499946,0.41831857,7.825580596923828,2.8454294204711914,8.431295394897461,-0.5833430886268616,-17.43977165222168, 15.580548286437988
174,1794420709,0.8125862,0.25030333,-0.3176934,0.4196701,8.298149108886719,2.8946657180786133,8.634639739990234,0.7750611305236816,-17.47252082824707, 16.307605743408203
175,1794437376,0.81020766,0.25227815,-0.31992492,0.4213873,8.486617088317871,3.1224541664123535,8.670004844665527,12.329864501953125,-19.77235221862793, 15.650482177734375
176,1794454043,0.80779904,0.2544032,-0.32212916,0.4230516,9.22510051727295,3.6075069904327393,8.013754844665527,13.17374324798584,-20.20925521850586, 15.073518753051758
177,1794470710,0.80538183,0.25684595,-0.3245977,0.42429587,9.182756423950195,3.2651164531707764,7.583345890045166,13.239712715148926,-23.336618423461914, 12.536831855773926
178,1794487377,0.80299604,0.26046953,-0.3264763,0.42516622,8.98536491394043,3.7310791015625,7.89616060256958,20.59763526916504,-24.08491325378418, 6.704334259033203
179,1794504044,0.80108905,0.26363987,-0.32818705,0.42549258,8.922478675842285,3.5139060020446777,7.941933631896973,16.494449615478516,-21.723417282104492, 3.032212257385254
180,1794520711,0.79979604,0.26595372,-0.32957196,0.42541426,10.077508926391602,3.7796006202697754,7.36108922958374,10.6941556930542,-16.765596389770508, 0.35854625701904297
181,1794537378,0.80000335,0.26583567,-0.3306215,0.4242827,10.167731285095215,4.095383167266846,6.901612281799316,-6.840872287750244,-6.311483383178711, -4.914079666137695
182,1794554045,0.8022698,0.26178065,-0.33145055,0.42187032,9.743313789367676,3.7002670764923096,7.3553338050842285,-34.54630661010742,8.75263786315918, -9.409137725830078
183,1794570712,0.8060394,0.25599593,-0.33083516,0.4187062,9.455320358276367,2.5927743911743164,7.740993499755859,-44.32865524291992,23.822254180908203, -16.566059112548828
184,1794587379,0.8107343,0.25115573,-0.3271945,0.41542113,9.078466415405273,1.827253818511963,7.56928014755249,-32.28931427001953,39.76474380493164, -27.3787899017334
185,1794604046,0.8163632,0.24769942,-0.32023415,0.41188118,9.39428424835205,2.1657164096832275,7.999373435974121,-17.27251434326172,55.98370361328125, -40.326927185058594
186,1794620713,0.8231044,0.24401438,-0.31061435,0.40801343,9.3406982421875,1.6140165328979492,7.7710113525390625,-13.638840675354004,73.45536041259766, -49.35274887084961
187,1794637380,0.8308737,0.23944475,-0.29852593,0.40397698,9.870396614074707,1.2066948413848877,7.146918296813965,-13.797810554504395,91.83433532714844, -55.462921142578125
188,1794654047,0.8392783,0.23403467,-0.28410906,0.4001523,9.65621280670166,0.1150411069393158,6.797520160675049,-12.73196029663086,109.15898132324219, -58.151336669921875
189,1794670714,0.84812367,0.22662176,-0.26795468,0.39689943,9.504993438720703,-0.1215793788433075,7.091493606567383,-19.077655792236328,126.52079772949219, -54.98478317260742
190,1794687381,0.85705465,0.21806668,-0.25037423,0.39397603,9.224544525146484,-0.10109099745750427,7.01971960067749,-21.345090866088867,138.6690216064453, -53.45201110839844
191,1794704048,0.86576146,0.20953304,-0.23125735,0.39124575,8.641956329345703,0.11248937249183655,6.600317001342773,-16.361116409301758,147.616943359375, -54.08030700683594
192,1794720715,0.874424,0.20027184,-0.21081163,0.38837203,7.700807571411133,-0.3403930366039276,6.1798200607299805,-17.25995635986328,157.2599334716797, -55.600257873535156
193,1794737382,0.8825823,0.19131261,-0.1889233,0.38568932,7.352980613708496,0.14320065081119537,6.170158386230469,-10.593609809875488,164.70823669433594, -55.55532455444336
194,1794754049,0.8904327,0.18085723,-0.16698834,0.38279942,7.039816856384277,-0.12160555273294449,6.367083549499512,-19.395164489746094,168.33656311035156, -54.13239288330078
195,1794770716,0.89755416,0.17020103,-0.14509001,0.37997013,6.256617546081543,0.06164401024580002,6.483033657073975,-19.721031188964844,167.9287872314453, -51.58392333984375
196,1794787383,0.9040492,0.158431,-0.12344015,0.3773029,5.381462574005127,0.6855989694595337,6.6650214195251465,-26.329191207885742,168.9121856689453, -47.55624008178711
197,1794804050,0.9099196,0.1449996,-0.10196616,0.37499908,4.531331539154053,0.015118256211280823,6.483774185180664,-36.11520004272461,172.0267791748047, -42.076717376708984
198,1794820717,0.9147952,0.13194522,-0.080035225,0.37327573,4.406524181365967,0.28677064180374146,6.814081192016602,-31.158510208129883,173.81866455078125, -36.60065460205078
199,1794837384,0.91864955,0.11869763,-0.05830756,0.37228262,4.23571252822876,0.43403613567352295,6.807619094848633,-31.551410675048828,173.16421508789062, -29.09329605102539
200,1794854051,0.92143846,0.10611134,-0.037080016,0.37190962,3.8709819316864014,0.667898416519165,7.023824214935303,-27.52460289001465,168.42262268066406, -22.304113388061523
201,1794870718,0.9233013,0.09408785,-0.017077602,0.37198213,3.169536828994751,0.9532340168952942,7.770857334136963,-26.295900344848633,159.34005737304688, -16.358915328979492
202,1794887385,0.9244139,0.08212834,0.0011593157,0.3724417,2.622485399246216,1.343409776687622,7.8626708984375,-29.871986389160156,148.1501922607422, -10.840914726257324
203,1794904052,0.9249606,0.0704675,0.017739818,0.3730519,2.263845205307007,1.5549930334091187,7.237846374511719,-31.903667449951172,136.96240234375, -7.489100933074951
204,1794920719,0.9251432,0.059086237,0.032437377,0.3735865,1.5639294385910034,1.3430430889129639,6.4153971672058105,-34.78460693359375,124.29424285888672, -6.0843729972839355
205,1794937386,0.9250663,0.04897308,0.045646243,0.37385917,0.8040945529937744,0.9853829145431519,6.395692825317383,-30.391923904418945,111.52579498291016, -6.1895751953125
206,1794954053,0.9248471,0.040428337,0.05806741,0.37370008,0.22741079330444336,0.7331558465957642,6.547958850860596,-22.264562606811523,102.37806701660156, -7.806067943572998
207,1794970720,0.92461467,0.034678005,0.06911727,0.3729719,-0.46756720542907715,0.6218926310539246,5.075802803039551,-7.78999137878418,86.31172180175781, -9.888714790344238
208,1794987387,0.9242921,0.031128384,0.079047985,0.37211093,-1.1350727081298828,0.633550763130188,6.053292751312256,3.4105184078216553,73.53692626953125, -9.184840202331543
209,1795004054,0.9238821,0.031081324,0.0882631,0.37105986,-1.3465670347213745,0.6840833425521851,5.03592586517334,23.958459854125977,59.998172760009766, -8.109357833862305
210,1795020721,0.9234717,0.033412345,0.0964311,0.36984438,-1.5937443971633911,0.49920418858528137,4.695289134979248,36.48756790161133,47.20431137084961, -7.485073566436768
211,1795037388,0.92300445,0.038793933,0.10390074,0.3684598,-1.6571770906448364,1.1293206214904785,3.8682332038879395,54.2055549621582,34.96796417236328, -6.230828762054443
212,1795054055,0.9225383,0.045313407,0.10970365,0.3671991,-1.6398171186447144,1.7530128955841064,3.5915701389312744,57.099021911621094,21.494863510131836, -4.19207239151001
213,1795070722,0.92227316,0.051870223,0.11279028,0.36606044,-1.7101160287857056,2.2379820346832275,3.4105639457702637,50.29310989379883,4.014883995056152, -3.055250883102417
214,1795087389,0.92229754,0.057778202,0.11300223,0.36504725,-1.7223674058914185,2.3797144889831543,3.922469139099121,38.70254898071289,-12.803491592407227, -2.4699878692626953
215,1795104056,0.9225702,0.06262182,0.11090779,0.3642008,-1.855513572692871,3.158419132232666,5.755573272705078,25.896766662597656,-24.923269271850586, -1.9481879472732544
216,1795120723,0.92301446,0.06631319,0.10725826,0.36351463,-2.26521897315979,3.30275559425354,7.26926851272583,14.450088500976562,-31.996984481811523, -1.5725114345550537
217,1795137390,0.92373884,0.067452535,0.10164362,0.36307773,-1.9149131774902344,3.7898054122924805,7.514693737030029,-7.010220050811768,-38.22029495239258, -1.675105094909668
218,1795154057,0.9247593,0.06452972,0.09225815,0.3635173,-1.751721739768982,4.389885902404785,4.136083126068115,-43.02519607543945,-51.856719970703125, 2.0647878646850586
219,1795170724,0.9260032,0.058152277,0.07084414,0.3662205,1.259472131729126,0.4804730713367462,-17.040145874023438,-96.68167114257812,-118.88287353515625, 19.049707412719727
220,1795187391,0.92776567,0.05590558,0.032367814,0.36752906,15.287374496459961,-3.7470619678497314,-14.146745681762695,-112.97657775878906,-238.78790283203125, 17.7185001373291
221,1795204058,0.9286421,0.052779846,-0.0033447912,0.36718804,2.3512797355651855,-4.280047416687012,17.793930053710938,-110.83719635009766,-218.9255828857422, 8.152904510498047
222,1795220725,0.92788815,0.05917592,-0.033702508,0.3665869,3.6806819438934326,-4.736395359039307,5.582084655761719,-35.73786544799805,-208.8459930419922, 8.45962142944336
223,1795237392,0.9263672,0.06605376,-0.062154427,0.3655375,1.1780644655227661,3.25150728225708,3.519158363342285,-27.501867294311523,-198.17599487304688, 6.6319427490234375
224,1795254059,0.92525446,0.06419404,-0.08905401,0.3631156,2.420764207839966,5.320408344268799,1.4442089796066284,-80.11495208740234,-166.76712036132812, -0.08335377275943756
225,1795270726,0.9232683,0.06638947,-0.11067335,0.3618278,3.9815869331359863,2.445904493331909,5.644155025482178,-40.196773529052734,-143.27578735351562, 4.5430169105529785
226,1795287393,0.92117393,0.06983771,-0.12901013,0.36044127,6.062446594238281,4.083096981048584,9.300286293029785,-24.156909942626953,-125.61493682861328, 1.7599949836730957
227,1795304060,0.91875374,0.06991566,-0.1475358,0.35949498,6.863921642303467,2.1126270294189453,9.59203815460205,-45.521202087402344,-118.44667053222656, 8.480354309082031
228,1795320727,0.9160848,0.07059395,-0.16538125,0.3584051,7.986010551452637,-0.5002159476280212,4.345742225646973,-40.11159896850586,-115.8563461303711, 7.285325050354004
229,1795337394,0.91302645,0.071866095,-0.18151797,0.35814717,9.307328224182129,-3.317180871963501,6.464817047119141,-30.99219512939453,-106.41548156738281, 11.990091323852539
230,1795354061,0.91015327,0.07619566,-0.19452015,0.35773948,9.255317687988281,-3.256068706512451,8.466641426086426,-4.247013092041016,-93.92375183105469, 5.198202133178711
231,1795370728,0.90719026,0.080020525,-0.20641476,0.35776484,10.111370086669922,-3.9368643760681152,8.643401145935059,-3.9500033855438232,-85.49971008300781, 8.185359001159668
232,1795387395,0.9038885,0.08440221,-0.21667336,0.35904673,10.360526084899902,-4.500790596008301,8.941520690917969,5.639646530151367,-76.2956314086914, 15.110618591308594
233,1795404062,0.9001013,0.09184114,-0.22428603,0.36204803,10.83243465423584,-2.495065689086914,10.043452262878418,34.153038024902344,-66.9752426147461, 20.827295303344727
234,1795420729,0.8963181,0.10126685,-0.2296937,0.36551335,10.045121192932129,-0.6862515211105347,11.781458854675293,56.63360595703125,-57.85690689086914, 25.777446746826172
235,1795437396,0.8917394,0.11408011,-0.23306116,0.37076855,8.700576782226562,0.1439547836780548,11.097895622253418,81.63959503173828,-53.726497650146484, 24.56414031982422
236,1795454063,0.88644266,0.13011599,-0.23444784,0.37725806,10.209142684936523,0.9864142537117004,11.417617797851562,106.88276672363281,-50.086055755615234, 23.894378662109375
237,1795470730,0.88158876,0.14859751,-0.23147029,0.38359043,9.057101249694824,2.9898500442504883,11.280506134033203,131.48779296875,-29.414052963256836, 12.524758338928223
238,1795487397,0.87657034,0.16583803,-0.23012358,0.3888001,8.515875816345215,3.6545677185058594,11.548140525817871,117.17461395263672,-37.709632873535156, 8.703540802001953
239,1795504064,0.8709459,0.17838709,-0.2336665,0.39374024,6.915332794189453,4.002673625946045,11.054651260375977,75.69528198242188,-56.111595153808594, 21.4371337890625
240,1795520731,0.8645591,0.18778585,-0.24337195,0.39754775,7.123238563537598,3.466564416885376,7.762039661407471,38.97661209106445,-87.24071502685547, 29.383302688598633
241,1795537398,0.8581631,0.19640845,-0.2546349,0.4001765,9.833808898925781,3.1562561988830566,10.773246765136719,28.18680191040039,-95.86266326904297, 26.24966812133789
242,1795554065,0.85242903,0.2048269,-0.2637852,0.4022787,8.815797805786133,2.2403669357299805,15.20958137512207,31.409513473510742,-82.26164245605469, 19.73231315612793
243,1795570732,0.84558034,0.21694277,-0.27059996,0.4058394,8.358567237854004,3.147535800933838,15.617096900939941,63.722808837890625,-78.92642974853516, 21.569290161132812
244,1795587399,0.8398864,0.22550668,-0.2786205,0.40756366,8.295659065246582,4.389867782592773,13.495221138000488,38.92962646484375,-75.97681427001953, 21.000070571899414
245,1795604066,0.83487207,0.23160002,-0.28743967,0.40832415,8.054102897644043,3.895874500274658,12.590754508972168,19.48016929626465,-73.98792266845703, 19.55840492248535
246,1795620733,0.83036673,0.23675567,-0.29548287,0.40881273,8.036500930786133,3.6440930366516113,12.716423988342285,14.894689559936523,-66.45429229736328, 17.239280700683594
247,1795637400,0.82621056,0.241819,-0.3020602,0.40946245,7.867977142333984,3.222693681716919,12.851932525634766,18.224454879760742,-56.996192932128906, 15.03090763092041
248,1795654067,0.8221924,0.24756743,-0.30671287,0.41065505,7.722347736358643,3.441786289215088,13.722715377807617,28.424285888671875,-46.965572357177734, 13.145193099975586
249,1795670734,0.8182155,0.25393075,-0.30972466,0.412448,7.003589630126953,3.2164995670318604,13.424664497375488,37.72196960449219,-38.520362854003906, 12.380986213684082
250,1795687401,0.81443465,0.2599529,-0.3116656,0.41471118,7.366111755371094,3.6032330989837646,11.598519325256348,39.500389099121094,-30.51517105102539, 13.37564754486084
251,1795704068,0.8108531,0.26520863,-0.31297928,0.41740355,7.174423694610596,3.1709790229797363,9.935258865356445,37.54216384887695,-23.783689498901367, 15.789115905761719
252,1795720735,0.8073476,0.27021888,-0.3137091,0.42042664,7.562735557556152,3.7197558879852295,9.254398345947266,38.40611267089844,-19.17359161376953, 16.923351287841797
253,1795737402,0.80440277,0.27362376,-0.31484228,0.4230136,7.600611209869385,4.1647443771362305,8.3596830368042,26.31233024597168,-16.458087921142578, 17.152725219726562
254,1795754069,0.8022837,0.2749697,-0.3165184,0.42491046,7.880409240722656,4.035201072692871,8.729833602905273,10.24714183807373,-13.041576385498047, 16.48613929748535
255,1795770736,0.80059016,0.27508086,-0.31884718,0.42628947,8.049912452697754,3.812974452972412,8.295408248901367,-0.4486839771270752,-13.152630805969238, 16.37547492980957
256,1795787403,0.79946965,0.27383938,-0.32171676,0.427035,8.455604553222656,3.732828378677368,8.263993263244629,-11.995858192443848,-12.156283378601074, 15.258211135864258
257,1795804070,0.79865307,0.27213717,-0.3247572,0.4273492,8.670387268066406,3.539257764816284,7.7833709716796875,-16.599124908447266,-11.920251846313477, 13.39465618133545
258,1795820737,0.7978518,0.27116424,-0.3273157,0.4275126,8.648608207702637,3.060882568359375,7.248545169830322,-11.587546348571777,-11.68148136138916, 10.043604850769043
259,1795837404,0.7970437,0.2708518,-0.3293205,0.42767847,9.252528190612793,3.411297559738159,7.039138317108154,-6.353336811065674,-10.594789505004883, 7.5968523025512695
260,1795854071,0.7969093,0.26867718,-0.33169138,0.4274683,9.727215766906738,4.343716621398926,7.35488224029541,-19.7902889251709,-6.274430751800537, 8.50119686126709
261,1795870738,0.7980329,0.26374722,-0.334166,0.42651382,9.68132209777832,4.138718128204346,7.332645893096924,-39.29228973388672,2.7724175453186035, 7.277767181396484
262,1795887405,0.799386,0.25958347,-0.33516487,0.42574993,9.420533180236816,3.667281150817871,6.886571407318115,-30.815853118896484,9.515542984008789, 3.28798508644104
263,1795904072,0.80170757,0.25501254,-0.33480066,0.42443183,9.414100646972656,3.891329526901245,6.867362976074219,-32.14141845703125,19.472808837890625, -4.027258396148682
264,1795920739,0.8051507,0.25048554,-0.33268896,0.42226472,9.269516944885254,3.006242513656616,6.8751678466796875,-30.804813385009766,30.101600646972656, -15.077447891235352
265,1795937406,0.8092974,0.24779211,-0.3277784,0.41976002,9.450251579284668,2.9706056118011475,6.952548027038574,-14.575876235961914,41.330162048339844, -27.967592239379883
266,1795954073,0.8145706,0.24517539,-0.3207338,0.41652578,9.637292861938477,3.1465373039245605,7.351861476898193,-11.620774269104004,54.3206901550293, -39.06032943725586
267,1795970740,0.8211452,0.24149923,-0.31185475,0.4124869,9.736368179321289,3.0095417499542236,7.718814373016357,-16.344934463500977,69.17918395996094, -48.025691986083984
268,1795987407,0.82889014,0.23612785,-0.30127102,0.407947,9.518993377685547,1.8995327949523926,7.502334117889404,-24.172626495361328,85.32421112060547, -53.361934661865234
269,1796004074,0.8373102,0.23057216,-0.28848994,0.40313974,9.32546329498291,1.4550666809082031,7.223840236663818,-20.748123168945312,99.38007354736328, -60.00343704223633
270,1796020741,0.84629875,0.22444214,-0.27361652,0.39816877,9.040290832519531,0.8264647126197815,7.005690097808838,-19.506790161132812,113.95941162109375, -64.7617416381836
271,1796037408,0.8555695,0.21817286,-0.2564576,0.39323163,8.887574195861816,0.15455523133277893,7.231782913208008,-14.435933113098145,128.3157501220703, -68.6925277709961
272,1796054075,0.8646553,0.21219054,-0.23715599,0.3887206,8.613168716430664,-0.2564217746257782,7.021482467651367,-5.897573471069336,140.56259155273438, -69.52429962158203
273,1796070742,0.873631,0.20490289,-0.21669826,0.38448125,7.771522045135498,-0.465887188911438,6.769290924072266,-9.91485595703125,151.27015686035156, -67.30574035644531
274,1796087409,0.8823481,0.19574001,-0.19551544,0.3806856,7.240859508514404,-0.04547873139381409,6.895267009735107,-18.173511505126953,160.9500732421875, -62.31650924682617
275,1796104076,0.8907441,0.18401118,-0.17458032,0.37714297,6.618777751922607,-0.3820890188217163,6.8452887535095215,-33.56436538696289,166.19862365722656, -56.269901275634766
276,1796120743,0.8983846,0.1719417,-0.15337762,0.37392068,5.530178070068359,-0.7358404397964478,6.641871452331543,-33.54142761230469,168.345703125, -52.38552474975586
277,1796137410,0.9051419,0.1601809,-0.13180923,0.37106144,4.843733787536621,-0.3518472909927368,6.798069477081299,-29.171995162963867,169.41368103027344, -48.727264404296875
278,1796154077,0.91108024,0.1477638,-0.109921,0.36880365,4.258940696716309,-0.8675517439842224,6.880643367767334,-30.910602569580078,173.09181213378906, -42.72694778442383
279,1796170744,0.91592985,0.13550869,-0.08773066,0.36744168,3.987724781036377,-0.5536730885505676,7.021703720092773,-27.231712341308594,174.74705505371094, -34.85395431518555
280,1796187411,0.9196856,0.12330145,-0.06569599,0.36695978,4.050724983215332,0.1300891786813736,7.259557723999023,-25.66876792907715,173.90017700195312, -26.485980987548828
281,1796204078,0.92237425,0.11102592,-0.044475235,0.3673161,3.976544141769409,0.6877164244651794,7.356521129608154,-26.798885345458984,169.27444458007812, -17.81303596496582
282,1796220745,0.92408216,0.09913083,-0.024837239,0.36827764,3.348264694213867,1.406008243560791,7.281283378601074,-27.406217575073242,158.57693481445312, -10.43740177154541
283,1796237412,0.9250021,0.08780969,-0.006885073,0.3696126,2.487575054168701,1.5723873376846313,6.841182231903076,-27.425336837768555,146.6578369140625, -5.0370564460754395
284,1796254079,0.92529446,0.07747114,0.009738754,0.37112468,1.7899225950241089,1.3293962478637695,6.072413921356201,-24.177988052368164,135.88629150390625, -1.573288917541504
285,1796270746,0.92517024,0.06929141,0.025350617,0.372312,1.0378658771514893,1.3005571365356445,6.038351058959961,-12.790783882141113,123.86749267578125, -1.9051765203475952
286,1796287413,0.92486805,0.06343217,0.039820325,0.37284032,0.44092369079589844,1.8198457956314087,5.909344673156738,-0.7649818658828735,110.41806030273438, -4.706228733062744
287,1796304080,0.92457134,0.059135474,0.052419703,0.37272385,-0.10150445252656937,1.834169626235962,4.606071949005127,4.5049357414245605,94.24900817871094, -7.594072341918945
288,1796320747,0.9242501,0.05597981,0.062811285,0.3724015,-0.8274455070495605,1.5519647598266602,4.818600177764893,6.125324726104736,77.20052337646484, -7.547161102294922
289,1796337414,0.92387,0.05454997,0.07112191,0.37206239,-1.465193510055542,1.6202168464660645,5.108783721923828,11.753418922424316,59.52386474609375, -5.966902732849121
290,1796354081,0.9235844,0.05384931,0.07723491,0.3716544,-1.6284335851669312,1.5505625009536743,4.570930480957031,10.720394134521484,43.54093551635742, -5.469643592834473
291,1796370748,0.92339766,0.054087438,0.08150327,0.37117204,-1.7037039995193481,1.682586669921875,4.171835422515869,11.928689956665039,29.25355339050293, -5.013998508453369
292,1796387415,0.923292,0.054950804,0.083780475,0.37080094,-1.5370829105377197,1.8756016492843628,3.8484177589416504,10.670859336853027,14.913711547851562, -3.4231927394866943
293,1796404082,0.9232279,0.056827534,0.084189974,0.37058493,-1.6311993598937988,1.7016546726226807,3.703176736831665,12.16961669921875,0.4207848310470581, -1.2546898126602173
294,1796420749,0.9231964,0.059400667,0.08277336,0.37057883,-1.8793048858642578,1.866198182106018,4.897140979766846,11.745183944702148,-12.975842475891113, 1.1172847747802734
295,1796437416,0.9232344,0.062493697,0.080051914,0.37057355,-1.889515995979309,2.190046548843384,5.967930793762207,11.637264251708984,-22.722919464111328, 1.7866241931915283
296,1796454083,0.9233479,0.06562368,0.07671165,0.370456,-2.09712290763855,2.304060220718384,7.778834819793701,10.26258373260498,-26.930513381958008, 1.1817798614501953
297,1796470750,0.92354935,0.069144055,0.073223524,0.3700193,-1.9948748350143433,2.4929039478302,8.451300621032715,12.445043563842773,-29.154232025146484, -0.7765285968780518
298,1796487417,0.92396164,0.070568874,0.06806869,0.36970505,-1.6519278287887573,3.545959711074829,7.191669940948486,-5.313747882843018,-34.54716873168945, -0.7751460075378418
299,1796504084,0.9248062,0.06633307,0.055314418,0.37050492,-1.0472807884216309,5.32110071182251,-4.070077896118164,-61.451683044433594,-68.17594146728516, 6.273537635803223
300,1796520751,0.92531896,0.065348215,0.02391359,0.3727504,10.32783031463623,-3.88480806350708,-26.72991180419922,-89.05689239501953,-194.3463897705078, 26.119535446166992
301,1796537418,0.92624575,0.06055068,-0.014525504,0.37174147,7.496479511260986,-2.886899948120117,10.855567932128906,-131.0292205810547,-230.25341796875, 6.929855823516846
302,1796554085,0.9257386,0.060809072,-0.045726135,0.3704315,2.7118937969207764,-2.8867149353027344,10.727672576904297,-79.47413635253906,-196.85516357421875, 5.2311811447143555
303,1796570752,0.9253025,0.058009174,-0.07867781,0.36641526,4.576375961303711,0.38335180282592773,-2.7711925506591797,-104.0351333618164,-201.23968505859375, -10.407211303710938
304,1796587419,0.92359406,0.05563819,-0.107791536,0.36367518,-0.5870924592018127,1.505198359489441,3.350611448287964,-90.46266174316406,-177.75906372070312, -0.742436945438385
305,1796604086,0.9214371,0.05565289,-0.13183892,0.36121354,3.516069173812866,2.8506579399108887,4.983401298522949,-62.32686996459961,-151.88758850097656, -1.4425289630889893
306,1796620753,0.91939557,0.064341344,-0.15080823,0.35753167,6.229379177093506,4.574474334716797,9.339879989624023,3.9361672401428223,-141.50299072265625, -19.159381866455078
307,1796637420,0.91685,0.0670932,-0.17022514,0.3548354,7.551212787628174,1.6324166059494019,10.008992195129395,-33.7025260925293,-129.64256286621094, -5.19270133972168
308,1796654087,0.9139772,0.06983006,-0.18849841,0.35247406,8.58112907409668,-1.2243911027908325,6.037883281707764,-30.526926040649414,-122.40696716308594, -2.690598487854004
309,1796670754,0.9106988,0.07234397,-0.20451063,0.3515247,9.6668701171875,-3.7690045833587646,6.47515869140625,-24.314390182495117,-107.15129852294922, 6.400559425354004
310,1796687421,0.9076717,0.07733034,-0.21694754,0.35083616,10.072999000549316,-2.8073954582214355,8.762101173400879,0.30360230803489685,-89.87210845947266, 2.1115005016326904
311,1796704088,0.9043433,0.08396883,-0.22657052,0.35182175,10.849655151367188,-4.231358528137207,8.461345672607422,20.246288299560547,-75.53710174560547, 9.255446434020996
312,1796720755,0.9005357,0.09251485,-0.23402508,0.3545547,10.373918533325195,-4.393754959106445,9.047150611877441,40.62324523925781,-66.05644989013672, 16.906211853027344
313,1796737422,0.8961921,0.103441045,-0.23912217,0.35911077,10.58029842376709,-2.624546766281128,10.581896781921387,64.66812133789062,-56.68895721435547, 23.97132110595703
314,1796754089,0.89152384,0.115833335,-0.2422974,0.3647737,9.610894203186035,-1.1696505546569824,11.263680458068848,83.3602294921875,-47.92182159423828, 31.73735809326172
315,1796770756,0.88633275,0.13258433,-0.240116,0.3730686,10.065340995788574,0.47999492287635803,12.915701866149902,124.55634307861328,-24.84563446044922, 31.541475296020508
316,1796787423,0.8816749,0.15408994,-0.23051034,0.38179937,8.972576141357422,2.518669605255127,11.492406845092773,170.97901916503906,9.231541633605957, 15.228200912475586
317,1796804090,0.8747938,0.17463197,-0.2289665,0.3896333,5.041834354400635,3.1588833332061768,9.004697799682617,143.9945526123047,-41.91007995605469, 24.36018943786621
318,1796820757,0.8676716,0.18873094,-0.23354732,0.39620993,6.456670761108398,3.8299930095672607,9.036065101623535,86.1770248413086,-63.82794952392578, 33.859291076660156
319,1796837424,0.8602389,0.19974723,-0.24194208,0.40193805,8.694734573364258,3.197478771209717,7.396354675292969,55.908287048339844,-79.9844741821289, 39.29026794433594
320,1796854091,0.85261166,0.211912,-0.25119263,0.40626243,8.43847942352295,3.2862653732299805,9.1846284866333,58.21689224243164,-90.36624908447266, 31.159269332885742
321,1796870758,0.84697074,0.21940778,-0.26153833,0.4075523,8.950509071350098,5.968034744262695,14.250626564025879,19.3824405670166,-84.76451110839844, 17.597942352294922
322,1796887425,0.8425899,0.22345048,-0.27278993,0.4070601,8.024218559265137,5.224936008453369,14.302419662475586,-7.559127330780029,-80.72515106201172, 12.788949012756348
323,1796904092,0.83845484,0.2266151,-0.2840009,0.40618083,8.11128044128418,5.489063739776611,13.560291290283203,-13.476070404052734,-78.32637786865234, 12.110990524291992
324,1796920759,0.8344649,0.22899352,-0.29573897,0.40468368,7.515377044677734,4.065793514251709,14.201298713684082,-16.802217483520508,-79.24614715576172, 15.078011512756348
325,1796937426,0.82906526,0.23449746,-0.306212,0.40484095,6.969831943511963,2.582218647003174,13.900476455688477,10.199419975280762,-81.2800064086914, 20.275875091552734
326,1796954093,0.8223544,0.24378057,-0.31449294,0.4066924,7.520271301269531,3.4597461223602295,12.469625473022461,43.56049346923828,-79.70016479492188, 22.13970375061035
327,1796970760,0.8158136,0.2526813,-0.321444,0.40899187,7.630720615386963,3.839158296585083,12.248191833496094,45.78764343261719,-70.28334045410156, 22.86433219909668
328,1796987427,0.8096788,0.2613328,-0.3266497,0.41161332,7.170562267303467,3.5791378021240234,12.992786407470703,49.278167724609375,-58.6289176940918, 21.1337947845459
329,1797004094,0.8042925,0.26958668,-0.32962888,0.41446558,7.009815692901611,3.983445882797241,13.500737190246582,52.53684997558594,-43.37812042236328, 17.273447036743164
330,1797020761,0.8000667,0.27661544,-0.3310622,0.41686344,6.437988758087158,4.189606666564941,12.883193969726562,46.976802825927734,-29.958709716796875, 11.469950675964355
331,1797037428,0.7971729,0.28097922,-0.33217973,0.41859648,6.8765082359313965,3.9670426845550537,10.956682205200195,29.156137466430664,-19.2225341796875, 9.586935997009277
332,1797054095,0.79509413,0.28376862,-0.33301628,0.42000124,7.1396989822387695,3.252166271209717,9.769556999206543,18.98426628112793,-12.216218948364258, 8.60724925994873
333,1797070762,0.79369515,0.28523663,-0.33388305,0.42096356,7.385618686676025,3.575807571411133,9.194169998168945,9.324073791503906,-8.09172248840332, 7.382987022399902
334,1797087429,0.7930338,0.2850708,-0.33505303,0.42139265,7.5309367179870605,3.853090286254883,8.963977813720703,-3.1683552265167236,-4.55185079574585, 6.769853115081787
335,1797104096,0.7928034,0.28347367,-0.3369258,0.4214101,7.795740604400635,3.687220335006714,8.981669425964355,-14.844815254211426,-4.216622829437256, 8.049548149108887
336,1797120763,0.792479,0.28203875,-0.33892033,0.42138407,8.348941802978516,3.2871973514556885,8.095783233642578,-14.266840934753418,-5.80804443359375, 8.03305435180664
337,1797137430,0.791803,0.2812891,-0.34084588,0.42160252,8.63265609741211,3.236266851425171,8.146866798400879,-9.113760948181152,-7.846816062927246, 8.713837623596191
338,1797154097,0.79057467,0.28145948,-0.34283206,0.4221834,8.854415893554688,3.084655284881592,7.738633155822754,-2.3931500911712646,-11.511879920959473, 10.305899620056152
339,1797170764,0.788854,0.28229174,-0.34491944,0.4231449,9.054445266723633,3.38244891166687,8.278606414794922,2.733806610107422,-14.450255393981934, 12.48789119720459
340,1797187431,0.7872415,0.28241026,-0.34812164,0.42344603,8.967544555664062,3.351118803024292,8.149727821350098,-6.188924789428711,-19.51111602783203, 12.509530067443848
341,1797204098,0.7857865,0.28241822,-0.35136366,0.42346573,9.330083847045898,2.9901530742645264,7.846215724945068,-7.913763046264648,-19.642902374267578, 10.933780670166016
342,1797220765,0.78447604,0.2828752,-0.35371643,0.42363188,10.15882396697998,3.5361552238464355,8.389318466186523,-2.846393346786499,-15.553814888000488, 8.536266326904297
343,1797237432,0.78416836,0.2819375,-0.35554233,0.4232978,11.115906715393066,4.425521373748779,7.8400468826293945,-12.040885925292969,-7.2269368171691895, 5.345188617706299
344,1797254099,0.7858934,0.27705905,-0.35706234,0.4220387,10.525291442871094,4.158172130584717,7.62894868850708,-38.68115234375,9.07768440246582, 3.57365083694458
345,1797270766,0.78947955,0.26914427,-0.35763314,0.41997916,10.130842208862305,3.6539018154144287,8.29130744934082,-57.92653274536133,26.0491943359375, -0.42817357182502747
346,1797287433,0.7941834,0.26083705,-0.35586837,0.41784525,9.801729202270508,3.0250844955444336,8.82127571105957,-55.63197708129883,42.410804748535156, -7.362972259521484
347,1797304100,0.7997768,0.25383776,-0.35104525,0.41556084,9.430150032043457,2.797791004180908,8.767151832580566,-41.71936798095703,57.1708984375, -19.402780532836914
348,1797320767,0.80640656,0.24767004,-0.34341612,0.41283607,9.50139331817627,3.329491376876831,8.230546951293945,-32.05293655395508,71.87252044677734, -31.681285858154297
349,1797337434,0.81471854,0.239757,-0.3335146,0.40929008,9.613300323486328,2.4077746868133545,8.170372009277344,-40.169986724853516,91.95751190185547, -40.73828125
350,1797354101,0.82381356,0.23226076,-0.320641,0.4056794,9.154553413391113,0.8016948699951172,7.568604469299316,-30.966411590576172,109.10543823242188, -49.1934700012207
351,1797370768,0.83331895,0.22533016,-0.30481365,0.4023614,9.042106628417969,0.6850317120552063,7.3068084716796875,-19.529415130615234,125.65191650390625, -54.75272750854492
352,1797387435,0.8432747,0.21799983,-0.28694367,0.39878222,8.651607513427734,0.11008428037166595,6.858584403991699,-12.309796333312988,139.91583251953125, -55.20934295654297
353,1797404102,0.8532321,0.20983924,-0.26746204,0.3955082,8.482158660888672,-0.20014286041259766,6.523656845092773,-12.675822257995605,152.08029174804688, -54.514862060546875
354,1797420769,0.86245286,0.20199274,-0.24642308,0.39325526,8.486666679382324,-0.7116997241973877,5.882396221160889,-8.090814590454102,159.75462341308594, -54.026363372802734
355,1797437436,0.8711745,0.19401088,-0.22444244,0.39120394,7.73201847076416,-0.8312559723854065,5.967048168182373,-5.241286277770996,165.31500244140625, -52.731178283691406
356,1797454103,0.8795384,0.18419482,-0.20204228,0.38944027,6.245534896850586,-1.0330501794815063,6.584467887878418,-14.094842910766602,172.7562255859375, -47.93925094604492
357,1797470770,0.8876654,0.17217182,-0.17931837,0.38762403,5.545096397399902,-0.46678680181503296,6.907850742340088,-26.239887237548828,180.3227081298828, -45.11357116699219
358,1797487437,0.8954448,0.15770213,-0.15661316,0.38572174,5.160931587219238,-0.7168148756027222,6.9397077560424805,-40.83248519897461,186.273681640625, -41.79096603393555
359,1797504104,0.9022745,0.1432763,-0.1333926,0.3841602,4.7730302810668945,-0.9049517512321472,5.834750175476074,-37.695674896240234,188.75856018066406, -37.88728332519531
360,1797520771,0.9081644,0.12826422,-0.10972371,0.38307488,3.988370895385742,-0.7311608791351318,5.896528244018555,-38.68288040161133,192.81085205078125, -32.450618743896484
361,1797537438,0.91269916,0.11529175,-0.08493706,0.38271934,3.5925538539886475,-0.27679139375686646,5.785919666290283,-21.159944534301758,194.13221740722656, -26.923681259155273
362,1797554105,0.9159876,0.10368605,-0.059963092,0.3829105,3.535348892211914,0.419731080532074,5.704429626464844,-10.712099075317383,191.51043701171875, -21.219934463500977
363,1797570772,0.91797334,0.094576076,-0.035514724,0.38356146,3.0381574630737305,0.7548421025276184,5.412933826446533,4.773478984832764,181.52976989746094, -15.597539901733398
364,1797587439,0.9189547,0.0870982,-0.012775785,0.3844131,2.518470287322998,1.4727541208267212,5.003507137298584,11.281859397888184,166.4217987060547, -11.012917518615723
365,1797604106,0.9193035,0.08158544,0.007956917,0.38491786,2.152905225753784,2.149015426635742,4.0467848777771,18.71552085876465,148.3758087158203, -10.544442176818848
366,1797620773,0.9193922,0.07727878,0.026569739,0.38475966,1.1259905099868774,2.359163522720337,4.689252853393555,20.839237213134766,131.50852966308594, -12.83134937286377
367,1797637440,0.91926223,0.07418238,0.042193037,0.38428342,0.26668044924736023,2.1462411880493164,3.5211057662963867,20.68116569519043,109.30855560302734, -12.489176750183105
368,1797654107,0.91923445,0.069884986,0.05389696,0.38369188,-0.5182377099990845,2.2341315746307373,3.2593724727630615,2.646472930908203,87.61007690429688, -11.863116264343262
369,1797670774,0.9193555,0.065320075,0.061443202,0.38307145,-1.1060959100723267,2.0554091930389404,2.1789941787719727,-10.147522926330566,61.921409606933594, -10.55068588256836
370,1797687441,0.91954315,0.06183631,0.06566842,0.3824977,-1.7269600629806519,1.514611840248108,2.0802009105682373,-12.183775901794434,37.99697494506836, -8.483373641967773
371,1797704108,0.9198075,0.06008158,0.06684989,0.3819369,-1.6520508527755737,1.388831377029419,1.7098251581192017,-9.340500831604004,14.069153785705566, -6.516748905181885
372,1797720775,0.92004627,0.060377143,0.06571054,0.38151267,-1.8215535879135132,1.2501758337020874,3.045928478240967,-2.5623974800109863,-6.025274276733398, -3.669186592102051
373,1797737442,0.9202284,0.06322356,0.062824406,0.38109818,-1.844882607460022,1.7689383029937744,4.097557067871094,8.988445281982422,-23.839252471923828, -1.5597015619277954
374,1797754109,0.9205106,0.066305496,0.05833647,0.38060555,-1.8611334562301636,2.3759329319000244,6.35687255859375,6.23171854019165,-34.76625442504883, -1.495147943496704
375,1797770776,0.9209299,0.06927476,0.053133376,0.3798241,-1.8764671087265015,2.1835179328918457,8.44465446472168,3.6499125957489014,-39.275428771972656, -3.376450777053833
376,1797787443,0.92147064,0.070766345,0.047633875,0.37896588,-1.9036363363265991,2.1610493659973145,9.837079048156738,-6.530708312988281,-37.461891174316406, -4.548518657684326
377,1797804110,0.9221746,0.0689554,0.04002147,0.37846747,-1.805638074874878,1.6942754983901978,6.88183069229126,-33.162227630615234,-42.21041488647461, -2.715012311935425
378,1797820777,0.9229042,0.06298,0.028092766,0.37880403,-1.6432671546936035,3.1319332122802734,2.0948898792266846,-71.0502700805664,-58.44315719604492, 3.450293779373169
379,1797837444,0.9228655,0.062024955,0.005195448,0.3800597,2.259697437286377,-2.8265929222106934,-19.649782180786133,-67.73457336425781,-140.66696166992188, 17.05406379699707
380,1797854111,0.9229976,0.060051505,-0.027944382,0.37906277,12.208451271057129,-0.07821443676948547,-1.9298923015594482,-100.92772674560547,-203.8470916748047, 6.69852876663208
381,1797870778,0.9225773,0.059492834,-0.057306454,0.37686592,2.498185157775879,1.5516091585159302,9.87930679321289,-82.08624267578125,-183.50271606445312, -1.2842884063720703
382,1797887445,0.92154115,0.057523455,-0.08907612,0.3735217,6.426921367645264,-4.753131866455078,-1.162885069847107,-97.49028015136719,-195.79244995117188, -5.336845397949219
383,1797904112,0.919033,0.060035866,-0.117525704,0.37143242,-0.4178957939147949,0.4380801320075989,5.816116809844971,-58.94635009765625,-186.34178161621094, 2.3600988388061523
384,1797920779,0.91639954,0.063693605,-0.14244124,0.36859944,1.8099786043167114,2.252924680709839,6.05695915222168,-43.214508056640625,-167.4563446044922, -4.338365077972412
385,1797937446,0.9139245,0.07188608,-0.16321361,0.36460376,4.044288158416748,3.920387029647827,9.893486022949219,-5.423905849456787,-153.21932983398438, -18.243562698364258
386,1797954113,0.9115471,0.07344133,-0.18339227,0.3606321,6.54849100112915,3.082404613494873,10.196210861206055,-45.814823150634766,-132.7248077392578, -11.073439598083496
387,1797970780,0.9087719,0.076410145,-0.20109013,0.3575723,7.991347789764404,-1.8577079772949219,5.882173538208008,-29.556447982788086,-120.63025665283203, -7.303627967834473
388,1797987447,0.9055393,0.084178545,-0.21513501,0.35585096,8.374460220336914,-1.9923255443572998,6.615281105041504,11.625478744506836,-109.30741882324219, -6.376117706298828
389,1798004114,0.90237236,0.092972346,-0.22655311,0.35461828,8.20645809173584,-3.028441905975342,7.964938163757324,25.24027442932129,-94.87060546875, -6.561800003051758
390,1798020781,0.8988963,0.10037975,-0.23635435,0.35503,9.158367156982422,-4.490823745727539,8.00025749206543,23.505109786987305,-80.7430648803711, 5.449462413787842
391,1798037448,0.8946177,0.1082606,-0.24527554,0.35746187,10.337240219116211,-4.081521987915039,9.686849594116211,32.647369384765625,-76.21678161621094, 18.393924713134766
392,1798054115,0.889487,0.118273884,-0.2524928,0.36203817,10.796614646911621,-3.594709873199463,10.145273208618164,54.41613006591797,-70.69134521484375, 28.680917739868164
393,1798070782,0.88361686,0.13085547,-0.25739545,0.36857307,10.819663047790527,-1.6978648900985718,11.527735710144043,79.98151397705078,-62.53122329711914, 35.87533187866211
394,1798087449,0.8770156,0.14499201,-0.2607497,0.37660402,10.023496627807617,-0.014287501573562622,13.517765998840332,93.25967407226562,-57.29065704345703, 37.61504364013672
395,1798104116,0.8698364,0.15926772,-0.26394123,0.38516706,9.565855026245117,1.1698247194290161,12.279609680175781,94.943359375,-57.47987365722656, 40.444091796875
396,1798120783,0.86221474,0.17273532,-0.26791373,0.39366347,9.119754791259766,2.2547781467437744,12.1229248046875,87.6783218383789,-61.17530822753906, 42.776885986328125
397,1798137450,0.8550891,0.18373545,-0.27277794,0.40081948,9.090543746948242,3.555649995803833,13.046159744262695,67.33826446533203,-60.69009780883789, 39.087135314941406
398,1798154117,0.8494851,0.1954301,-0.2740648,0.4062892,9.279071807861328,5.257507801055908,13.63487720489502,76.02468872070312,-41.104434967041016, 19.28122901916504
399,1798170784,0.84360176,0.20602211,-0.27796978,0.4106385,5.959499835968018,3.705549716949463,11.8142671585083,60.67573165893555,-55.56266403198242, 19.67624282836914
400,1798187451,0.8362429,0.21495102,-0.2879545,0.4142176,7.030087471008301,4.428085803985596,8.432214736938477,35.020816802978516,-90.1858901977539, 32.145904541015625
401,1798204118,0.82835203,0.22118051,-0.30279252,0.416208,8.922492027282715,3.5200231075286865,6.791260719299316,3.6876986026763916,-113.78734588623047, 37.894325256347656
402,1798220785,0.82089716,0.22918965,-0.31615844,0.41670626,9.703041076660156,3.9460346698760986,11.60010814666748,14.358116149902344,-111.80219268798828, 22.678300857543945
403,1798237452,0.8130651,0.2408539,-0.3253238,0.41842446,7.941280364990234,3.270236015319824,15.095213890075684,50.592037200927734,-97.53474426269531, 16.699073791503906
404,1798254119,0.8052196,0.25394678,-0.3319611,0.42063588,8.143362998962402,5.411663055419922,14.546815872192383,71.04712677001953,-86.37460327148438, 15.804610252380371
405,1798270786,0.79869723,0.26380986,-0.33838806,0.42187786,7.533929347991943,5.080193042755127,13.605330467224121,49.22056198120117,-74.77031707763672, 13.696781158447266
406,1798287453,0.7925509,0.27341342,-0.34361482,0.42312798,7.309618949890137,3.5596578121185303,12.891843795776367,50.5974235534668,-66.7445297241211, 11.149468421936035
407,1798304120,0.786196,0.28356916,-0.34767446,0.42497897,7.776083469390869,3.1215405464172363,12.189083099365234,58.83091354370117,-61.53703308105469, 11.564031600952148
408,1798320787,0.7802504,0.29376072,-0.35016552,0.42696407,7.890877723693848,4.060271263122559,12.995468139648438,63.15492248535156,-52.068485260009766, 7.967026233673096
409,1798337454,0.7754973,0.30181134,-0.35230404,0.4282475,7.53231954574585,4.262141227722168,12.487017631530762,48.61994934082031,-42.59031677246094, 5.178381443023682
410,1798354121,0.7721361,0.30798218,-0.35379803,0.42869556,7.571942329406738,4.696149826049805,11.630282402038574,35.59477233886719,-32.11912155151367, -0.12167409807443619
411,1798370788,0.7700729,0.31154165,-0.3553124,0.4285824,7.745538711547852,4.371101379394531,10.820528030395508,17.560609817504883,-22.670761108398438, -0.4933916926383972
412,1798387455,0.76878214,0.31387496,-0.35657632,0.42814702,7.681151866912842,4.253652095794678,10.1048002243042,9.370654106140137,-16.61673355102539, -1.99274742603302
413,1798404122,0.76780367,0.31600466,-0.35705936,0.42793378,8.213497161865234,4.282902240753174,8.783088684082031,10.4691162109375,-10.706950187683105, -2.9060702323913574
414,1798420789,0.7671801,0.31762406,-0.35696048,0.4279358,8.149275779724121,4.053608417510986,8.157646179199219,9.243492126464844,-4.818288326263428, -2.812685489654541
415,1798437456,0.7664928,0.31945696,-0.35638183,0.4282851,8.413092613220215,4.2218337059021,8.332262992858887,12.771735191345215,-2.3226633071899414, -2.3594048023223877
416,1798454123,0.7659952,0.3209966,-0.35564768,0.42863438,8.36023235321045,4.320944309234619,8.06466007232666,11.265936851501465,-0.1837456077337265, -2.534006357192993
417,1798470790,0.7657124,0.32250586,-0.35432348,0.42910337,8.275446891784668,4.4566426277160645,9.040399551391602,12.661088943481445,3.799729824066162, -3.7575266361236572
418,1798487457,0.76560014,0.32392716,-0.35249054,0.42974198,9.117527961730957,4.214908123016357,8.295065879821777,13.732779502868652,7.509284019470215, -4.273521423339844
419,1798504124,0.7658394,0.32464275,-0.35019135,0.43065447,10.256538391113281,4.995342254638672,8.003880500793457,11.276317596435547,13.514215469360352, -3.200259208679199
420,1798520791,0.7684324,0.31978816,-0.34939176,0.43031698,10.696842193603516,6.3382086753845215,7.662613868713379,-30.768123626708984,25.007652282714844, 0.008112866431474686
421,1798537458,0.7740709,0.30718267,-0.35086942,0.42818666,10.324460983276367,5.879007339477539,7.637210369110107,-89.48983001708984,39.305850982666016, 5.160422325134277
422,1798554125,0.7816202,0.29109257,-0.352317,0.42450905,9.538348197937012,4.0500874519348145,7.190774440765381,-115.74420928955078,51.08234405517578, -0.36282432079315186
423,1798570792,0.78910315,0.27768654,-0.3506275,0.421031,8.923242568969727,2.9899299144744873,7.5812811851501465,-91.55364227294922,60.36299133300781, -11.90587043762207
424,1798587459,0.7967284,0.2676266,-0.34496644,0.41784945,9.039356231689453,3.5247409343719482,8.567341804504395,-61.455387115478516,73.1456069946289, -26.3936710357666
425,1798604126,0.805529,0.25773817,-0.33653796,0.41404897,9.573899269104004,3.208913803100586,8.927369117736816,-56.198814392089844,89.46784210205078, -38.684181213378906
426,1798620793,0.815067,0.24824062,-0.32502812,0.41036507,9.764192581176758,1.4335894584655762,8.575545310974121,-46.29762268066406,107.34724426269531, -46.53179931640625
427,1798637460,0.8249929,0.23975988,-0.31043065,0.40685967,9.70389461517334,0.7496790885925293,7.765801906585693,-32.13190460205078,122.98261260986328, -54.2164421081543
428,1798654127,0.8353178,0.23221588,-0.29309934,0.40300483,9.237025260925293,-0.42825913429260254,6.612330913543701,-17.091876983642578,136.86279296875, -60.62439727783203
429,1798670794,0.8452308,0.22603911,-0.2733177,0.39973614,9.185114860534668,-0.27653902769088745,6.321254253387451,-1.1825941801071167,147.26405334472656, -63.1632080078125
430,1798687461,0.8547778,0.21929498,-0.25199085,0.39719704,8.991352081298828,-0.037322789430618286,6.924114227294922,-1.1023797988891602,157.6920166015625, -62.200035095214844
431,1798704128,0.864326,0.2103141,-0.23011018,0.3946615,8.079005241394043,-1.0383912324905396,7.239980220794678,-12.705286979675293,167.1214599609375, -59.1862678527832
432,1798720795,0.8734886,0.19986866,-0.20764494,0.39236972,7.183172702789307,-0.8676308393478394,6.865307331085205,-18.841115951538086,174.35997009277344, -55.26435852050781
433,1798737462,0.88235533,0.18715347,-0.18538406,0.3899432,6.176056385040283,-0.6080002784729004,5.935474395751953,-32.77741241455078,178.69227600097656, -51.79048538208008
434,1798754129,0.89071923,0.17288049,-0.16301669,0.38750142,5.710418701171875,-0.8117959499359131,6.083015441894531,-41.289493560791016,182.8970947265625, -48.71339797973633
435,1798770796,0.89798504,0.15936261,-0.14032751,0.38540214,5.152831077575684,-1.376539945602417,6.167591571807861,-34.08961868286133,182.06935119628906, -44.94144058227539
436,1798787463,0.90412164,0.14632109,-0.1168553,0.38405633,4.290130138397217,-1.3740047216415405,6.767342567443848,-27.07615852355957,185.4121856689453, -38.63365173339844
437,1798804130,0.90898,0.13365862,-0.09274514,0.38378298,3.369608163833618,-0.8849164843559265,6.7297258377075195,-20.854825973510742,188.45298767089844, -29.549457550048828
438,1798820797,0.91258985,0.121397525,-0.068192676,0.38443768,3.3055989742279053,0.0005014752969145775,6.961041450500488,-15.415610313415527,190.23117065429688, -21.121850967407227
439,1798837464,0.91479063,0.10995781,-0.044085074,0.38616604,2.950918197631836,0.4073173999786377,6.813104152679443,-9.745988845825195,185.5208282470703, -10.674152374267578
440,1798854131,0.91587085,0.098785035,-0.02164243,0.388528,2.4206981658935547,0.9784746766090393,6.470269680023193,-11.442975997924805,174.4937744140625, -2.5346240997314453
441,1798870798,0.9161655,0.08790133,-0.0016227026,0.39103922,1.7173594236373901,1.441248893737793,5.83182430267334,-15.542341232299805,158.4600067138672, 2.108363389968872
442,1798887465,0.9160574,0.07720789,0.015496573,0.39324015,0.5752111077308655,1.9373164176940918,5.643819332122803,-21.91192626953125,139.49267578125, 2.989577531814575
443,1798904132,0.9160594,0.06646987,0.030162062,0.39434406,0.3256385922431946,2.915663242340088,6.245751857757568,-28.78487205505371,123.56117248535156, -2.916388988494873
444,1798920799,0.9162735,0.055286076,0.0425132,0.3944349,-0.4149501323699951,1.82663893699646,5.409660816192627,-37.77996826171875,109.6833724975586, -8.90565299987793
445,1798937466,0.91644853,0.04546662,0.052349266,0.39409956,-1.2406256198883057,1.2769865989685059,4.435345649719238,-35.87942123413086,89.97868347167969, -10.128792762756348
446,1798954133,0.9164389,0.038054217,0.059105173,0.3939524,-1.8059664964675903,1.0645744800567627,3.5695078372955322,-29.076908111572266,64.15691375732422, -6.610498428344727
447,1798970800,0.91635597,0.03270634,0.06378028,0.39389658,-2.2324657440185547,0.9545107483863831,4.162039279937744,-21.729639053344727,45.486419677734375, -4.451194763183594
448,1798987467,0.916237,0.030931797,0.0675626,0.3936856,-2.7067224979400635,0.6012927293777466,3.897625207901001,-1.5634171962738037,30.14221954345703, -3.5613040924072266
449,1799004134,0.91617006,0.031895835,0.070544444,0.3932414,-2.828343629837036,0.36594298481941223,4.080513000488281,13.61720085144043,17.586162567138672, -3.7265260219573975
450,1799020801,0.91610175,0.035525396,0.07275547,0.39268586,-2.518634557723999,0.5417012572288513,3.848850965499878,28.37917709350586,5.474096775054932, -2.958083391189575
451,1799037468,0.91600007,0.04095849,0.07421547,0.3921205,-2.634363889694214,1.0004392862319946,4.72286319732666,37.723968505859375,-4.132924556732178, -1.8418314456939697
452,1799054135,0.91587067,0.0476399,0.07487788,0.39154172,-2.4097068309783936,1.4922572374343872,4.640563011169434,43.446311950683594,-12.531590461730957, -0.9863138198852539
453,1799070802,0.91578096,0.05401219,0.07436059,0.39102247,-2.2699272632598877,1.5188654661178589,5.470272541046143,38.27180862426758,-19.14596176147461, -0.4879762530326843
454,1799087469,0.91556716,0.060070418,0.072879575,0.39091828,-2.4487051963806152,1.797758936882019,7.043496131896973,33.53102493286133,-24.166675567626953, 2.6592609882354736
455,1799104136,0.91529435,0.064714015,0.06992001,0.3913567,-2.4937314987182617,2.6559791564941406,7.236680030822754,20.398799896240234,-29.432098388671875, 6.138617992401123
456,1799120803,0.91517526,0.067870975,0.06512559,0.39192706,-2.544175386428833,3.7340495586395264,6.761183738708496,5.9608540534973145,-37.009220123291016, 6.658586502075195
457,1799137470,0.915564,0.06726432,0.055112794,0.39265877,-2.3707234859466553,6.040792942047119,0.3958231210708618,-32.11713790893555,-59.871402740478516, 7.057868957519531
458,1799154137,0.9155897,0.066693574,0.030471703,0.395372,3.9760446548461914,0.029659941792488098,-21.092185974121094,-72.03323364257812,-151.030517578125, 27.29274559020996
459,1799170804,0.916212,0.06614239,-0.0059250817,0.3951528,14.967994689941406,-1.4898489713668823,2.2064707279205322,-103.57120513916016,-226.5447540283203, 12.60383415222168
460,1799187471,0.91582465,0.06692264,-0.03991881,0.39394575,4.356125831604004,-4.123958110809326,14.946125984191895,-88.205810546875,-215.33604431152344, 7.962466239929199
461,1799204138,0.91389614,0.074354365,-0.07102115,0.3927107,1.782787799835205,-3.836235284805298,6.070526599884033,-37.7143669128418,-215.54598999023438, 8.801608085632324
462,1799220805,0.9117299,0.07894014,-0.0995798,0.39064178,0.0524434968829155,5.034847259521484,3.393165111541748,-48.96610641479492,-192.40451049804688, 4.285415172576904
463,1799237472,0.91059333,0.07518415,-0.1268594,0.38610083,3.2778680324554443,4.5039191246032715,-0.5082812309265137,-100.12679290771484,-162.62403869628906, -8.944120407104492
464,1799254139,0.9082037,0.07593224,-0.14875937,0.383759,3.6528842449188232,1.276732087135315,5.507487773895264,-55.117576599121094,-140.81240844726562, 1.4595357179641724
465,1799270806,0.90549856,0.07977044,-0.16680996,0.3819472,5.971640586853027,1.802840232849121,9.280527114868164,-24.961694717407227,-124.95463562011719, 0.4402114748954773
466,1799287473,0.9023288,0.08269303,-0.18411043,0.3808781,5.561325550079346,1.3443769216537476,9.981913566589355,-27.59647560119629,-117.98169708251953, 6.931738376617432
467,1799304140,0.899457,0.082930386,-0.20132199,0.37890536,6.652398586273193,0.7473764419555664,7.210943222045898,-45.34217834472656,-110.52363586425781, 3.903501510620117
468,1799320807,0.89615774,0.08276172,-0.21745816,0.37784094,9.103233337402344,-3.1567490100860596,5.7457594871521,-43.55116271972656,-102.85828399658203, 10.590150833129883
469,1799337474,0.89298713,0.08705056,-0.22937617,0.37733653,7.868791580200195,-2.1812045574188232,8.646484375,-4.326499938964844,-87.87676239013672, 4.629384994506836
470,1799354141,0.8899071,0.09281949,-0.23867916,0.37746835,8.49813461303711,-3.4785778522491455,8.766471862792969,12.518662452697754,-75.11031341552734, 4.39166259765625
471,1799370808,0.88642645,0.10022655,-0.24587634,0.3791411,8.733516693115234,-3.1564342975616455,9.227194786071777,30.8262996673584,-66.12250518798828, 10.808030128479004
472,1799387475,0.88250643,0.10930089,-0.250377,0.38281482,8.313651084899902,-2.4337849617004395,9.204568862915039,51.73422622680664,-53.37321090698242, 19.450504302978516
473,1799404142,0.87808263,0.11992201,-0.25264683,0.38827723,8.952122688293457,-1.5643420219421387,11.58596134185791,70.47457885742188,-43.414310455322266, 27.271011352539062
474,1799420809,0.8743619,0.13771003,-0.24441215,0.39596733,10.37463092803955,0.2073928713798523,13.158255577087402,145.10061645507812,3.9360532760620117, 17.712665557861328
475,1799437476,0.8697901,0.15730052,-0.23750983,0.40287828,4.800557613372803,-0.021751463413238525,9.909972190856934,151.80992126464844,-11.141276359558105, 13.561561584472656
476,1799454143,0.8637625,0.17681003,-0.23498648,0.40918717,5.24019718170166,1.6849631071090698,9.163997650146484,139.79327392578125,-40.161293029785156, 18.845989227294922
477,1799470810,0.85718745,0.18951058,-0.23918593,0.41485605,6.8556976318359375,2.6922473907470703,8.781204223632812,77.10456848144531,-63.219993591308594, 31.54173469543457
478,1799487477,0.8506972,0.1977583,-0.24724193,0.41961616,6.784789085388184,2.617178440093994,8.86207389831543,37.41136169433594,-74.49146270751953, 37.3589973449707
479,1799504144,0.8447221,0.20540932,-0.25516415,0.4232529,8.737072944641113,3.9523072242736816,12.899648666381836,31.580991744995117,-72.65401458740234, 30.243555068969727
480,1799520811,0.8388439,0.21214561,-0.26355934,0.42646414,7.309272289276123,2.5355844497680664,14.287454605102539,24.39375877380371,-73.0866928100586, 30.498640060424805
481,1799537478,0.8331522,0.21772544,-0.27295494,0.4288925,7.132973670959473,4.149825572967529,14.100767135620117,13.56786823272705,-76.19491577148438, 29.741783142089844
482,1799554145,0.8283957,0.22008604,-0.2831833,0.4302674,7.323166847229004,3.2308695316314697,14.150667190551758,-10.090733528137207,-71.18526458740234, 29.117319107055664
483,1799570812,0.8233153,0.22349672,-0.2930653,0.431641,6.454105377197266,3.401015043258667,14.441899299621582,-2.213958263397217,-72.90096282958984, 28.04378890991211
484,1799587479,0.8180902,0.22645245,-0.30382314,0.432596,6.821854591369629,4.0673980712890625,13.423715591430664,-7.8125104904174805,-77.44676971435547, 28.686105728149414
485,1799604146,0.8127133,0.22931649,-0.3149245,0.43328273,6.889822959899902,3.185061454772949,12.81098461151123,-9.483229637145996,-79.84022521972656, 28.662246704101562
486,1799620813,0.80666614,0.23481353,-0.32438952,0.4346538,6.771833419799805,2.832765579223633,13.234760284423828,14.17567253112793,-78.74818420410156, 27.718433380126953
487,1799637480,0.80047536,0.2419364,-0.3318826,0.4365318,7.076594829559326,4.182565689086914,13.898600578308105,30.443342208862305,-72.23029327392578, 24.16693115234375
488,1799654147,0.79516804,0.24845396,-0.33775416,0.43806475,6.58375358581543,4.442605972290039,14.560399055480957,29.705480575561523,-60.112220764160156, 18.330303192138672
489,1799670814,0.7904927,0.25424019,-0.34232405,0.43965632,6.254369735717773,4.269137382507324,14.10231876373291,27.014942169189453,-49.506473541259766, 14.907007217407227
490,1799687481,0.7860138,0.25997102,-0.34556785,0.44179237,6.388491630554199,3.785501480102539,12.54053020477295,31.505409240722656,-40.81509017944336, 15.045266151428223
491,1799704148,0.78196615,0.2651921,-0.3480419,0.44392437,6.8180341720581055,4.195568561553955,10.37419605255127,32.08518600463867,-33.932579040527344, 14.98919677734375
492,1799720815,0.7789366,0.26789898,-0.3509624,0.445324,7.153343200683594,4.655702590942383,9.773674964904785,13.579724311828613,-27.598735809326172, 14.806706428527832
493,1799737482,0.77689654,0.26863372,-0.3542103,0.44587338,7.228208065032959,4.508236885070801,10.02135944366455,-1.8795795440673828,-22.52561378479004, 12.61931037902832
494,1799754149,0.77493525,0.26940203,-0.35694808,0.44663855,7.337658405303955,4.021733283996582,10.652534484863281,0.22407951951026917,-19.351390838623047, 12.537919998168945
495,1799770816,0.77298945,0.2703817,-0.3595112,0.44736242,7.785161018371582,4.269834518432617,9.576295852661133,1.7416216135025024,-19.152734756469727, 11.455394744873047
496,1799787483,0.77144706,0.27001962,-0.3628196,0.44757217,8.46053695678711,4.269554138183594,9.136310577392578,-9.72033405303955,-18.975988388061523, 12.213332176208496
497,1799804150,0.7699706,0.26935995,-0.36713484,0.44699287,8.756033897399902,3.7653627395629883,8.26897144317627,-16.506317138671875,-24.723705291748047, 10.46359920501709
498,1799820817,0.7681497,0.27029032,-0.37082738,0.44651598,9.409648895263672,3.375861644744873,7.803957462310791,-5.2932000160217285,-27.005918502807617, 6.920225143432617
499,1799837484,0.76579577,0.27309453,-0.373503,0.4466229,10.729249000549316,3.8115904331207275,7.962732315063477,10.191908836364746,-27.663976669311523, 4.994024753570557
500,1799854151,0.7641856,0.27433458,-0.37643367,0.44616005,11.611551284790039,4.796338081359863,7.967759609222412,-1.70107102394104,-23.35787010192871, 4.229811668395996
501,1799870818,0.76408064,0.27245966,-0.3794076,0.44496796,10.678960800170898,3.356015682220459,7.702757358551025,-22.949607849121094,-11.503175735473633, 3.956947088241577
502,1799887485,0.7646176,0.27121142,-0.38053626,0.44384316,10.241679191589355,3.072172164916992,7.170464515686035,-15.052210807800293,-1.9248470067977905, -2.729342460632324
503,1799904152,0.76650614,0.27002785,-0.37964246,0.4420692,9.366137504577637,2.4505231380462646,7.475425720214844,-12.770795822143555,10.837821006774902, -14.193658828735352
504,1799920819,0.7693932,0.2703719,-0.37611005,0.4398574,8.906105995178223,2.2512876987457275,7.536917686462402,0.2964875102043152,21.88706398010254, -28.41402244567871
505,1799937486,0.7739891,0.27025592,-0.37092492,0.4362541,9.24734878540039,2.604752779006958,7.776715278625488,-3.917734146118164,33.84097671508789, -42.8202018737793
506,1799954153,0.7802864,0.26873493,-0.36407626,0.4317213,9.413454055786133,1.5429726839065552,8.213094711303711,-11.943005561828613,49.5070915222168, -52.37309646606445
507,1799970820,0.7878742,0.26575023,-0.35557446,0.42684644,9.413016319274902,0.6677240133285522,8.376821517944336,-18.126008987426758,65.30413055419922, -57.44035339355469
508,1799987487,0.7960202,0.26271474,-0.3447281,0.4224873,8.84914493560791,-0.8786454796791077,8.066937446594238,-11.267638206481934,80.4460678100586, -60.46664047241211
509,1800004154,0.8047617,0.25875953,-0.3320128,0.4185327,8.950410842895508,-0.31318017840385437,8.0745210647583,-10.964761734008789,95.47925567626953, -61.21794891357422
510,1800020821,0.81394017,0.25329554,-0.3179901,0.41500032,8.294734001159668,-0.5376286506652832,7.66228723526001,-15.344026565551758,108.80084228515625, -59.05763244628906
511,1800037488,0.82405955,0.24586414,-0.30299872,0.41069293,7.885862350463867,-0.6157965660095215,7.191136837005615,-20.962360382080078,121.69781494140625, -58.19281005859375
512,1800054155,0.8341807,0.23777066,-0.28614572,0.4070975,7.443112850189209,-0.5692620277404785,7.430123329162598,-18.67095375061035,135.2967071533203, -56.229305267333984
513,1800070822,0.8439019,0.22963177,-0.26737377,0.4044877,6.6551337242126465,-1.0047622919082642,6.794914722442627,-11.349279403686523,147.28631591796875, -52.51826858520508
514,1800087489,0.8535904,0.21999703,-0.24763863,0.4020698,6.338705539703369,0.2461797446012497,6.824662208557129,-17.689363479614258,157.2133331298828, -50.525962829589844
515,1800104156,0.8626568,0.20940441,-0.22711591,0.4004894,5.69498872756958,-0.17725665867328644,6.729691028594971,-22.746013641357422,163.6867218017578, -48.0941047668457
516,1800120823,0.87111664,0.19790436,-0.20611377,0.39938334,5.438102722167969,-0.4517984092235565,6.483900547027588,-25.173370361328125,168.79037475585938, -42.914825439453125
517,1800137490,0.8788454,0.18548983,-0.18520036,0.3986543,5.113456726074219,-0.08522627502679825,6.427832126617432,-29.341516494750977,170.27731323242188, -37.26231002807617
518,1800154157,0.88560665,0.17279206,-0.16438265,0.39852512,4.720482349395752,0.22449345886707306,6.560579299926758,-29.29945945739746,170.0416259765625, -30.528398513793945
519,1800170824,0.89149386,0.15930396,-0.1437018,0.39901257,4.413676738739014,0.5034880638122559,6.733847141265869,-32.73777389526367,171.1518096923828, -23.343345642089844
520,1800187491,0.8963057,0.14645362,-0.12306754,0.4000525,4.026767730712891,0.6978071928024292,7.084460735321045,-27.222511291503906,168.69090270996094, -17.60207176208496
521,1800204158,0.8999353,0.13522834,-0.10254119,0.40164068,3.5935373306274414,0.7142220735549927,7.538219928741455,-15.842422485351562,163.1381072998047, -12.24972152709961
522,1800220825,0.902604,0.12501131,-0.08295278,0.4034813,2.740633726119995,1.211104154586792,7.504194736480713,-11.11544132232666,154.1331024169922, -7.883537769317627
523,1800237492,0.90452844,0.11550364,-0.06479765,0.40532526,2.2713212966918945,1.785824179649353,7.136151313781738,-10.048050880432129,142.86825561523438, -4.976625919342041
524,1800254159,0.9058387,0.106649205,-0.048550915,0.4070934,1.5721080303192139,2.1601932048797607,6.352025508880615,-10.858708381652832,128.86358642578125, -2.5154945850372314
525,1800270826,0.9068048,0.09807714,-0.034486003,0.40852997,0.6076429486274719,2.1865615844726562,6.121028423309326,-15.08059024810791,114.14086151123047, -2.1150543689727783
526,1800287493,0.907571,0.09034063,-0.022288011,0.40945914,0.11840697377920151,2.562981605529785,5.535386085510254,-15.116055488586426,99.76948547363281, -3.6582651138305664
527,1800304160,0.9082624,0.08260322,-0.01215313,0.40998608,-0.3781417906284332,2.1181375980377197,4.626664161682129,-20.965837478637695,86.63900756835938, -4.677650451660156
528,1800320827,0.90876025,0.07677886,-0.0033589988,0.41018134,-0.8320412039756775,2.3668017387390137,5.4703688621521,-12.732266426086426,72.66799926757812, -5.603602409362793
529,1800337494,0.9089381,0.07381328,0.0043998775,0.41032168,-1.1157746315002441,1.6826499700546265,4.706993579864502,2.3609492778778076,58.09446334838867, -4.56453275680542
530,1800354161,0.90909326,0.072490044,0.011072023,0.4100883,-1.2446209192276,1.9582020044326782,4.259053707122803,9.573124885559082,46.473548889160156, -6.2341814041137695
531,1800370828,0.90912986,0.073960215,0.016900044,0.40954512,-1.4638580083847046,1.8729503154754639,3.7184677124023438,24.723140716552734,33.16878890991211, -7.201657772064209
532,1800387495,0.9091618,0.077317365,0.021398138,0.4086432,-1.5916471481323242,2.3168938159942627,3.711137294769287,32.80660629272461,19.35160255432129, -8.532441139221191
533,1800404162,0.90928453,0.081354104,0.024021164,0.40743852,-1.9199225902557373,2.5247509479522705,4.099570274353027,31.767465591430664,5.537686347961426, -9.57813835144043
534,1800420829,0.9095341,0.08544455,0.024562912,0.40600955,-1.8562304973602295,2.9209508895874023,4.973333358764648,26.223430633544922,-7.78445291519165, -10.157258987426758
535,1800437496,0.9099823,0.08734418,0.021947488,0.4047488,-1.5573517084121704,3.3999733924865723,4.653743267059326,3.54805064201355,-21.35898208618164, -8.169261932373047
536,1800454163,0.9106165,0.08692719,0.014203347,0.40375677,-1.490694522857666,5.073185443878174,0.9247702360153198,-25.392993927001953,-46.8759651184082, -4.271255016326904
537,1800470830,0.91041505,0.08397799,-0.008105058,0.40500206,1.459179162979126,-3.021592140197754,-19.04750633239746,-81.45342254638672,-129.62867736816406, 20.519412994384766
538,1800487497,0.90944844,0.08662747,-0.04618879,0.40406197,16.87415313720703,-5.786221504211426,-11.2352876663208,-90.01884460449219,-245.2686767578125, 17.769075393676758
539,1800504164,0.9077539,0.08805001,-0.081961125,0.4018861,-0.4384816884994507,-3.033461332321167,17.642805099487305,-91.16236877441406,-228.1227264404297, 11.047416687011719
540,1800520831,0.90595114,0.09021664,-0.115779325,0.3971254,3.87326979637146,0.3896195590496063,2.280651807785034,-82.43616485595703,-219.6485595703125, -6.39353084564209
541,1800537498,0.9035173,0.08693139,-0.14985569,0.39197305,-0.018901869654655457,-1.8719608783721924,2.7488536834716797,-117.02212524414062,-207.0717010498047, -2.607880115509033
542,1800554165,0.9003432,0.08608959,-0.1766843,0.38827014,1.0150489807128906,4.267158031463623,3.360907554626465,-80.33088684082031,-168.51856994628906, 1.5373796224594116
543,1800570832,0.8975651,0.08826759,-0.19813521,0.3838338,4.333006381988525,4.530550003051758,4.61819314956665,-48.44307327270508,-143.23648071289062, -10.891785621643066
544,1800587499,0.8949696,0.09358734,-0.21456468,0.37978035,7.265523910522461,4.393718242645264,9.384521484375,-15.430900573730469,-120.0256576538086, -16.31275177001953
545,1800604166,0.892012,0.095239855,-0.23177111,0.3761996,7.464737415313721,-0.7781379222869873,9.109504699707031,-39.1322021484375,-115.43047332763672, -6.521822452545166
546,1800620833,0.888684,0.09585314,-0.24776533,0.37371865,8.34298324584961,-2.5539066791534424,4.272430419921875,-40.354557037353516,-105.14885711669922, 2.041673183441162
547,1800637500,0.8852576,0.09558764,-0.26158544,0.37249857,8.150908470153809,-4.417667865753174,7.001002311706543,-37.88824462890625,-88.8811264038086, 10.048458099365234
548,1800654167,0.8823185,0.09680772,-0.27205953,0.3716534,9.02979564666748,-3.3462002277374268,7.644891262054443,-19.870906829833984,-71.15933990478516, 6.185220718383789
549,1800670834,0.87923646,0.099936254,-0.2796406,0.3725015,10.156599044799805,-4.140080451965332,8.238131523132324,2.397345781326294,-57.58930206298828, 11.307843208312988
550,1800687501,0.8754805,0.1074574,-0.28419358,0.37579376,10.162875175476074,-3.1475887298583984,9.15295696258545,41.909542083740234,-50.11106872558594, 17.2570858001709
551,1800704168,0.8712463,0.11650474,-0.28685972,0.38087806,10.168967247009277,-0.5080352425575256,11.252939224243164,59.856170654296875,-42.2789306640625, 24.8817195892334
552,1800720835,0.8665863,0.12658109,-0.28780675,0.38752136,9.59568977355957,0.19486281275749207,12.302824974060059,72.24647521972656,-34.22210693359375, 29.68226432800293
553,1800737502,0.860987,0.14028405,-0.28679797,0.39594057,9.249241828918457,0.17744681239128113,12.262784957885742,101.89633178710938,-32.5980110168457, 31.985925674438477
554,1800754169,0.85463536,0.15745975,-0.28446463,0.4048271,8.362950325012207,1.7665600776672363,12.408387184143066,127.74046325683594,-35.36116409301758, 28.793445587158203
555,1800770836,0.84853804,0.17706524,-0.27892622,0.41331723,9.313289642333984,3.372279644012451,13.377036094665527,149.73463439941406,-23.390975952148438, 17.43461799621582
556,1800787503,0.8428791,0.19293919,-0.27716255,0.4189396,5.907512664794922,3.214676856994629,9.111281394958496,111.43114471435547,-37.58369827270508, 11.617166519165039
557,1800804170,0.83614546,0.20487104,-0.2824653,0.42320472,7.116305351257324,3.3112332820892334,11.98784065246582,67.24154663085938,-71.09100341796875, 24.10065269470215
558,1800820837,0.8284335,0.21465574,-0.29322487,0.4261927,7.262633800506592,3.8929951190948486,8.508218765258789,37.98102569580078,-99.94808197021484, 31.732906341552734
559,1800837504,0.82166076,0.22011818,-0.30769086,0.42631954,8.791458129882812,3.413057804107666,11.29507064819336,-4.504135608673096,-110.68350982666016, 27.2509765625
560,1800854171,0.8151159,0.22550225,-0.32143798,0.42592558,9.08940601348877,2.264730215072632,15.914941787719727,-4.040918827056885,-106.6517562866211, 23.147916793823242
561,1800870838,0.80764323,0.23412158,-0.33354196,0.42620328,7.758637428283691,4.091595649719238,16.800682067871094,22.25689125061035,-107.91732788085938, 20.465089797973633
562,1800887505,0.8013959,0.2402894,-0.3452864,0.4252096,7.966242790222168,4.807742118835449,15.343892097473145,6.6939520835876465,-97.82860565185547, 16.594247817993164
563,1800904172,0.79544145,0.24695195,-0.3555503,0.4241132,8.04325008392334,3.8442189693450928,13.778294563293457,13.007538795471191,-90.65988159179688, 11.582378387451172
564,1800920839,0.7895555,0.2542095,-0.36455894,0.42317435,7.9955525398254395,3.710642099380493,12.854935646057129,20.183631896972656,-85.1506118774414, 8.681591033935547
565,1800937506,0.78396153,0.26206708,-0.3716363,0.42262504,8.231375694274902,3.548717498779297,13.501391410827637,29.52153968811035,-75.05157470703125, 5.089968681335449
566,1800954173,0.7786622,0.27044496,-0.37683547,0.42253995,7.9044694900512695,3.168393611907959,14.173949241638184,38.43653869628906,-64.90650939941406, 2.043569326400757
567,1800970840,0.7733406,0.27933136,-0.3803548,0.423378,7.829294681549072,2.8562002182006836,13.690520286560059,48.475860595703125,-55.79753875732422, 2.6295714378356934
568,1800987507,0.768503,0.28732327,-0.38291106,0.4245324,7.768727779388428,3.2110440731048584,13.082328796386719,46.42472457885742,-46.26097869873047, 3.4085707664489746
569,1801004174,0.764023,0.29419002,-0.3850266,0.4259998,7.837187767028809,2.869877338409424,12.24136734008789,41.885982513427734,-39.146278381347656, 6.129440784454346
570,1801020841,0.7597219,0.3007119,-0.38659522,0.42771435,7.973395347595215,3.0621590614318848,9.988655090332031,41.97346115112305,-34.338783264160156, 6.725395679473877
571,1801037508,0.75644726,0.30483577,-0.3883907,0.4289704,8.511146545410156,3.4574100971221924,9.573772430419922,25.439559936523438,-26.719697952270508, 8.169882774353027
572,1801054175,0.7541285,0.30682468,-0.39089504,0.42936006,8.64262866973877,3.4990713596343994,8.800411224365234,7.925016403198242,-23.396127700805664, 8.04566478729248
573,1801070842,0.75253296,0.30718693,-0.39349428,0.42952588,8.579652786254883,2.724846363067627,9.405744552612305,-2.921004295349121,-17.631816864013672, 9.334221839904785
574,1801087509,0.7510631,0.30709878,-0.39575043,0.43008858,8.697674751281738,2.858027458190918,9.67171573638916,-3.4289932250976562,-13.372276306152344, 11.51498794555664
575,1801104176,0.74996316,0.3060327,-0.39784852,0.43083155,8.870583534240723,2.7957494258880615,8.92170524597168,-8.302801132202148,-8.303954124450684, 13.683350563049316
576,1801120843,0.7493035,0.30396017,-0.39999506,0.43145886,9.512036323547363,2.8509421348571777,8.284006118774414,-14.881845474243164,-4.630923748016357, 14.641273498535156
577,1801137510,0.7488778,0.30152816,-0.40181485,0.4322128,10.364532470703125,2.690204620361328,7.423142910003662,-15.91008186340332,-0.9825559258460999, 14.908913612365723
578,1801154177,0.7493988,0.29665315,-0.40385208,0.4327838,11.215592384338379,3.8958358764648438,7.274410724639893,-31.609607696533203,7.396478652954102, 18.3523006439209
579,1801170844,0.7515578,0.2886957,-0.40572697,0.43266785,10.258064270019531,3.2358040809631348,6.791338920593262,-52.27279281616211,20.558727264404297, 18.174884796142578
580,1801187511,0.7551715,0.27832568,-0.40678236,0.43217966,9.71972942352295,2.79402494430542,7.66492223739624,-66.2418212890625,35.2940559387207, 17.02646827697754
581,1801204178,0.7593419,0.26913843,-0.4052662,0.4321158,9.277857780456543,2.5474820137023926,8.121224403381348,-52.350563049316406,47.49488830566406, 9.342612266540527
582,1801220845,0.7647054,0.26027527,-0.40154856,0.43155682,8.968276023864746,3.1472063064575195,7.577871322631836,-47.71614456176758,60.421958923339844, -1.7664806842803955
583,1801237512,0.7713141,0.25205013,-0.395341,0.43040806,8.800275802612305,2.652323007583618,6.985019207000732,-40.845890045166016,73.99657440185547, -14.774840354919434
584,1801254179,0.77938586,0.24313095,-0.3867465,0.4288033,9.06205940246582,1.8839046955108643,6.708765029907227,-41.25064468383789,91.89785766601562, -23.774606704711914
585,1801270846,0.78837883,0.2343849,-0.37552127,0.427208,9.213316917419434,0.9112348556518555,6.459667205810547,-34.0904426574707,107.95905303955078, -31.306087493896484
586,1801287513,0.79800403,0.22603181,-0.36187935,0.42560863,9.375646591186523,-0.04480963945388794,6.533841133117676,-25.892818450927734,121.54727172851562, -38.11167907714844
587,1801304180,0.80829144,0.21883883,-0.34596038,0.42318586,8.9838285446167,0.3361697494983673,6.839016914367676,-8.849434852600098,131.43408203125, -45.4530143737793
588,1801320847,0.81913674,0.21005352,-0.32882705,0.4204348,8.284215927124023,0.36900198459625244,7.108227252960205,-16.94877052307129,143.68002319335938, -47.475502014160156
589,1801337514,0.8301907,0.20006137,-0.3103775,0.4176421,7.7887444496154785,-0.4501916170120239,6.6355485916137695,-20.557329177856445,155.06353759765625, -47.24982452392578
590,1801354181,0.84121037,0.18970107,-0.29009217,0.41500056,7.412166118621826,-1.4156603813171387,6.4079813957214355,-17.538921356201172,166.78001403808594, -48.073970794677734
591,1801370848,0.85127354,0.18042174,-0.26770747,0.41365957,6.814341068267822,-1.5042479038238525,5.6606855392456055,-6.552004814147949,175.18209838867188, -47.96480178833008
592,1801387515,0.8609217,0.17045473,-0.24455434,0.41225293,6.840116500854492,-0.9005435705184937,5.586060523986816,-7.97535514831543,180.82276916503906, -46.88390350341797
593,1801404182,0.86985564,0.15976448,-0.22157305,0.4107703,6.242564678192139,-1.086652398109436,5.827290058135986,-12.018218040466309,180.60220336914062, -43.91508865356445
594,1801420849,0.87785244,0.1495204,-0.19859669,0.40936303,5.2305755615234375,-0.9297268986701965,6.015414714813232,-8.199337005615234,178.00062561035156, -41.51351547241211
595,1801437516,0.88501775,0.13896662,-0.17569248,0.40812287,3.9371964931488037,-0.9229064583778381,6.1049299240112305,-9.17029857635498,177.5, -37.68476486206055
596,1801454183,0.8913875,0.12762377,-0.15253985,0.40727398,3.499058485031128,-0.7354614734649658,6.850245475769043,-12.023063659667969,180.65670776367188, -32.36973571777344
597,1801470850,0.89662635,0.11598878,-0.12939452,0.40726522,3.5559611320495605,-0.4359534680843353,6.81374454498291,-11.94240951538086,180.993408203125, -23.75177001953125
598,1801487517,0.90083206,0.10281472,-0.1074837,0.40789488,3.4897050857543945,0.09053503721952438,6.786880016326904,-23.48272132873535,177.2994842529297, -14.578263282775879
599,1801504184,0.903846,0.08926814,-0.08716593,0.40926233,2.8789799213409424,0.2898510992527008,6.769458770751953,-28.863679885864258,168.13804626464844, -5.2713775634765625
600,1801520851,0.9058104,0.0766783,-0.0684634,0.4110241,2.0772347450256348,0.7613621950149536,6.139410018920898,-26.578899383544922,155.03648376464844, 0.5446823239326477
601,1801537518,0.906936,0.06520294,-0.051280893,0.41302085,1.3143205642700195,1.080739974975586,6.2716898918151855,-23.38416290283203,142.16136169433594, 4.65276575088501
602,1801554185,0.90753365,0.05643659,-0.034985088,0.41469708,1.0651724338531494,1.4553452730178833,5.677096366882324,-8.893224716186523,128.6153564453125, 3.5939221382141113
603,1801570852,0.90791214,0.049445454,-0.020139914,0.41574645,0.13864120841026306,1.30587899684906,5.121269226074219,-2.0317182540893555,114.21378326416016, 0.4420122504234314
604,1801587519,0.90831,0.043915175,-0.00720147,0.4159239,-0.5450199246406555,1.635350227355957,4.638229846954346,1.4985663890838623,97.83980560302734, -4.610121250152588
605,1801604186,0.9087311,0.0402922,0.003220678,0.41542038,-1.13919198513031,1.0824247598648071,3.6824612617492676,6.157389163970947,76.45903015136719, -8.263917922973633
606,1801620853,0.90896535,0.03875371,0.0110856155,0.4149187,-1.949199914932251,0.38355669379234314,3.909560203552246,11.920034408569336,54.51937484741211, -6.963005542755127
607,1801637520,0.9090324,0.03998208,0.01699583,0.41445488,-2.076458215713501,1.0219300985336304,4.317527770996094,23.677148818969727,34.41032028198242, -5.515280723571777
608,1801654187,0.9090322,0.0425505,0.020891603,0.4140212,-2.4038476943969727,1.3645628690719604,4.3546037673950195,26.319812774658203,17.99445152282715, -4.421779632568359
609,1801670854,0.9090013,0.047071144,0.023157518,0.41347903,-2.3540656566619873,1.6096419095993042,3.4758896827697754,33.89491653442383,2.1967146396636963, -4.248716354370117
610,1801687521,0.90894216,0.05260372,0.023959566,0.41289577,-2.3728816509246826,1.6580067873001099,4.501272201538086,36.058616638183594,-9.86351203918457, -3.784820556640625
611,1801704188,0.9088125,0.05933247,0.023479015,0.41229635,-2.2694671154022217,1.7855523824691772,5.271394729614258,39.907814025878906,-21.29520606994629, -3.0152769088745117
612,1801720855,0.90872884,0.066652894,0.021635199,0.41146234,-2.1018831729888916,1.7766849994659424,6.333861351013184,39.74684143066406,-31.618755340576172, -3.9510254859924316
613,1801737522,0.9088191,0.07256225,0.01864551,0.41040826,-2.2410197257995605,2.44345760345459,8.532057762145996,27.63266944885254,-34.93648147583008, -5.493220806121826
614,1801754189,0.9090618,0.07748997,0.014771231,0.40912592,-2.2577154636383057,2.936863660812378,9.306376457214355,18.94346046447754,-37.85481262207031, -7.024365425109863
615,1801770856,0.90945286,0.08034162,0.009602992,0.4078587,-2.079714298248291,2.8616671562194824,8.862454414367676,2.2303731441497803,-40.13887023925781, -6.860363006591797
616,1801787523,0.90985936,0.08136682,0.002990715,0.4068497,-1.8604423999786377,2.3952603340148926,7.885951995849609,-13.281527519226074,-43.93302536010742, -4.604877948760986
617,1801804190,0.91015905,0.08026994,-0.0059873005,0.40636373,-1.6806505918502808,2.143048048019409,5.705153465270996,-33.137413024902344,-52.52848815917969, 0.24947746098041534
618,1801820857,0.9099677,0.07596681,-0.021764934,0.40708026,-1.0738532543182373,4.0126729011535645,-5.306326389312744,-71.8956527709961,-85.50385284423828, 13.03250789642334
619,1801837524,0.9076909,0.07901661,-0.05246733,0.4087802,11.627166748046875,-1.915024757385254,-20.678829193115234,-66.49958801269531,-199.2857666015625, 31.727380752563477
620,1801854191,0.90636605,0.077329785,-0.08765261,0.4060022,5.345308303833008,1.7659008502960205,13.01226806640625,-110.80363464355469,-215.8350067138672, 5.2303853034973145
621,1801870858,0.90452516,0.074645616,-0.11803898,0.40290105,3.709850788116455,-0.4930039048194885,8.77602767944336,-103.53832244873047,-183.5692596435547, 2.709024667739868
622,1801887525,0.90278107,0.0702251,-0.15017016,0.3968674,5.1326003074646,1.7952063083648682,-3.299934148788452,-121.5827407836914,-191.02064514160156, -13.495269775390625
623,1801904192,0.89944154,0.067233704,-0.17934316,0.39283645,-0.4323098659515381,-0.4624546766281128,1.5063340663909912,-101.81422424316406,-177.14060974121094, 0.4009297490119934
624,1801920859,0.8958472,0.0678888,-0.20351046,0.38914353,2.891864776611328,1.6058292388916016,5.4030632972717285,-65.18730163574219,-156.196533203125, -3.6274452209472656
625,1801937526,0.8919512,0.07670208,-0.22317688,0.38565788,5.525794982910156,2.4116268157958984,9.795108795166016,-2.4754366874694824,-150.61447143554688, -15.0398530960083
626,1801954193,0.8878217,0.07852992,-0.2431927,0.38270533,6.298288822174072,1.5943323373794556,10.241511344909668,-45.3315544128418,-134.29806518554688, -0.2181716412305832
627,1801970860,0.8838315,0.07775852,-0.26173013,0.37985918,7.36794900894165,-3.3506345748901367,5.024953842163086,-57.22400665283203,-118.13078308105469, 3.635822057723999
628,1801987527,0.8795985,0.08194957,-0.27514753,0.3793218,8.366952896118164,-2.901365041732788,4.989618301391602,-9.360936164855957,-99.11589813232422, 6.618687629699707
629,1802004194,0.87600607,0.08775109,-0.28368407,0.38004816,8.857797622680664,-1.7021257877349854,7.968286991119385,15.177279472351074,-71.79932403564453, 6.781456470489502
630,1802020861,0.8724781,0.09297339,-0.29031658,0.3819088,9.950387001037598,-3.1689019203186035,8.423051834106445,18.857257843017578,-57.95817184448242, 13.422385215759277
631,1802037528,0.86867374,0.10004893,-0.29482096,0.385327,10.217238426208496,-4.146027565002441,9.113611221313477,38.886104583740234,-49.557743072509766, 18.412179946899414
632,1802054195,0.86444014,0.11076184,-0.29697093,0.39023525,10.230958938598633,-3.6306700706481934,9.354589462280273,70.21463775634766,-44.92805099487305, 19.424257278442383
633,1802070862,0.8598313,0.12240555,-0.2968148,0.39699897,10.03662109375,-2.9138851165771484,10.441977500915527,86.05306243896484,-33.02898406982422, 27.771305084228516
634,1802087529,0.85483015,0.1355732,-0.2942983,0.4053075,8.738078117370605,-2.4723963737487793,11.85019302368164,105.02447509765625,-22.708768844604492, 32.84978103637695
635,1802104196,0.849438,0.15039623,-0.29042473,0.41411287,9.536641120910645,0.39981809258461,13.000170707702637,119.93821716308594,-19.6831111907959, 32.216556549072266
636,1802120863,0.845414,0.16634396,-0.2825489,0.4216289,7.640084266662598,3.0494329929351807,12.93895149230957,133.91146850585938,1.8759878873825073, 14.404013633728027
637,1802137530,0.84104425,0.17895134,-0.28027958,0.4266901,5.556417942047119,3.5906097888946533,10.96505355834961,89.28441619873047,-24.838726043701172, 8.480720520019531
638,1802154197,0.83538234,0.18737286,-0.28572378,0.4305694,6.452860355377197,3.5068230628967285,10.154417991638184,42.07041931152344,-61.2020149230957, 23.583606719970703
639,1802170864,0.82920706,0.19302242,-0.29572123,0.43325168,7.679113864898682,3.2383151054382324,9.075005531311035,11.044167518615723,-81.71330261230469, 29.888734817504883
640,1802187531,0.82274824,0.19859827,-0.30736417,0.4349385,8.93450927734375,3.3344802856445312,10.725120544433594,4.715973377227783,-92.6942367553711, 28.373815536499023
641,1802204198,0.81714267,0.20252104,-0.31888437,0.43540344,8.461884498596191,2.8633038997650146,14.742908477783203,-7.6491570472717285,-86.8736572265625, 22.851415634155273
642,1802220865,0.810712,0.20951037,-0.32860073,0.4368906,7.615777969360352,2.2555618286132812,15.237076759338379,21.385828018188477,-86.18184661865234, 24.949708938598633
643,1802237532,0.8033429,0.21782799,-0.3383538,0.43898517,7.978161334991455,3.5083909034729004,13.779041290283203,31.400739669799805,-91.70743560791016, 28.225584030151367
644,1802254199,0.795572,0.22581506,-0.3488666,0.4408684,7.298084259033203,3.186830997467041,13.478938102722168,27.375221252441406,-96.22456359863281, 30.2128849029541
645,1802270866,0.78756696,0.23416224,-0.35887694,0.4428473,7.6451416015625,3.4160001277923584,13.69069766998291,31.44944953918457,-95.05449676513672, 29.83456802368164
646,1802287533,0.77979344,0.24266666,-0.36758497,0.44487783,7.586677074432373,3.3683130741119385,13.578129768371582,36.007904052734375,-87.90373992919922, 26.959882736206055
647,1802304200,0.7722896,0.25133017,-0.37491202,0.44703853,8.186297416687012,3.721951961517334,13.738329887390137,40.95389175415039,-80.1664810180664, 24.162752151489258
648,1802320867,0.76566726,0.25902113,-0.38145173,0.44850442,8.00034236907959,4.122511863708496,13.953411102294922,34.883243560791016,-72.00142669677734, 18.948923110961914
649,1802337534,0.7601397,0.26460257,-0.38788614,0.4491299,7.724931716918945,3.852433204650879,13.80961799621582,19.935546875,-63.65237808227539, 16.53745460510254
650,1802354201,0.7558121,0.26804283,-0.39417437,0.4489187,7.529280662536621,3.691814661026001,12.12601089477539,4.773063659667969,-54.687252044677734, 13.93873405456543
651,1802370868,0.75204265,0.2709931,-0.3994414,0.4488221,7.438570499420166,3.0086185932159424,10.84653377532959,4.651655673980713,-46.21286392211914, 12.289091110229492
652,1802387535,0.7482929,0.27497914,-0.403149,0.44934976,7.7524895668029785,3.140411376953125,9.790023803710938,16.492509841918945,-40.18254852294922, 9.728559494018555
653,1802404202,0.744684,0.27902022,-0.40605572,0.4502359,7.878639221191406,3.2400121688842773,9.561058044433594,19.972143173217773,-35.199581146240234, 9.496293067932129
654,1802420869,0.7413354,0.28244278,-0.4086394,0.4512891,8.015191078186035,3.4633233547210693,9.612659454345703,17.765058517456055,-30.61559295654297, 10.677837371826172
655,1802437536,0.73837966,0.28489593,-0.41141903,0.45206693,8.264506340026855,3.7259926795959473,8.853862762451172,10.671370506286621,-28.07048988342285, 11.186469078063965
656,1802454203,0.7360207,0.2858911,-0.41465598,0.45232797,8.97072696685791,3.4332528114318848,8.407946586608887,-0.7938163876533508,-25.207609176635742, 11.754626274108887
657,1802470870,0.7338542,0.2869201,-0.41751146,0.4525697,9.002461433410645,3.281362295150757,8.34404182434082,0.12180785089731216,-22.884496688842773, 10.232467651367188
658,1802487537,0.7316326,0.28864297,-0.41965565,0.45308772,8.715556144714355,2.557394504547119,8.248733520507812,6.730153560638428,-21.079933166503906, 8.421235084533691
659,1802504204,0.7297717,0.29048038,-0.42128187,0.45340526,8.837042808532715,3.3629956245422363,7.782296180725098,7.624200344085693,-18.20152473449707, 4.941215515136719
660,1802520871,0.72923213,0.290161,-0.42313215,0.45275444,9.742730140686035,3.6930205821990967,7.713598728179932,-9.347029685974121,-10.71784782409668, 2.675690174102783
661,1802537538,0.7300102,0.28819573,-0.42468882,0.45129558,9.598244667053223,2.9536776542663574,7.2036027908325195,-21.67484474182129,-1.9042558670043945, -1.2597241401672363
662,1802554205,0.7321821,0.28471452,-0.42544743,0.44926792,9.41508960723877,3.0715389251708984,6.765408992767334,-31.23534393310547,9.748786926269531, -5.5929765701293945
663,1802570872,0.7361435,0.2794,-0.42525688,0.4463015,9.429624557495117,3.0029120445251465,7.3430938720703125,-43.78946304321289,23.589649200439453, -12.343527793884277
664,1802587539,0.7414896,0.2739329,-0.42293847,0.44303182,8.794910430908203,1.9396674633026123,7.883255958557129,-41.58562088012695,38.289154052734375, -21.77455711364746
665,1802604206,0.74755615,0.26994628,-0.41761497,0.44032577,8.99254322052002,1.6879667043685913,7.357631683349609,-24.601808547973633,52.24342346191406, -31.07849884033203
666,1802620873,0.7547901,0.2669288,-0.40934584,0.437581,9.219893455505371,2.002589225769043,6.828795909881592,-12.977682113647461,67.73148345947266, -43.08097839355469
667,1802637540,0.7631352,0.26397535,-0.39844835,0.4349494,9.521219253540039,0.9070448279380798,6.882404804229736,-6.458209037780762,84.52883911132812, -50.85615158081055
668,1802654207,0.7720326,0.2614865,-0.38486028,0.43298203,9.254131317138672,0.3130389451980591,6.776095867156982,4.85194206237793,99.9967269897461, -55.20859909057617
669,1802670874,0.7815763,0.2586338,-0.3690625,0.4313236,9.065301895141602,0.23872388899326324,6.807861328125,9.168868064880371,115.1012191772461, -58.53867721557617
670,1802687541,0.79186416,0.2535021,-0.35220355,0.42969844,8.907694816589355,0.15768733620643616,6.902763843536377,-1.1565334796905518,129.53871154785156, -56.70962142944336
671,1802704208,0.8035322,0.24557905,-0.33506554,0.426331,8.541069030761719,0.29329144954681396,6.591960430145264,-12.451884269714355,140.6446533203125, -56.53565979003906
672,1802720875,0.81546783,0.23597232,-0.31692782,0.42294967,7.858948230743408,-0.8305960893630981,6.221893787384033,-20.065093994140625,151.7980499267578, -55.20136260986328
673,1802737542,0.82736677,0.22497985,-0.29790145,0.4196464,7.9445085525512695,-0.019999658688902855,6.221606731414795,-25.24324607849121,160.99896240234375, -52.617698669433594
674,1802754209,0.8390327,0.21210691,-0.2789598,0.4161927,7.592666149139404,-0.06769408285617828,6.627079486846924,-36.93441390991211,165.26736450195312, -48.873653411865234
675,1802770876,0.8493413,0.1994702,-0.2593447,0.41421196,6.231790065765381,-0.535437285900116,6.408430099487305,-36.62179946899414,166.90394592285156, -45.944149017333984
676,1802787543,0.85894114,0.18664949,-0.23941958,0.4123839,5.473248481750488,0.1113525778055191,6.316800594329834,-35.54750061035156,168.21702575683594, -43.172786712646484
677,1802804210,0.8678005,0.17348632,-0.21921383,0.4108167,5.0422492027282715,-0.19685545563697815,6.355860233306885,-35.38059616088867,169.99192810058594, -39.3599853515625
678,1802820877,0.87577057,0.16022387,-0.19872029,0.4097128,4.610245704650879,-0.06118582934141159,6.529296398162842,-33.38370132446289,171.23251342773438, -34.307308197021484
679,1802837544,0.8829344,0.14662467,-0.17811921,0.40890348,4.671933174133301,0.9908028841018677,7.532323360443115,-33.80255889892578,172.0803985595703, -29.94632911682129
680,1802854211,0.889139,0.13296363,-0.15780346,0.40847367,4.479440689086914,0.6305626630783081,7.294595718383789,-33.54586410522461,169.75711059570312, -24.599422454833984
681,1802870878,0.8941616,0.12054211,-0.13807769,0.40850863,3.9343855381011963,0.8956173062324524,7.501422882080078,-26.034040451049805,161.84144592285156, -19.26175308227539
682,1802887545,0.8981433,0.109107204,-0.119672626,0.4087943,3.268040657043457,1.2745827436447144,7.324482440948486,-22.57442855834961,150.19647216796875, -14.651665687561035
683,1802904212,0.9012092,0.09896519,-0.10234745,0.4093325,2.3409008979797363,1.0477204322814941,7.077890396118164,-16.734638214111328,139.35313415527344, -10.780574798583984
684,1802920879,0.90353376,0.09055135,-0.08609827,0.40989605,1.9705861806869507,1.5321078300476074,6.937195777893066,-8.534168243408203,127.33301544189453, -9.030224800109863
685,1802937546,0.9054156,0.083039075,-0.071199514,0.4101925,0.7678157687187195,1.2346696853637695,6.581114292144775,-6.629741668701172,115.98979949951172, -9.138984680175781
686,1802954213,0.9070209,0.07613388,-0.058209907,0.41003466,0.4629517197608948,1.5036475658416748,6.17851448059082,-8.304139137268066,102.00047302246094, -10.399847984313965
687,1802970880,0.9083375,0.07047254,-0.046830144,0.4095899,-0.14866513013839722,0.6509390473365784,5.608719348907471,-5.057356357574463,88.19059753417969, -11.03359317779541
688,1802987547,0.9093131,0.06620286,-0.036591794,0.40917972,-0.6956019401550293,0.46711817383766174,6.0385589599609375,0.5988183617591858,77.04769134521484, -9.755226135253906
689,1803004214,0.9099357,0.064886324,-0.027036471,0.40874928,-0.7211453318595886,0.6056978106498718,5.251430988311768,17.301727294921875,64.36200714111328, -9.32263469696045
690,1803020881,0.910309,0.06480171,-0.018401982,0.40841118,-1.125961422920227,0.3563499450683594,4.956390857696533,22.552480697631836,55.12788009643555, -7.86199426651001
691,1803037548,0.9104059,0.06666612,-0.010588196,0.40817273,-1.435241937637329,0.8337826132774353,4.6383442878723145,32.588993072509766,44.517547607421875, -6.340376853942871
692,1803054215,0.9103612,0.069439165,-0.00442125,0.40792334,-1.505091667175293,1.164846420288086,3.4730846881866455,33.718318939208984,31.63184356689453, -5.318952560424805
693,1803070882,0.91015315,0.072770745,-0.00033130587,0.40783063,-1.9042106866836548,1.4068742990493774,3.8158133029937744,31.4653263092041,17.123287200927734, -2.8997678756713867
694,1803087549,0.90986276,0.07676146,0.0014613402,0.40774482,-1.9528146982192993,2.246823787689209,3.7796921730041504,29.181306838989258,0.8856064677238464, -1.4715946912765503
695,1803104216,0.90963805,0.07996913,0.0007954374,0.4076312,-2.275322914123535,2.284539222717285,4.823793888092041,17.336668014526367,-12.33170223236084, -0.5333853363990784
696,1803120883,0.90956247,0.08278726,-0.0015595851,0.4072348,-2.2370691299438477,2.597548007965088,6.349941730499268,10.069391250610352,-21.98286247253418, -1.784747838973999
697,1803137550,0.90972126,0.082614474,-0.0065547614,0.40686527,-2.2649574279785156,2.9694621562957764,6.134279251098633,-16.17644691467285,-30.12553596496582, -0.7316297292709351
698,1803154217,0.9100708,0.07714676,-0.018024543,0.40681085,-1.508720874786377,4.565104007720947,-0.7567514181137085,-67.52433013916016,-55.64909362792969, 4.6240434646606445
