PacketCounter,SampleTimeFine,Quat_W,Quat_X,Quat_Y,Quat_Z,Acc_X,Acc_Y,Acc_Z,Gyr_X,Gyr_Y,Gyr_Z 
1,2404278619,0.94185865,0.04829346,-0.21762785,0.25141278,0.08003859966993332,-0.02002653479576111,-0.27629947662353516,-0.6555611491203308,-0.1469130963087082, -0.8359514474868774
2,2404295286,0.9472397,0.041250765,-0.18764114,0.2565665,2.424612045288086,-0.5373439192771912,7.7143330574035645,33.579769134521484,132.9144287109375, 5.857264041900635
3,2404311953,0.9516802,0.033676103,-0.15998535,0.25995323,2.2003705501556396,-0.7300002574920654,7.992730140686035,28.64449119567871,125.4220962524414, 4.944366455078125
4,2404328620,0.9548334,0.026712077,-0.1359626,0.26285717,1.9302310943603516,-0.7321376800537109,7.213831901550293,28.631061553955078,118.94803619384766, 5.34070348739624
5,2404345287,0.9569381,0.021316359,-0.115639314,0.26541013,1.2427173852920532,-0.654495120048523,7.291602611541748,29.81277847290039,113.2142333984375, 6.644006252288818
6,2404361954,0.95847815,0.01617468,-0.09740046,0.26752815,0.5741969347000122,-0.10173347592353821,7.307930946350098,22.75547218322754,103.36878204345703, 7.161357879638672
7,2404378621,0.95964545,0.0119684255,-0.08050749,0.26917684,-0.0045990049839019775,-0.13903531432151794,6.894920825958252,15.786022186279297,91.87564849853516, 6.992027282714844
8,2404395288,0.9604575,0.008350439,-0.065507755,0.27048236,-0.32192355394363403,-0.36975768208503723,5.804833889007568,11.304800987243652,77.27772521972656, 6.304466724395752
9,2404411955,0.9609879,0.0056802523,-0.05268617,0.27146676,-0.7587301135063171,-0.36519408226013184,5.018415451049805,12.831425666809082,62.55020523071289, 4.735569000244141
10,2404428622,0.9612929,0.00481529,-0.042155873,0.2722421,-0.9089646339416504,-0.6163893938064575,3.5634732246398926,20.003015518188477,44.736331939697266, 3.4913668632507324
11,2404445289,0.9614233,0.0055811303,-0.0339375,0.27291486,-1.3941915035247803,0.0330219604074955,3.8983068466186523,27.483854293823242,28.1722354888916, 2.922201156616211
12,2404461956,0.961456,0.007702939,-0.027687747,0.27345258,-1.6972737312316895,0.19243711233139038,4.0883259773254395,30.44496726989746,12.461311340332031, 2.3669750690460205
13,2404478623,0.96148,0.0122070955,-0.022921668,0.2736452,-1.475200891494751,-0.3550446927547455,3.8802237510681152,41.37602233886719,-2.2532012462615967, 0.11280541867017746
14,2404495290,0.9613968,0.018071894,-0.0200863,0.27383605,-1.5121182203292847,-0.957263708114624,4.506834506988525,47.24879455566406,-16.49805450439453, 0.5214151740074158
15,2404511957,0.9612033,0.02297129,-0.019774448,0.27417055,-1.5997722148895264,-1.3058184385299683,5.715297698974609,38.14729309082031,-30.330955505371094, 2.2706170082092285
16,2404528624,0.9607771,0.02846413,-0.021305025,0.27503353,-1.7433807849884033,-1.663865089416504,5.071357727050781,40.931236267089844,-42.848899841308594, 6.468369483947754
17,2404545291,0.95953685,0.03613401,-0.029356403,0.27770802,-1.5974831581115723,-5.061850070953369,-10.432479858398438,45.552494049072266,-89.28840637207031, 20.887256622314453
18,2404561958,0.9573528,0.04304308,-0.056278475,0.28009963,16.621030807495117,-0.6926105618476868,-26.0712947845459,10.814681053161621,-210.16323852539062, 24.622161865234375
19,2404578625,0.9532074,0.05896269,-0.089130074,0.28279865,3.582902669906616,1.7839446067810059,14.044694900512695,55.5762825012207,-233.57725524902344, 26.493581771850586
20,2404595292,0.9480075,0.07214075,-0.11769238,0.28675106,6.2739434242248535,0.4205329120159149,3.153714418411255,43.67710876464844,-201.21018981933594, 36.62680435180664
21,2404611959,0.94272107,0.0856444,-0.14504422,0.28793097,1.4119722843170166,-0.22666558623313904,1.6799659729003906,44.32279586791992,-190.8873291015625, 17.332693099975586
22,2404628626,0.937665,0.09737572,-0.16651912,0.2890915,1.1920143365859985,-0.9050249457359314,3.348639726638794,43.57053756713867,-150.9337615966797, 14.902438163757324
23,2404645293,0.93304867,0.10474413,-0.18492678,0.2902603,3.7800374031066895,-2.5462112426757812,9.522961616516113,21.453828811645508,-124.46430969238281, 16.759557723999023
24,2404661960,0.9281952,0.110473156,-0.2012672,0.29281628,8.105710983276367,-0.048688583076000214,8.810664176940918,19.0427303314209,-109.45249938964844, 25.679656982421875
25,2404678627,0.92336756,0.11160728,-0.22007012,0.2941181,9.104227066040039,3.0576372146606445,9.389142990112305,-17.473299026489258,-115.30026245117188, 25.64903450012207
26,2404695294,0.91768914,0.11449248,-0.24056403,0.2947322,9.037751197814941,4.763480186462402,7.831573009490967,-12.783451080322266,-130.05340576171875, 22.7329044342041
27,2404711961,0.9116044,0.11575998,-0.26289165,0.29404926,9.07457160949707,5.303877830505371,7.451363563537598,-31.802593231201172,-138.8621063232422, 21.294179916381836
28,2404728628,0.90573066,0.115475364,-0.28482577,0.2918762,9.792746543884277,3.010349750518799,9.244993209838867,-46.50204086303711,-133.35089111328125, 16.046661376953125
29,2404745295,0.9005612,0.113494314,-0.30515125,0.28808242,10.905722618103027,2.3637354373931885,11.321441650390625,-58.634368896484375,-119.91720581054688, 7.707505702972412
30,2404761962,0.89641976,0.10880601,-0.32318217,0.283101,11.371603012084961,1.3482836484909058,11.379459381103516,-74.7005844116211,-99.80039978027344, 3.085007667541504
31,2404778629,0.893578,0.0992358,-0.33976132,0.27610332,10.876452445983887,0.7128562927246094,11.838077545166016,-107.50567626953125,-80.7540283203125, -1.5175979137420654
32,2404795296,0.8910602,0.08622326,-0.3556011,0.26856175,8.834314346313477,-1.860534429550171,10.718364715576172,-128.66111755371094,-70.62440490722656, 2.541785955429077
33,2404811963,0.88846976,0.07230042,-0.37053743,0.26095253,7.9979963302612305,-3.7236883640289307,10.574726104736328,-131.8095703125,-65.3523941040039, 3.614912748336792
34,2404828630,0.8853795,0.06094334,-0.38447446,0.25410327,8.705937385559082,-3.9848709106445312,10.723750114440918,-110.95730590820312,-66.5854263305664, 1.2282077074050903
35,2404845297,0.8822327,0.05047348,-0.3972587,0.24759562,8.146432876586914,-3.9980692863464355,13.098041534423828,-101.6765365600586,-62.64399719238281, -0.25742053985595703
36,2404861964,0.87924165,0.040148497,-0.40836316,0.24199548,8.495349884033203,-3.3897738456726074,13.255515098571777,-94.93602752685547,-54.22627639770508, 3.234668016433716
37,2404878631,0.8761135,0.027681462,-0.41984153,0.23535554,7.317345142364502,-2.3614983558654785,11.760366439819336,-111.20584106445312,-55.60605239868164, 2.8039045333862305
38,2404895298,0.87269557,0.013198791,-0.43198195,0.22720002,7.863518714904785,-3.432931423187256,10.52209758758545,-128.8585662841797,-59.174076080322266, -0.08730706572532654
39,2404911965,0.8682835,0.000711682,-0.44524598,0.21872252,8.43553352355957,-3.2207911014556885,8.133963584899902,-119.43521881103516,-73.13919830322266, -6.686479568481445
40,2404928632,0.8624377,-0.0073870122,-0.45976788,0.21156581,10.374584197998047,-5.258637428283691,7.196887493133545,-91.02069091796875,-91.99020385742188, -10.301435470581055
41,2404945299,0.8568474,-0.007932805,-0.47200435,0.20727211,8.034214973449707,-1.7983777523040771,12.462766647338867,-33.45895767211914,-88.59614562988281, -18.012479782104492
42,2404961966,0.85196507,-0.012678988,-0.48326668,0.20111717,7.462958812713623,-2.0757551193237305,14.782852172851562,-63.42312240600586,-76.07919311523438, -16.125446319580078
43,2404978633,0.8483908,-0.016717028,-0.49145415,0.19602668,6.934393405914307,-3.7037761211395264,14.641965866088867,-52.016502380371094,-56.9241828918457, -13.745401382446289
44,2404995300,0.8461696,-0.019335518,-0.4966454,0.19226772,6.633137226104736,-3.536269426345825,13.529415130615234,-35.397029876708984,-38.95160675048828, -12.60519027709961
45,2405011967,0.8451002,-0.02013432,-0.49930117,0.18999696,7.154754161834717,-4.403684139251709,11.815275192260742,-16.518661499023438,-24.509992599487305, -11.624300003051758
46,2405028634,0.8449706,-0.0165167,-0.49941173,0.1906303,6.822582244873047,-4.237636089324951,9.515844345092773,22.51186752319336,-13.75098705291748, -11.120348930358887
47,2405045301,0.8449082,-0.012971226,-0.49940327,0.19120339,7.143751621246338,-2.8462071418762207,7.874343395233154,22.107236862182617,-13.301033973693848, -11.538196563720703
48,2405061968,0.84520155,-0.010238538,-0.49881706,0.19160248,7.598806858062744,-3.2592215538024902,9.230539321899414,17.564802169799805,-7.796851634979248, -10.124191284179688
49,2405078635,0.8462661,-0.0054178424,-0.4963704,0.19344518,7.495752334594727,-3.113342761993408,10.378522872924805,37.14432144165039,2.461322784423828, -9.768978118896484
50,2405095302,0.84734917,-0.0002397594,-0.49398807,0.19487253,7.629825115203857,-1.797221064567566,8.902016639709473,37.662845611572266,1.168349027633667, -13.377485275268555
51,2405111969,0.84877956,0.0021335536,-0.49191412,0.19387992,8.039234161376953,-2.231916666030884,9.541938781738281,12.60013198852539,4.127513408660889, -18.174304962158203
52,2405128636,0.850372,0.0022919546,-0.489943,0.19188093,7.578459739685059,-2.366555690765381,10.046533584594727,-3.9158661365509033,6.808011054992676, -16.67650032043457
53,2405145303,0.85223746,0.0015032191,-0.48747185,0.18989593,7.671472549438477,-3.1505203247070312,9.978891372680664,-8.778382301330566,11.605228424072266, -13.75165843963623
54,2405161970,0.85422343,0.000969705,-0.48467785,0.18811956,7.987435817718506,-3.384291172027588,8.191426277160645,-6.117755889892578,13.33508586883545, -13.653022766113281
55,2405178637,0.8561389,0.0009647696,-0.48173842,0.18695903,8.72620964050293,-3.8754923343658447,7.668986797332764,-0.6404334306716919,13.36194896697998, -11.81515121459961
56,2405195304,0.85841477,0.0015696349,-0.4776192,0.18708695,8.590797424316406,-3.3616511821746826,9.187223434448242,8.914203643798828,20.954654693603516, -6.844789505004883
57,2405211971,0.8609794,0.0016432295,-0.47296733,0.18711978,9.299545288085938,-3.6892967224121094,8.551240921020508,6.228211879730225,25.73318099975586, -6.076565265655518
58,2405228638,0.86427844,0.004614911,-0.4662828,0.18863215,9.619428634643555,-4.329430103302002,6.725214958190918,30.943513870239258,36.60328674316406, -7.733907699584961
59,2405245305,0.86808884,0.010858101,-0.4576901,0.1918953,9.750150680541992,-4.227898120880127,6.240805625915527,58.704978942871094,45.80828857421875, -8.574647903442383
60,2405261972,0.8720044,0.017986434,-0.44794658,0.19654271,9.536703109741211,-3.645385980606079,6.660547733306885,70.12289428710938,52.405216217041016, -3.2847511768341064
61,2405278639,0.87583345,0.02333921,-0.43786594,0.20160496,9.187479019165039,-3.1751904487609863,7.314117431640625,61.32989501953125,58.14613342285156, 5.1834306716918945
62,2405295306,0.87951875,0.027300598,-0.42742062,0.20739633,9.237615585327148,-3.561671495437622,7.1866455078125,55.60746765136719,64.43414306640625, 14.669475555419922
63,2405311973,0.88342696,0.029799186,-0.4160034,0.21356511,8.802650451660156,-2.549119234085083,7.782230854034424,49.12880325317383,75.16203308105469, 21.3331298828125
64,2405328640,0.88782156,0.031155702,-0.402997,0.21999066,8.607752799987793,-2.018646240234375,8.342950820922852,45.042518615722656,89.14325714111328, 25.518430709838867
65,2405345307,0.892561,0.030266494,-0.3889632,0.22611158,8.579010009765625,-1.4386370182037354,7.629190444946289,31.886049270629883,100.34521484375, 29.36631965637207
66,2405361974,0.89777625,0.028883876,-0.37297833,0.23248813,8.35578727722168,-1.3001744747161865,7.4456868171691895,32.4229621887207,114.77214050292969, 31.234420776367188
67,2405378641,0.9032438,0.025512662,-0.35605344,0.23817195,8.60421371459961,-1.0918318033218384,6.983909606933594,19.794893264770508,124.45335388183594, 31.530742645263672
68,2405395308,0.9086812,0.021232676,-0.33817473,0.2438967,8.466971397399902,-0.8622884154319763,6.265305519104004,15.804333686828613,131.91183471679688, 33.928428649902344
69,2405411975,0.91388124,0.016279062,-0.3196396,0.24977331,7.527828693389893,-0.8044568300247192,6.409739971160889,13.075977325439453,136.68165588378906, 36.767608642578125
70,2405428642,0.9189144,0.011298456,-0.30014676,0.25569656,6.3017258644104,-0.13366863131523132,7.066669464111328,14.665781021118164,142.416259765625, 37.308860778808594
71,2405445309,0.9238328,0.005976499,-0.2797877,0.26118276,5.460639953613281,0.5577740669250488,7.281046390533447,13.12863540649414,148.22525024414062, 35.39500427246094
72,2405461976,0.92846817,-0.0006396891,-0.25916106,0.2660491,4.670812129974365,-0.09568724781274796,6.510139465332031,4.195494174957275,151.67898559570312, 34.45420837402344
73,2405478643,0.9329471,-0.005903873,-0.23684618,0.27107015,4.261270523071289,0.010897062718868256,7.165285110473633,16.187318801879883,159.70663452148438, 33.3257942199707
74,2405495310,0.9372325,-0.01096472,-0.21374977,0.27529308,4.029928684234619,0.5856121182441711,7.352952003479004,17.63692283630371,164.05674743652344, 28.267179489135742
75,2405511977,0.9412399,-0.015701633,-0.19012469,0.27869993,3.7494022846221924,0.11846717447042465,6.9629645347595215,19.49606704711914,166.50425720214844, 23.09678077697754
76,2405528644,0.94477594,-0.020227555,-0.16672094,0.28141326,3.6931679248809814,-0.044878602027893066,6.58126163482666,19.48009490966797,164.127685546875, 19.21609115600586
77,2405545311,0.9478311,-0.024556585,-0.1443403,0.28315935,3.4941654205322266,0.216110959649086,6.039429664611816,17.603004455566406,156.6885528564453, 13.49084186553955
78,2405561978,0.9504519,-0.02831447,-0.122946724,0.284119,2.6967387199401855,0.05100240930914879,6.784709453582764,18.548480987548828,148.85191345214844, 8.477907180786133
79,2405578645,0.9525916,-0.031507276,-0.1031036,0.28451055,1.6624608039855957,-0.20819737017154694,6.517869472503662,18.638463973999023,137.31752014160156, 4.927326679229736
80,2405595312,0.95433325,-0.03346978,-0.0844041,0.28461143,1.0763628482818604,-0.4101743996143341,5.887561321258545,24.168628692626953,127.19544219970703, 2.677037477493286
81,2405611979,0.95568246,-0.035142317,-0.0670239,0.2845068,0.8641045689582825,-0.5824707746505737,6.384937763214111,23.284013748168945,117.78386688232422, 1.6241260766983032
82,2405628646,0.95662117,-0.03648984,-0.05116696,0.28447598,0.3841286599636078,-0.6268289089202881,6.120959758758545,22.37859344482422,106.92639923095703, 2.3895790576934814
83,2405645313,0.957294,-0.037257783,-0.0366316,0.28435612,0.049216948449611664,-0.14125719666481018,6.3268938064575195,23.51186752319336,97.02283477783203, 1.7854408025741577
84,2405661980,0.957652,-0.03829227,-0.024066865,0.28435475,-0.7339950203895569,-0.3771612346172333,5.7709150314331055,17.853160858154297,84.45645904541016, 2.7451131343841553
85,2405678647,0.9578617,-0.038903996,-0.013596668,0.28425798,-0.9290888905525208,-0.6224269270896912,5.434661865234375,16.48893928527832,69.82854461669922, 1.7815170288085938
86,2405695314,0.9579738,-0.038775977,-0.005612341,0.28416744,-1.1065434217453003,-0.93942791223526,4.474216461181641,16.480966567993164,51.99082565307617, 1.2813336849212646
87,2405711981,0.9581101,-0.037388418,-0.00008589825,0.28394955,-1.626732587814331,-0.9235043525695801,4.113894939422607,19.983552932739258,33.367679595947266, -0.3119771480560303
88,2405728648,0.9582284,-0.03578462,0.002530747,0.2837456,-1.6667965650558472,-0.8667905926704407,3.553699016571045,15.72895622253418,13.76229476928711, -0.9361584186553955
89,2405745315,0.9582763,-0.033659782,0.002584935,0.28384358,-1.8288987874984741,-0.7587075233459473,3.6486899852752686,14.145347595214844,-4.219490051269531, 0.5681861639022827
90,2405761982,0.95826995,-0.030694019,0.00083826476,0.28421095,-2.1801280975341797,-0.625660240650177,4.9917216300964355,16.1574649810791,-17.79755973815918, 2.0472207069396973
91,2405778649,0.958159,-0.026806554,-0.0020542366,0.28497094,-2.109347343444824,-1.4002091884613037,6.563668251037598,19.967618942260742,-27.24309730529785, 4.601000785827637
92,2405795316,0.9579301,-0.02133839,-0.0053416016,0.28615785,-1.9857646226882935,-1.305991291999817,7.8651957511901855,29.59927749633789,-33.03227615356445, 7.545394420623779
93,2405811983,0.95757025,-0.014696307,-0.008587663,0.2876975,-2.0625150203704834,-1.1685316562652588,9.033869743347168,37.411502838134766,-35.13551712036133, 10.092326164245605
94,2405828650,0.9571498,-0.006693758,-0.0110369,0.28930548,-2.165468692779541,-0.7987210154533386,9.288515090942383,47.94627380371094,-32.60105514526367, 10.660476684570312
95,2405845317,0.9566252,0.003786329,-0.013372352,0.29098994,-2.1107311248779297,-1.0313011407852173,6.8927226066589355,64.47886657714844,-36.80350112915039, 11.188847541809082
96,2405861984,0.95549554,0.015854882,-0.020385634,0.2938733,-2.5829241275787354,-5.125049114227295,-5.8444671630859375,65.69931030273438,-70.78474426269531, 20.26193618774414
97,2405878651,0.9539274,0.024433875,-0.044920824,0.295648,12.920721054077148,-1.666343331336975,-25.77440643310547,7.310665607452393,-179.05230712890625, 16.257265090942383
98,2405895318,0.9506297,0.03898865,-0.075809725,0.2983892,8.409026145935059,0.6716449856758118,9.749343872070312,34.18830108642578,-233.0782470703125, 25.338693618774414
99,2405911985,0.9459058,0.05331176,-0.10139163,0.30354574,4.862423419952393,-2.0025668144226074,6.846357345581055,45.188358306884766,-197.9239501953125, 42.74399185180664
100,2405928652,0.9408244,0.07059309,-0.12551287,0.306778,2.6869029998779297,0.24688832461833954,2.262342929840088,66.28382110595703,-195.53097534179688, 28.362394332885742
101,2405945319,0.9360656,0.08616764,-0.14579892,0.3083813,1.4246867895126343,0.3466794490814209,1.9191747903823853,61.755184173583984,-167.62168884277344, 16.75374984741211
102,2405961986,0.93210757,0.09695742,-0.16245437,0.30884206,2.563724994659424,-1.1894347667694092,7.943934440612793,37.02308654785156,-133.98753356933594, 10.346719741821289
103,2405978653,0.92772365,0.10539741,-0.17778192,0.31082767,6.853057861328125,-0.5558694005012512,9.103001594543457,26.78126335144043,-119.96772766113281, 22.7553653717041
104,2405995320,0.92376953,0.10870511,-0.19410357,0.31170037,8.252670288085938,2.5907113552093506,10.101448059082031,-9.746840476989746,-115.60282135009766, 21.728519439697266
105,2406011987,0.91952395,0.11134918,-0.21099858,0.312341,9.661091804504395,2.9067294597625732,8.621687889099121,-15.314409255981445,-118.37078857421875, 22.20216941833496
106,2406028654,0.9152982,0.112427235,-0.22773495,0.31261176,8.505904197692871,4.676451206207275,6.62406587600708,-25.45044708251953,-114.23182678222656, 21.991893768310547
107,2406045321,0.91093874,0.1110668,-0.245479,0.31240162,8.16446590423584,3.410019636154175,7.811851978302002,-43.653106689453125,-115.90238189697266, 23.873275756835938
108,2406061988,0.90681624,0.10867564,-0.26347366,0.310573,9.24492073059082,2.5471317768096924,9.508698463439941,-53.57857894897461,-116.09934997558594, 15.174942016601562
109,2406078655,0.9035497,0.103794985,-0.28034538,0.30697098,9.918865203857422,1.7236177921295166,10.548561096191406,-70.56443786621094,-103.56332397460938, 5.968172550201416
110,2406095322,0.9011375,0.09604976,-0.2961485,0.30169824,10.883589744567871,0.8174340724945068,11.599711418151855,-89.93389892578125,-90.43529510498047, -1.446841835975647
111,2406111989,0.89939064,0.084295064,-0.31173152,0.29464328,9.38415241241455,-0.3193456530570984,11.1114501953125,-118.38734436035156,-80.58734130859375, -5.850094795227051
112,2406128656,0.8974761,0.071752496,-0.32675004,0.2874419,8.804821968078613,-1.4777264595031738,10.647848129272461,-122.32013702392578,-75.96578979492188, -5.052154541015625
113,2406145323,0.8954771,0.059590876,-0.34054732,0.28035244,8.944808959960938,-2.2677206993103027,11.32130241394043,-117.25253295898438,-69.33709716796875, -5.665913105010986
114,2406161990,0.8933997,0.049361996,-0.35290873,0.27359822,8.595358848571777,-2.7125132083892822,12.086461067199707,-101.74931335449219,-64.29029083251953, -8.570051193237305
115,2406178657,0.89118207,0.040999603,-0.36421227,0.26732603,8.018975257873535,-1.765849232673645,12.543858528137207,-87.06982421875,-61.508216857910156, -10.249335289001465
116,2406195324,0.8892502,0.028943075,-0.37506166,0.2602414,7.747137546539307,-1.7841517925262451,13.789957046508789,-110.99010467529297,-51.48468780517578, -6.634205341339111
117,2406211991,0.8873346,0.014427309,-0.38522214,0.2530475,8.012909889221191,-3.088221549987793,11.514225959777832,-125.08477783203125,-42.89628982543945, -1.1282962560653687
118,2406228658,0.88404596,0.0024100589,-0.39793506,0.24516217,8.328106880187988,-3.8233466148376465,8.686922073364258,-115.97532653808594,-66.5411605834961, -9.33569049835205
119,2406245325,0.87930006,-0.0047654593,-0.4125767,0.23788491,10.451326370239258,-4.463401794433594,7.839542388916016,-88.09589385986328,-90.39845275878906, -16.409725189208984
120,2406261992,0.87383467,-0.0030733435,-0.42676222,0.23297559,8.695541381835938,-4.050606727600098,10.344169616699219,-27.029340744018555,-104.24040222167969, -26.064661026000977
121,2406278659,0.8683409,-0.003189436,-0.4410155,0.22689064,7.7136030197143555,-0.9201827049255371,14.202646255493164,-41.45625305175781,-101.82807159423828, -27.79153823852539
122,2406295326,0.8637745,-0.006260576,-0.45300108,0.22055508,7.2409868240356445,-3.692176342010498,14.29817008972168,-56.32387161254883,-80.9242935180664, -21.706132888793945
123,2406311993,0.86028403,-0.008088072,-0.46174517,0.21595748,7.028593063354492,-3.9815564155578613,13.829817771911621,-38.57381820678711,-60.34518051147461, -16.76491928100586
124,2406328660,0.8574483,-0.010482602,-0.4690509,0.21133815,7.247975826263428,-3.219487190246582,12.315652847290039,-39.83190155029297,-48.9723014831543, -16.001426696777344
125,2406345327,0.8549552,-0.014180666,-0.47547525,0.20681912,7.666571617126465,-4.890878677368164,11.19233512878418,-45.896522521972656,-40.82313919067383, -11.647485733032227
126,2406361994,0.8533838,-0.013241541,-0.47896132,0.20532162,7.371009349822998,-4.697348594665527,8.846613883972168,-4.485783100128174,-27.45047950744629, -10.088539123535156
127,2406378661,0.85210466,-0.010591741,-0.48161316,0.2045834,7.749471664428711,-3.67507004737854,9.727044105529785,9.264799118041992,-24.080102920532227, -11.617889404296875
128,2406395328,0.8514144,-0.0064404346,-0.48263657,0.20521767,7.578232765197754,-3.971079111099243,9.066448211669922,24.93841552734375,-14.81464958190918, -9.260621070861816
129,2406411995,0.8511138,-0.0018261158,-0.48284763,0.20605874,7.491025447845459,-3.1405906677246094,10.278852462768555,29.502798080444336,-9.436727523803711, -10.10482406616211
130,2406428662,0.85161185,0.0044793864,-0.48137945,0.20739171,7.43366813659668,-2.507107734680176,9.758277893066406,43.41654968261719,0.616431713104248, -13.94849681854248
131,2406445329,0.8520665,0.007200017,-0.48065656,0.207124,7.442650318145752,-3.470968008041382,8.995362281799316,16.061111450195312,1.1550383567810059, -11.36433219909668
132,2406461996,0.8531557,0.008439174,-0.47908282,0.2062376,7.42853307723999,-2.9505999088287354,9.955589294433594,6.52304220199585,10.308091163635254, -11.04439926147461
133,2406478663,0.8541669,0.008912136,-0.47762042,0.20542239,7.542384147644043,-3.157634973526001,9.090935707092285,2.109046697616577,10.470612525939941, -7.987581253051758
134,2406495330,0.85537994,0.008961189,-0.47596082,0.20422162,8.550721168518066,-3.825650215148926,8.138846397399902,-1.3803207874298096,12.85992431640625, -9.163156509399414
135,2406511997,0.8568852,0.00857796,-0.4734703,0.20371598,8.67636489868164,-3.6191904544830322,8.861841201782227,-0.4855022430419922,19.363208770751953, -4.128081321716309
136,2406528664,0.8581594,0.008310789,-0.4710723,0.20392306,8.673086166381836,-3.2391042709350586,8.590181350708008,2.404529094696045,17.947919845581055, 0.013120120391249657
137,2406545331,0.85977405,0.008400634,-0.4677601,0.20474021,9.606496810913086,-4.102032661437988,7.407881259918213,7.757110595703125,23.98192024230957, 1.9284546375274658
138,2406561998,0.862364,0.011573066,-0.4617015,0.20742753,9.8751802444458,-4.01117467880249,6.939182758331299,35.808441162109375,39.14828109741211, 1.52496337890625
139,2406578665,0.86560553,0.017562542,-0.4534307,0.21170554,9.873144149780273,-3.7218611240386963,6.8019304275512695,60.68558120727539,50.470394134521484, 0.9104426503181458
140,2406595332,0.8692481,0.024568284,-0.44330308,0.21745503,9.706835746765137,-3.1457955837249756,7.286009788513184,73.99335479736328,61.499046325683594, 5.694370269775391
141,2406611999,0.8729426,0.030705983,-0.4323417,0.22385126,9.108959197998047,-2.4436397552490234,7.382855415344238,72.01837921142578,68.07025909423828, 11.988579750061035
142,2406628666,0.87685585,0.03436176,-0.4203739,0.23071402,8.943022727966309,-2.3127706050872803,7.2942352294921875,60.016422271728516,78.69538116455078, 21.62734603881836
143,2406645333,0.8812189,0.036125436,-0.40676302,0.23810108,8.977945327758789,-1.653925895690918,7.796655654907227,52.62513732910156,93.04667663574219, 29.160253524780273
144,2406662000,0.88600713,0.035485413,-0.3918903,0.24526359,8.976861953735352,-0.48124492168426514,7.4324951171875,39.39299774169922,105.77708435058594, 33.527565002441406
145,2406678667,0.891153,0.03254087,-0.37585482,0.25203374,8.882442474365234,-0.5052085518836975,7.080930709838867,26.157516479492188,117.64026641845703, 36.48203659057617
146,2406695334,0.8965848,0.028871426,-0.35835746,0.258616,9.177571296691895,-0.017915986478328705,6.775790691375732,23.689653396606445,128.58419799804688, 36.402061462402344
147,2406712001,0.9020828,0.024305444,-0.34003508,0.26463598,9.350223541259766,-0.44364067912101746,6.329346656799316,18.2175235748291,135.36029052734375, 34.888153076171875
148,2406728668,0.9075089,0.019006552,-0.32083678,0.2704256,8.695777893066406,-0.45571011304855347,6.179581165313721,14.732988357543945,141.97628784179688, 35.17642593383789
149,2406745335,0.91263264,0.013003896,-0.301164,0.27610332,7.524352550506592,-0.4722953736782074,5.618031024932861,11.008620262145996,145.61607360839844, 36.54491424560547
150,2406762002,0.9176169,0.0070504462,-0.2803183,0.28169364,6.317274570465088,0.36715707182884216,6.417909622192383,13.371963500976562,152.63319396972656, 36.06801223754883
151,2406778669,0.9222703,-0.0010179338,-0.25961035,0.28638983,5.128396034240723,0.24925678968429565,6.48956823348999,-1.966142177581787,155.2039337158203, 35.16529846191406
152,2406795336,0.9265502,-0.0084022,-0.23829094,0.29094943,4.341019153594971,-0.2253195345401764,6.86761999130249,3.3124654293060303,157.07998657226562, 33.82883071899414
153,2406812003,0.930529,-0.015071248,-0.21607645,0.29529634,3.8291521072387695,0.10330222547054291,7.672778606414795,9.283340454101562,160.8730926513672, 31.962940216064453
154,2406828670,0.9342101,-0.022537922,-0.19355157,0.29880005,3.382535696029663,0.12291831523180008,7.3799543380737305,3.505600929260254,164.1195526123047, 28.390581130981445
155,2406845337,0.9376184,-0.029774139,-0.17078891,0.3013581,3.187994956970215,0.013411943800747395,6.125619888305664,4.155688762664795,164.95425415039062, 22.610828399658203
156,2406862004,0.94065356,-0.03578333,-0.14814287,0.3032231,3.141441583633423,-0.45650434494018555,5.78364372253418,10.921934127807617,161.37359619140625, 17.451156616210938
157,2406878671,0.9432261,-0.04075364,-0.12636076,0.3044616,3.0625994205474854,-0.3784080743789673,6.041651725769043,15.084956169128418,153.3187713623047, 13.091068267822266
158,2406895338,0.9453394,-0.045360178,-0.106122024,0.30498236,2.3314895629882812,-0.8152957558631897,5.90701150894165,13.456482887268066,142.36790466308594, 8.649425506591797
159,2406912005,0.9471298,-0.04842187,-0.08687015,0.305048,1.3500659465789795,-0.681681215763092,6.141958236694336,20.999492645263672,132.63075256347656, 4.928946018218994
160,2406928672,0.94861937,-0.05034542,-0.06874764,0.3047306,0.8012226223945618,-1.1148221492767334,6.707005023956299,25.714344024658203,122.83208465576172, 2.0045037269592285
161,2406945339,0.9498266,-0.05039494,-0.05149361,0.3043656,0.5451199412345886,-1.4510623216629028,6.799051284790039,36.00533676147461,113.11296081542969, 1.0906877517700195
162,2406962006,0.9507279,-0.04958412,-0.03556318,0.30396333,0.38655197620391846,-1.0084638595581055,6.448618412017822,38.74978256225586,102.56236267089844, 0.7183321714401245
163,2406978673,0.95129967,-0.049208313,-0.021600345,0.3035476,-0.06958290189504623,-0.6326077580451965,6.014441967010498,31.686222076416016,90.52519226074219, 0.7484593391418457
164,2406995340,0.9516559,-0.049059294,-0.009891443,0.30306152,-0.8187510371208191,-0.3962882161140442,5.590368270874023,25.417896270751953,76.234375, 0.004783280193805695
165,2407012007,0.9518952,-0.049241517,-0.0008921585,0.30243993,-1.0691789388656616,-0.49201491475105286,4.686245918273926,17.555007934570312,59.20703125, -1.534131646156311
166,2407028674,0.95210534,-0.048767105,0.0055354666,0.30180565,-1.4174884557724,-0.7956752181053162,4.319312572479248,16.49874496459961,40.98716735839844, -2.435746192932129
167,2407045341,0.95221674,-0.048000142,0.00890025,0.30149698,-1.5654640197753906,-1.106640100479126,3.5225062370300293,12.02365493774414,20.192201614379883, -1.1186623573303223
168,2407062008,0.9523844,-0.045115884,0.009857619,0.30138233,-1.8112257719039917,-1.0672235488891602,3.2168056964874268,20.920528411865234,-0.05933190509676933, -0.6348885297775269
169,2407078675,0.95255464,-0.04007347,0.009081665,0.30158144,-2.2424700260162354,-0.9175881743431091,4.626885414123535,31.458301544189453,-16.01746940612793, 1.0174369812011719
170,2407095342,0.95265085,-0.032875903,0.0070745423,0.30220124,-1.901991367340088,-1.3020623922348022,5.242814064025879,42.98541259765625,-28.707637786865234, 3.71903133392334
171,2407112009,0.9526422,-0.02344927,0.004193957,0.30315927,-1.8625984191894531,-0.9782334566116333,6.627976417541504,55.75116729736328,-39.168880462646484, 6.060019493103027
172,2407128676,0.9524884,-0.013624159,0.00071377144,0.30426922,-1.8650716543197632,-1.2623776197433472,8.758576393127441,57.09611511230469,-43.9830322265625, 7.270651817321777
173,2407145343,0.95216,-0.0035848808,-0.0028179297,0.3055663,-1.8557254076004028,-0.9898969531059265,9.421616554260254,58.392791748046875,-44.821327209472656, 8.856767654418945
174,2407162010,0.9516249,0.006053827,-0.0064776074,0.3071344,-2.156247138977051,-0.663103461265564,9.17137622833252,55.516815185546875,-44.8664436340332, 11.068634986877441
175,2407178677,0.9508352,0.014740324,-0.010681712,0.3091621,-2.0361642837524414,-0.9393944144248962,7.801905155181885,48.17816925048828,-46.45866394042969, 14.681370735168457
176,2407195344,0.94974047,0.02484639,-0.015531145,0.31166407,-1.842483401298523,-1.9291787147521973,5.074314117431641,56.171791076660156,-53.71664810180664, 18.388816833496094
177,2407212011,0.9478857,0.03717094,-0.027210258,0.31526312,-0.381822794675827,-4.002987384796143,-15.043516159057617,56.3148193359375,-103.00569152832031, 28.11208152770996
178,2407228678,0.94537055,0.047380295,-0.058321342,0.31721964,18.358139038085938,1.6558091640472412,-17.278837203979492,0.3421260714530945,-225.60963439941406, 24.186559677124023
179,2407245345,0.9413166,0.056731764,-0.088038586,0.32086426,1.593000888824463,-0.30552664399147034,17.30431365966797,-1.0721216201782227,-214.17604064941406, 38.39664840698242
180,2407262012,0.93546057,0.071765296,-0.11340275,0.3269609,6.328473091125488,-2.7739882469177246,3.6532301902770996,47.52275085449219,-198.71766662597656, 53.091224670410156
181,2407278679,0.93005705,0.086387366,-0.13747488,0.32959366,1.8333549499511719,0.6291614174842834,1.595856785774231,44.92748260498047,-190.69094848632812, 29.43033218383789
182,2407295346,0.92548746,0.0978536,-0.15667507,0.33068225,2.2013251781463623,-0.1653621345758438,3.1437718868255615,33.806941986083984,-152.478515625, 17.746835708618164
183,2407312013,0.9211844,0.10788434,-0.17226438,0.33182144,5.229684352874756,-1.7515568733215332,7.089114665985107,32.757530212402344,-125.89512634277344, 16.562217712402344
184,2407328680,0.91742736,0.113029204,-0.18700889,0.33253434,8.191018104553223,1.0329376459121704,9.311501502990723,2.8811490535736084,-109.00919342041016, 17.742582321166992
185,2407345347,0.9135674,0.115513556,-0.2028481,0.3330224,9.54100227355957,1.9446117877960205,9.565771102905273,-16.623611450195312,-110.04048919677734, 20.824085235595703
186,2407362014,0.9096106,0.118215084,-0.21886885,0.33276165,9.890240669250488,5.1442952156066895,7.950382709503174,-16.675344467163086,-112.28858947753906, 16.18941879272461
187,2407378681,0.90566224,0.11796067,-0.23637007,0.33164838,9.480815887451172,4.974403381347656,8.369207382202148,-39.950439453125,-115.33039855957031, 16.55438995361328
188,2407395348,0.9010979,0.11752743,-0.25529552,0.33020368,9.189398765563965,2.0139732360839844,8.992354393005371,-44.45334243774414,-124.95801544189453, 17.41739273071289
189,2407412015,0.89682996,0.11682538,-0.2736367,0.32736993,9.994245529174805,2.163360595703125,11.542177200317383,-47.50175476074219,-121.2537841796875, 8.169883728027344
190,2407428682,0.8934973,0.113344915,-0.2902738,0.3233525,9.995495796203613,0.6029663681983948,10.462406158447266,-63.81031036376953,-103.64613342285156, 2.6729204654693604
191,2407445349,0.8912541,0.10594364,-0.30574155,0.31774905,10.010404586791992,0.3190130591392517,10.33942985534668,-89.31981658935547,-86.76419067382812, -2.5562100410461426
192,2407462016,0.8897066,0.09525323,-0.32049555,0.3108566,9.197676658630371,-0.5695710778236389,9.643040657043457,-111.13172912597656,-74.64945220947266, -5.540492057800293
193,2407478683,0.888169,0.08421972,-0.3343484,0.30376673,8.942014694213867,-1.5909134149551392,9.756723403930664,-111.7323226928711,-68.4966812133789, -6.574397087097168
194,2407495350,0.88677377,0.07284558,-0.34702906,0.2964741,9.357738494873047,-1.8420732021331787,12.779986381530762,-111.8872299194336,-60.41903305053711, -7.996448516845703
195,2407512017,0.8865589,0.0594783,-0.35425055,0.2915177,9.801424026489258,-4.536501884460449,13.912407875061035,-107.91327667236328,-19.153987884521484, 5.86607551574707
196,2407528684,0.8851768,0.047842514,-0.36376986,0.28608575,6.67413330078125,-1.3668653964996338,10.594139099121094,-102.57380676269531,-39.75577163696289, 1.9827955961227417
197,2407545351,0.8827819,0.03412045,-0.37752062,0.27750704,7.5822834968566895,-3.0562636852264404,9.593382835388184,-131.15374755859375,-65.07327270507812, -8.558631896972656
198,2407562018,0.8793062,0.022916222,-0.39214864,0.26928586,8.743501663208008,-4.487936019897461,8.969274520874023,-116.33106231689453,-77.9791030883789, -10.667086601257324
199,2407578685,0.87500304,0.0151878465,-0.40686694,0.26191252,10.833016395568848,-4.492846965789795,8.496868133544922,-93.01693725585938,-87.06986236572266, -13.418255805969238
200,2407595352,0.87049884,0.013973333,-0.41992053,0.25632644,8.164144515991211,-3.225659132003784,12.333513259887695,-45.75383758544922,-89.1181640625, -20.729169845581055
201,2407612019,0.86569685,0.010170877,-0.43363476,0.24985269,8.710877418518066,-1.5955781936645508,14.853774070739746,-64.95919036865234,-89.609375, -18.009496688842773
202,2407628686,0.86121935,0.0047751013,-0.44581392,0.24398474,8.520177841186523,-3.994372844696045,13.345829010009766,-70.10353088378906,-76.9545669555664, -10.302593231201172
203,2407645353,0.85730916,0.0019556144,-0.4549831,0.24084815,8.172130584716797,-4.722928047180176,12.820448875427246,-41.46164321899414,-61.827003479003906, -3.1273586750030518
204,2407662020,0.85384434,0.0015252653,-0.46258545,0.238668,7.204634189605713,-2.52363920211792,11.393240928649902,-21.810611724853516,-55.34742736816406, -5.8030009269714355
205,2407678687,0.85078615,-0.0008764551,-0.46977758,0.23552352,7.055834770202637,-3.242258071899414,11.872122764587402,-35.82499694824219,-48.618492126464844, -5.884171485900879
206,2407695354,0.84854066,0.000011754302,-0.47398487,0.23519607,6.776978969573975,-3.6871070861816406,9.432769775390625,-2.68664288520813,-34.10197067260742, -1.3777129650115967
207,2407712021,0.84654665,0.00051090855,-0.47765002,0.234966,7.645610332489014,-2.507911205291748,9.780021667480469,-3.7693943977355957,-29.64699935913086, -0.003406499745324254
208,2407728688,0.8450802,0.00061793777,-0.48039797,0.23464239,7.727552890777588,-2.666771411895752,9.178140640258789,-4.9188642501831055,-22.096179962158203, -0.1297285556793213
209,2407745355,0.8443943,0.00052353926,-0.4819178,0.23399423,7.846066951751709,-3.0992660522460938,11.16286849975586,-5.216003894805908,-12.192778587341309, -2.634267568588257
210,2407762022,0.84469277,0.0041844114,-0.48131564,0.23411953,7.3375773429870605,-2.146632432937622,10.686999320983887,22.523344039916992,-2.8606507778167725, -12.203557968139648
211,2407778689,0.84494734,0.005805731,-0.4815059,0.23277098,7.846701145172119,-3.2033936977386475,8.708237648010254,4.473639488220215,-4.573548316955566, -13.922050476074219
212,2407795356,0.84616673,0.0065699136,-0.4800733,0.23127577,7.229102611541748,-3.491787910461426,9.37221908569336,1.563368797302246,9.291688919067383, -13.581070899963379
213,2407812023,0.84792733,0.0059738513,-0.47756875,0.23002584,6.882660865783691,-3.067016363143921,10.8734130859375,-3.861043691635132,19.325050354003906, -8.628047943115234
214,2407828690,0.8499257,0.004982634,-0.4745884,0.2288397,7.097636699676514,-2.8981077671051025,10.008292198181152,-5.2323784828186035,23.27654457092285, -7.3982954025268555
215,2407845357,0.8522752,0.0053560906,-0.47054252,0.22844733,7.674779891967773,-3.2875022888183594,7.9709391593933105,6.969257354736328,28.34132194519043, -7.8453874588012695
216,2407862024,0.85509664,0.0074704587,-0.46481362,0.2295704,7.567192077636719,-3.315331220626831,8.231829643249512,24.71491050720215,36.957210540771484, -5.436282634735107
217,2407878691,0.85814154,0.008947488,-0.4582911,0.23126327,8.0010404586792,-2.762176275253296,8.53905200958252,24.05230712890625,43.26641845703125, -0.4720205068588257
218,2407895358,0.8613798,0.009844994,-0.45124358,0.23303913,9.062403678894043,-3.470672845840454,7.360019683837891,21.71138572692871,47.80318832397461, 1.4879266023635864
219,2407912025,0.86504793,0.013681172,-0.44229478,0.2363908,10.552627563476562,-4.8811564445495605,6.1738152503967285,47.06772232055664,55.778011322021484, 0.8738512396812439
220,2407928692,0.86908,0.020338181,-0.43120804,0.24154928,10.304802894592285,-3.9752936363220215,6.5530924797058105,72.86920166015625,65.27174377441406, 2.2017741203308105
221,2407945359,0.8729172,0.026948946,-0.41984668,0.24701835,9.526430130004883,-3.106438398361206,6.906436443328857,74.07561492919922,66.52471160888672, 4.4786458015441895
222,2407962026,0.8766,0.030593224,-0.4086526,0.25226918,9.283149719238281,-2.41983699798584,7.335164546966553,55.43389129638672,70.1193618774414, 12.031991958618164
223,2407978693,0.8801465,0.030132823,-0.39773506,0.25737372,9.430295944213867,-3.495098352432251,7.717981338500977,29.859596252441406,75.19659423828125, 22.993520736694336
224,2407995360,0.8837456,0.02821069,-0.38599584,0.26306924,9.529153823852539,-2.8296215534210205,7.830918312072754,24.130481719970703,83.0926284790039, 30.279300689697266
225,2408012027,0.8875496,0.023995923,-0.3735475,0.26859337,9.149727821350098,-2.412135124206543,6.900652885437012,11.021252632141113,92.18529510498047, 34.825355529785156
226,2408028694,0.891791,0.019464482,-0.35909402,0.27455685,9.087630271911621,-1.8757964372634888,6.899982452392578,13.876161575317383,106.39159393310547, 37.2205810546875
227,2408045361,0.89617914,0.01351469,-0.3438705,0.28005978,8.658547401428223,-1.1707967519760132,6.362621307373047,5.478074550628662,114.30847930908203, 37.57655334472656
228,2408062028,0.90048975,0.007932079,-0.32775125,0.28571808,8.733793258666992,-1.6556068658828735,5.391313076019287,9.825057029724121,119.18470001220703, 37.81568145751953
229,2408078695,0.9046763,0.0023805357,-0.31102306,0.29123822,8.41357135772705,-0.6731904149055481,5.151056289672852,10.91536808013916,122.87471008300781, 37.16752243041992
230,2408095362,0.90878975,-0.003286433,-0.29335487,0.2967045,7.135138988494873,-0.26039400696754456,6.667346477508545,11.941117286682129,129.04791259765625, 37.29792785644531
231,2408112029,0.9127349,-0.009885885,-0.27520132,0.3017972,6.234961032867432,0.3249472379684448,6.9055681228637695,6.297637939453125,133.8087158203125, 37.27596664428711
232,2408128696,0.91662526,-0.015284856,-0.25534838,0.30718377,5.054389953613281,0.06505504250526428,7.244978427886963,17.84379005432129,141.9771270751953, 37.14793395996094
233,2408145363,0.9202864,-0.020364657,-0.23491733,0.31220567,4.419867515563965,0.03217905014753342,6.641793727874756,20.359621047973633,144.6529541015625, 34.88276672363281
234,2408162030,0.9238693,-0.023652593,-0.21315467,0.3169722,3.595149040222168,-0.08958720415830612,6.6134233474731445,34.09064865112305,149.20846557617188, 30.756277084350586
235,2408178697,0.92727125,-0.026741648,-0.19101438,0.3208845,3.088454246520996,0.5391959547996521,6.324010848999023,34.8647575378418,151.09078979492188, 25.513578414916992
236,2408195364,0.93046093,-0.030481743,-0.1687878,0.32376564,3.013296127319336,0.3923273980617523,6.455185890197754,29.469879150390625,153.0236358642578, 20.297880172729492
237,2408212031,0.93340194,-0.035194017,-0.14677392,0.3255459,3.191411256790161,0.678158700466156,6.636229038238525,21.416122436523438,153.8069610595703, 14.902458190917969
238,2408228698,0.9361415,-0.041132983,-0.12569892,0.32580245,3.026557207107544,0.7976216673851013,6.024349689483643,9.821475982666016,150.7375030517578, 6.594066619873047
239,2408245365,0.9386295,-0.04609916,-0.1055015,0.32514444,2.7119998931884766,-0.6965671181678772,6.255836009979248,13.22712230682373,142.997802734375, 0.18741533160209656
240,2408262032,0.94098115,-0.04803126,-0.0861341,0.32377204,1.804814100265503,-0.9111369848251343,6.137017726898193,30.40743637084961,131.02420043945312, -6.582973480224609
241,2408278699,0.9430573,-0.048102025,-0.067668,0.32210267,1.1380083560943604,-1.7916475534439087,6.509307861328125,40.197357177734375,121.00050354003906, -9.300174713134766
242,2408295366,0.9447787,-0.047691662,-0.049991224,0.32034305,0.6324728727340698,-1.0592738389968872,7.1107048988342285,41.45098114013672,114.68309783935547, -9.59005355834961
243,2408312033,0.94604975,-0.047699172,-0.03364104,0.31872082,0.6082550287246704,-0.9272420406341553,6.888261318206787,35.7310791015625,106.77831268310547, -8.008952140808105
244,2408328700,0.9468457,-0.047592737,-0.018835811,0.31759006,0.5143134593963623,-0.8087373971939087,5.950194358825684,33.05961608886719,96.2065200805664, -4.307547092437744
245,2408345367,0.94727504,-0.047607835,-0.0064495937,0.31679976,0.08376853168010712,-0.7615029811859131,5.161174774169922,26.924898147583008,80.56682586669922, -2.0684573650360107
246,2408362034,0.94755024,-0.046678968,0.0036874346,0.31615856,-0.4817177951335907,-0.8924455642700195,4.65262508392334,28.14495277404785,63.80156326293945, -1.545599102973938
247,2408378701,0.94777036,-0.045385506,0.010777237,0.31552404,-1.0577994585037231,-0.7635977268218994,3.9193928241729736,23.89675521850586,43.13997268676758, -2.354736566543579
248,2408395368,0.9479938,-0.043335997,0.014860678,0.31497476,-1.4203307628631592,-0.8399908542633057,3.1556520462036133,22.311382293701172,21.854564666748047, -2.688728094100952
249,2408412035,0.9482173,-0.040306967,0.016274102,0.3146339,-1.6239255666732788,-1.0798178911209106,3.7360925674438477,22.909635543823242,2.234731435775757, -2.0291569232940674
250,2408428702,0.9484472,-0.035946805,0.015736287,0.31449655,-1.828155755996704,-0.5964342355728149,5.1546735763549805,27.366539001464844,-13.457148551940918, -1.1106599569320679
251,2408445369,0.9486047,-0.0307578,0.013765303,0.3146642,-1.8728468418121338,-0.7240405678749084,6.766407489776611,29.6278133392334,-24.697595596313477, 0.7676869630813599
252,2408462036,0.9486027,-0.024429047,0.011009038,0.31533346,-1.4726747274398804,-1.0891870260238647,7.9542460441589355,35.28862380981445,-32.408077239990234, 4.325488567352295
253,2408478703,0.9485273,-0.016634727,0.008664265,0.31613955,-1.9990167617797852,-0.7489508986473083,9.934247970581055,45.73210906982422,-32.93896484375, 5.553567886352539
254,2408495370,0.948253,-0.008689994,0.0062647667,0.3173354,-1.7861682176589966,-1.4026013612747192,9.254327774047852,46.554847717285156,-33.6873893737793, 8.533696174621582
255,2408512037,0.9477773,0.0009587133,0.0036084005,0.31891182,-1.9228668212890625,-1.7271523475646973,6.866091251373291,57.099552154541016,-39.120750427246094, 11.51270580291748
256,2408528704,0.94669604,0.011328282,-0.003659875,0.3219085,-1.7765616178512573,-4.376865386962891,-2.3040611743927,51.6860237121582,-70.76225280761719, 22.142807006835938
257,2408545371,0.94503784,0.020968826,-0.026489621,0.3252112,8.688116073608398,-1.1693670749664307,-24.895143508911133,12.640167236328125,-170.46954345703125, 26.63689613342285
258,2408562038,0.9423218,0.037031304,-0.057735313,0.32760507,10.204109191894531,2.724982738494873,0.5802909135818481,35.54949188232422,-239.61781311035156, 23.131656646728516
259,2408578705,0.93841296,0.048359476,-0.08480113,0.3314388,2.321382999420166,-1.321370244026184,10.981332778930664,15.09732723236084,-201.7196044921875, 35.96090316772461
260,2408595372,0.9338128,0.06344015,-0.108013175,0.33511552,2.935110330581665,-0.9169938564300537,2.0071635246276855,48.26389694213867,-185.86070251464844, 33.040374755859375
261,2408612039,0.92942053,0.07626018,-0.1286218,0.33736977,1.015515923500061,-0.1709817349910736,0.813097357749939,38.613651275634766,-164.35255432128906, 23.95559310913086
262,2408628706,0.925812,0.08470881,-0.14545287,0.33843774,1.8499257564544678,0.0013579009100794792,6.186192989349365,17.973352432250977,-129.99461364746094, 16.4301700592041
263,2408645373,0.9219657,0.09201627,-0.16075486,0.34010342,6.158302307128906,-1.5686808824539185,10.023248672485352,15.001359939575195,-117.51492309570312, 21.034353256225586
264,2408662040,0.9180164,0.09819608,-0.1756463,0.3416901,7.722427845001221,1.2974921464920044,9.044194221496582,8.83225154876709,-112.39558410644531, 21.74358558654785
265,2408678707,0.91400313,0.10070431,-0.19255328,0.34260795,7.828892707824707,-0.7607064247131348,8.97711181640625,-19.86594009399414,-116.9466781616211, 23.467775344848633
266,2408695374,0.9096756,0.10371116,-0.2095033,0.34328255,8.184380531311035,4.8514509201049805,6.424764156341553,-16.920318603515625,-118.90997314453125, 22.027408599853516
267,2408712041,0.9052555,0.10529754,-0.22710904,0.34328797,8.099875450134277,3.626180648803711,7.2125115394592285,-28.34442710876465,-120.18282318115234, 20.632125854492188
268,2408728708,0.90074944,0.106154546,-0.24453545,0.342906,10.090828895568848,2.0575201511383057,8.829083442687988,-33.068851470947266,-117.69483184814453, 19.475414276123047
269,2408745375,0.89701885,0.1067832,-0.25959197,0.3414182,11.338215827941895,2.9584107398986816,10.21519660949707,-31.354358673095703,-101.90304565429688, 9.473143577575684
270,2408762042,0.89428526,0.103272356,-0.2743819,0.3380879,12.446752548217773,2.0581226348876953,10.928478240966797,-60.32437515258789,-90.04224395751953, 3.0107762813568115
271,2408778709,0.8926694,0.09549934,-0.28914276,0.33229184,11.340666770935059,1.9205056428909302,12.06847095489502,-91.93901824951172,-79.52588653564453, -6.680473804473877
272,2408795376,0.89146733,0.08282868,-0.30436093,0.32525396,11.120002746582031,-0.5866892337799072,11.846426010131836,-125.82413482666016,-71.11930084228516, -5.16019868850708
273,2408812043,0.8899463,0.07023715,-0.31928873,0.31798908,10.696388244628906,-1.7588330507278442,11.859932899475098,-124.9720687866211,-70.30467987060547, -6.14082145690918
274,2408828710,0.8878827,0.059115812,-0.33369514,0.3111547,9.652539253234863,-3.1415255069732666,11.59529972076416,-113.6064682006836,-71.32036590576172, -5.788773536682129
275,2408845377,0.88606894,0.049589332,-0.3453155,0.30525446,9.307231903076172,-3.4518344402313232,14.52020263671875,-95.82064819335938,-56.80229949951172, -5.417003631591797
276,2408862044,0.88536525,0.042247206,-0.35092124,0.30199042,8.264084815979004,-3.924996852874756,13.414828300476074,-63.99049758911133,-21.301298141479492, 1.0458537340164185
277,2408878711,0.8833868,0.03298465,-0.3623535,0.29536417,6.93893575668335,-1.4613497257232666,9.554998397827148,-95.48599243164062,-56.93352127075195, -10.471200942993164
278,2408895378,0.8801197,0.023169653,-0.3775,0.28696105,9.173308372497559,-4.6847453117370605,7.798707008361816,-110.5374526977539,-82.0436782836914, -16.42474365234375
279,2408912045,0.8758345,0.014721902,-0.39327273,0.27934554,10.436138153076172,-4.3501787185668945,9.987707138061523,-101.2375259399414,-91.03129577636719, -13.128936767578125
280,2408928712,0.8723766,0.010245383,-0.40527743,0.27313814,7.358362674713135,-3.0112574100494385,14.873350143432617,-66.33050537109375,-73.59493255615234, -17.378389358520508
281,2408945379,0.86962044,-0.00049347925,-0.4173376,0.26379812,6.093971252441406,0.12592440843582153,16.26051902770996,-112.8111572265625,-60.61084747314453, -20.047847747802734
282,2408962046,0.86710805,-0.013171835,-0.4280467,0.25441352,6.941415309906006,-5.077239990234375,12.81320858001709,-122.18965148925781,-48.552494049072266, -15.157120704650879
283,2408978713,0.86544406,-0.020245124,-0.43416348,0.24919663,7.627089500427246,-5.9246439933776855,11.309296607971191,-68.3824691772461,-29.005094528198242, -7.93294620513916
284,2408995380,0.8640658,-0.023589544,-0.43881375,0.24551302,7.401036739349365,-3.9760823249816895,11.502633094787598,-39.042991638183594,-26.129215240478516, -10.30001449584961
285,2409012047,0.8624189,-0.027050296,-0.44387668,0.24181703,6.601151943206787,-3.863772392272949,10.44438362121582,-40.52849197387695,-29.304841995239258, -9.670917510986328
286,2409028714,0.8611435,-0.028227905,-0.44689247,0.24067064,6.459910869598389,-4.9965386390686035,9.563114166259766,-15.753242492675781,-20.40566062927246, -1.7962100505828857
287,2409045381,0.8602287,-0.025452211,-0.44801146,0.2421663,7.140112400054932,-4.154016017913818,8.986845016479492,18.99697494506836,-15.212491035461426, 1.4206434488296509
288,2409062048,0.85953325,-0.02059838,-0.44794488,0.24520116,7.692175388336182,-4.0315704345703125,8.0192289352417,38.040794372558594,-11.317265510559082, 3.935957670211792
289,2409078715,0.85932714,-0.016016118,-0.44719794,0.24761769,7.152101993560791,-3.117527484893799,9.739566802978516,35.75581359863281,-5.276534557342529, 0.3701244294643402
290,2409095382,0.85938764,-0.012006128,-0.44637734,0.24911088,6.147976875305176,-2.425614595413208,10.016304969787598,29.6731014251709,-3.028532028198242, -3.77590012550354
291,2409112049,0.85974866,-0.010621392,-0.44556248,0.24938661,6.381838798522949,-3.442877769470215,9.510295867919922,10.407129287719727,2.3504464626312256, -3.430464029312134
292,2409128716,0.8605909,-0.010558999,-0.44396535,0.2493326,6.497409343719482,-3.074936628341675,8.705013275146484,2.9511797428131104,10.652870178222656, -2.121321439743042
293,2409145383,0.8615102,-0.01237384,-0.44258517,0.24852677,6.7034711837768555,-3.0635440349578857,8.168624877929688,-10.821720123291016,12.813693046569824, -1.0049536228179932
294,2409162050,0.862705,-0.0139754405,-0.44019222,0.24854723,6.929337501525879,-3.8041892051696777,8.566147804260254,-5.292961120605469,19.17259979248047, 2.8381152153015137
295,2409178717,0.8642113,-0.014446172,-0.43696204,0.24898668,6.818120956420898,-2.422889471054077,9.108819007873535,4.152140140533447,23.060726165771484, 1.4186710119247437
296,2409195384,0.86563444,-0.015506749,-0.43447283,0.24833466,7.089784145355225,-2.1251893043518066,7.594761371612549,-3.9290831089019775,19.463369369506836, -3.2243618965148926
297,2409212051,0.867047,-0.015792124,-0.43175942,0.24812122,7.598268032073975,-3.762230634689331,6.4320292472839355,2.36517596244812,19.37934112548828, -2.8762972354888916
298,2409228718,0.86836106,-0.014429156,-0.42846948,0.24930938,8.39678955078125,-3.6213862895965576,6.789987087249756,17.355134963989258,19.583498001098633, 0.797600507736206
299,2409245385,0.8698207,-0.011733391,-0.42443314,0.25125855,9.557576179504395,-4.269229888916016,6.813790798187256,28.875728607177734,22.140300750732422, 1.2349666357040405
300,2409262052,0.8718788,-0.005405505,-0.4180254,0.2550554,9.87261962890625,-4.303558826446533,7.1308674812316895,60.169944763183594,31.703474044799805, 0.8312417268753052
301,2409278719,0.8743389,0.001509821,-0.4105306,0.2588318,9.464593887329102,-3.0827219486236572,8.017927169799805,65.59815979003906,38.40258026123047, -1.6472376585006714
302,2409295386,0.8769484,0.0067738113,-0.40232447,0.262775,9.352452278137207,-3.7686192989349365,8.485175132751465,57.422706604003906,46.06890106201172, 3.7632243633270264
303,2409312053,0.879662,0.0090953,-0.39358735,0.26683572,9.047004699707031,-3.237521171569824,8.326154708862305,40.98707962036133,54.90187454223633, 12.390270233154297
304,2409328720,0.8825952,0.009809055,-0.38360858,0.27161393,9.209321022033691,-3.570976734161377,7.905281066894531,35.488624572753906,66.02679443359375, 20.599071502685547
305,2409345387,0.88587564,0.0092665665,-0.37220663,0.27676845,9.393938064575195,-2.681790351867676,7.307429790496826,31.52973747253418,77.9980239868164, 25.4484920501709
306,2409362054,0.8895711,0.008188694,-0.35888886,0.2824806,9.256656646728516,-2.196157455444336,6.863022327423096,33.334617614746094,91.86156463623047, 29.317672729492188
307,2409378721,0.8936302,0.0060262876,-0.3436846,0.28856534,8.825247764587402,-1.9448282718658447,7.272609233856201,31.278820037841797,106.52047729492188, 33.48782730102539
308,2409395388,0.8978499,0.002137755,-0.32744986,0.2943426,8.83482551574707,-1.2563596963882446,7.316180229187012,21.99201774597168,116.72938537597656, 35.34772491455078
309,2409412055,0.90196854,-0.0031124053,-0.31049326,0.30006203,9.057499885559082,-1.7133464813232422,6.717514514923096,14.90677547454834,123.81111145019531, 38.293426513671875
310,2409428722,0.9058337,-0.009462684,-0.29292938,0.3058897,8.836544036865234,-1.3491606712341309,6.318584442138672,9.570856094360352,129.4379119873047, 41.88703536987305
311,2409445389,0.9096058,-0.015756313,-0.27398247,0.31193388,7.378419876098633,-0.4123203754425049,7.021242618560791,13.26319408416748,137.8817596435547, 43.45345687866211
312,2409462056,0.91312,-0.022810478,-0.25451374,0.31767076,6.133540630340576,0.18512806296348572,7.021875858306885,8.98563289642334,142.4264678955078, 43.62908172607422
313,2409478723,0.916454,-0.02995679,-0.23396684,0.32322457,4.756166934967041,-0.0031867995858192444,7.14385461807251,10.356348991394043,149.1866912841797, 43.255558013916016
314,2409495390,0.9196059,-0.036988407,-0.21242395,0.3283795,3.639385938644409,0.1523141860961914,7.700007915496826,12.560285568237305,155.03887939453125, 41.20537185668945
315,2409512057,0.92241156,-0.04472931,-0.19077288,0.33280963,3.1705360412597656,-0.36573562026023865,7.46709680557251,7.105931758880615,157.01129150390625, 38.49324417114258
316,2409528724,0.925017,-0.05136879,-0.16814354,0.33679798,2.681745767593384,-0.5126027464866638,6.901196479797363,15.64282512664795,160.57933044433594, 35.02227020263672
317,2409545391,0.92747885,-0.057241134,-0.14520113,0.33973986,2.3616836071014404,-0.46872222423553467,6.390479564666748,19.9488525390625,161.0132598876953, 27.929853439331055
318,2409562058,0.9298256,-0.061327256,-0.12234794,0.34160617,2.4662764072418213,-0.9144401550292969,6.166675090789795,29.977201461791992,156.60353088378906, 19.520708084106445
319,2409578725,0.9320517,-0.063741125,-0.10009675,0.3423414,2.494450569152832,-1.159672498703003,5.3930792808532715,38.238792419433594,149.24392700195312, 10.914827346801758
320,2409595392,0.9341611,-0.06475647,-0.07837373,0.34206364,1.7058018445968628,-0.9921849966049194,6.737545967102051,45.21418762207031,142.99266052246094, 3.5054595470428467
321,2409612059,0.9359958,-0.06565612,-0.057741206,0.3409798,1.1169942617416382,-1.0706888437271118,7.446437835693359,42.82510757446289,135.95843505859375, -1.5794432163238525
322,2409628726,0.9374621,-0.066916786,-0.03820589,0.339452,1.2542439699172974,-1.5105648040771484,7.442205905914307,37.57828140258789,129.81166076660156, -3.9237473011016846
323,2409645393,0.93840957,-0.06862585,-0.020109653,0.33804432,1.2766395807266235,-2.0528979301452637,7.186249256134033,31.134990692138672,121.42643737792969, -2.4962494373321533
324,2409662060,0.93898183,-0.07002628,-0.00366723,0.33674365,0.6334720253944397,-1.5880593061447144,6.008760929107666,29.1611385345459,109.98428344726562, -1.7564197778701782
325,2409678727,0.93922967,-0.07059093,0.010652681,0.33578447,-0.40357276797294617,-1.4921624660491943,5.43060827255249,29.526046752929688,94.20244598388672, 0.15472523868083954
326,2409695394,0.93916744,-0.071640566,0.021844566,0.33519405,-0.7617440223693848,-0.7301977276802063,4.3205461502075195,19.027299880981445,74.95572662353516, 1.6921577453613281
327,2409712061,0.93902236,-0.07143582,0.03037439,0.33497962,-1.201108694076538,-1.367082953453064,3.1623737812042236,20.901979446411133,54.67732620239258, 3.1864829063415527
328,2409728728,0.9390184,-0.06898826,0.03615363,0.33493015,-1.986070156097412,-1.1654787063598633,2.65822696685791,29.124217987060547,31.59895896911621, 3.0344395637512207
329,2409745395,0.93909883,-0.06493992,0.039122544,0.3351803,-2.262742519378662,-0.9218841195106506,2.7853591442108154,32.98942565917969,9.524690628051758, 3.829286575317383
330,2409762062,0.9393853,-0.059080705,0.039785553,0.3353836,-2.1895556449890137,-0.7768559455871582,3.269524097442627,39.49880599975586,-9.66409969329834, 2.496887683868408
331,2409778729,0.9397905,-0.051120225,0.039033543,0.33564427,-1.9827029705047607,-0.9467130303382874,5.112940311431885,49.85908889770508,-23.79117774963379, 2.585610866546631
332,2409795396,0.940054,-0.04318545,0.036829144,0.3362699,-1.9514864683151245,-0.11239641904830933,6.894556045532227,46.21657180786133,-33.2742919921875, 4.746363639831543
333,2409812063,0.94023526,-0.03575134,0.03355393,0.33697772,-1.7227410078048706,-0.06572531163692474,8.088507652282715,40.44302749633789,-39.10209655761719, 5.015170574188232
334,2409828730,0.9403938,-0.028424343,0.03020819,0.33754918,-2.4370410442352295,0.3091264069080353,9.553924560546875,39.595909118652344,-39.318817138671875, 4.140145778656006
335,2409845397,0.9405156,-0.021046158,0.026817476,0.33803618,-1.7609657049179077,-0.587841808795929,8.562110900878906,39.7994499206543,-39.78627395629883, 3.6763408184051514
336,2409862064,0.9406112,-0.015901621,0.022457462,0.33836928,-2.3289308547973633,0.5366584658622742,8.831748008728027,23.142642974853516,-40.89152908325195, 2.1858367919921875
337,2409878731,0.940568,-0.012755163,0.017309891,0.33892435,-2.2150018215179443,-0.22966189682483673,7.730833053588867,8.304323196411133,-41.42913818359375, 3.5488221645355225
338,2409895398,0.9403161,-0.008477442,0.012756523,0.33995762,-2.2502734661102295,-0.752639651298523,6.991002082824707,16.93315315246582,-40.33085250854492, 7.311342716217041
339,2409912065,0.9395092,0.0017408786,0.0076229377,0.34243482,-2.5352516174316406,-3.360516309738159,-2.8385910987854004,53.85417938232422,-58.1016731262207, 18.429412841796875
340,2409928732,0.9380579,0.012600646,-0.015992325,0.34588027,14.379422187805176,-2.2730274200439453,-28.520980834960938,14.596920013427734,-179.0932159423828, 26.45644187927246
341,2409945399,0.9359347,0.034281626,-0.045012616,0.3475988,8.490147590637207,4.679490566253662,11.982124328613281,71.52668762207031,-239.1692657470703, 16.179288864135742
342,2409962066,0.93219453,0.04678033,-0.07153171,0.35172236,5.826165676116943,-1.7348942756652832,9.103121757507324,19.326513290405273,-200.65235900878906, 37.79225540161133
343,2409978733,0.9276242,0.06326927,-0.09734146,0.35501447,3.1643259525299072,-0.8272563815116882,-0.26720988750457764,46.58836364746094,-206.2007293701172, 32.23793029785156
344,2409995400,0.92343915,0.07760291,-0.11761113,0.3569393,1.0952118635177612,0.37162238359451294,0.2524590790271759,45.32362365722656,-165.7742462158203, 21.573455810546875
345,2410012067,0.9202095,0.08618433,-0.13351922,0.3577141,3.1556079387664795,-0.8998062610626221,5.920080661773682,18.041894912719727,-123.7696304321289, 14.235251426696777
346,2410028734,0.91683286,0.0917216,-0.1484193,0.35913283,5.897679805755615,-0.09756732732057571,9.892034530639648,1.995848536491394,-109.62008666992188, 20.844690322875977
347,2410045401,0.91361266,0.09494957,-0.16393536,0.35975245,7.792644500732422,2.0143942832946777,9.8442964553833,-14.969513893127441,-108.06260681152344, 18.14532470703125
348,2410062068,0.91009384,0.095662005,-0.18125144,0.36017486,8.357075691223145,0.9039955735206604,9.291298866271973,-35.319190979003906,-113.47338104248047, 21.682308197021484
349,2410078735,0.9060982,0.09572967,-0.19994774,0.36033762,8.52528190612793,4.522583961486816,5.882923126220703,-42.7998046875,-121.1368637084961, 22.96988296508789
350,2410095402,0.90198,0.09437846,-0.21976745,0.359482,7.581799030303955,2.352130889892578,8.148503303527832,-55.91728973388672,-125.2840576171875, 19.72798728942871
351,2410112069,0.89778554,0.09329446,-0.23806393,0.35861287,8.440107345581055,0.32283973693847656,8.600966453552246,-50.54060745239258,-116.56912231445312, 18.51346778869629
352,2410128736,0.8943105,0.09234361,-0.25330076,0.35710025,9.536210060119629,0.9853894710540771,9.71805477142334,-43.67957305908203,-97.19407653808594, 10.620497703552246
353,2410145403,0.8919563,0.088178374,-0.26667318,0.3542939,10.008359909057617,1.7747571468353271,9.538768768310547,-61.8652458190918,-76.6695327758789, 4.368427753448486
354,2410162070,0.8904447,0.07960748,-0.28006315,0.3497653,9.902777671813965,1.277045726776123,9.501542091369629,-92.64663696289062,-65.51510620117188, -0.05824591964483261
355,2410178737,0.88961536,0.06798736,-0.29296777,0.34370372,9.646651268005371,0.5992385149002075,10.584693908691406,-113.52436065673828,-54.73395538330078, -5.397090435028076
356,2410195404,0.8906816,0.061322074,-0.2970039,0.3386954,11.85866928100586,-1.7198125123977661,13.960038185119629,-61.05843734741211,-7.93550443649292, -17.497413635253906
357,2410212071,0.8910948,0.058899377,-0.3007863,0.33467713,8.041390419006348,-2.4534263610839844,9.605494499206543,-32.17449188232422,-17.230316162109375, -18.6905574798584
358,2410228738,0.8889593,0.05675757,-0.31330732,0.32919422,7.009260177612305,-3.7728724479675293,10.824960708618164,-52.49616241455078,-77.36104583740234, -18.858015060424805
359,2410245405,0.8861127,0.053261526,-0.32746857,0.32362342,8.923686981201172,-4.548105716705322,10.043498039245605,-64.33281707763672,-86.02713775634766, -14.307805061340332
360,2410262072,0.8823495,0.04916454,-0.34409627,0.31723884,9.296045303344727,-4.144861698150635,10.768444061279297,-74.8852767944336,-102.14469146728516, -15.030059814453125
361,2410278739,0.878756,0.037273664,-0.3638392,0.30662656,9.761351585388184,-0.05716577172279358,14.714151382446289,-138.96896362304688,-105.1597671508789, -21.589176177978516
362,2410295406,0.8765198,0.01396053,-0.38599765,0.28727028,8.324539184570312,2.4652280807495117,16.211088180541992,-235.41566467285156,-94.72118377685547, -48.004249572753906
363,2410312073,0.87325025,-0.01081363,-0.40830055,0.26572192,10.722087860107422,-1.362457275390625,11.136551856994629,-250.4047088623047,-95.95062255859375, -55.14963150024414
364,2410328740,0.8686136,-0.02719654,-0.42745253,0.2491086,10.520230293273926,-9.132902145385742,9.857762336730957,-180.51702880859375,-96.65509033203125, -46.27933883666992
365,2410345407,0.8637186,-0.026073601,-0.4411741,0.24223079,10.067380905151367,-8.739652633666992,8.076204299926758,-37.95088195800781,-96.83694458007812, -38.267879486083984
366,2410362074,0.85859895,-0.013440818,-0.45142522,0.2425755,9.818209648132324,-6.797618865966797,8.392995834350586,58.16205978393555,-97.39990997314453, -29.443464279174805
367,2410378741,0.85310185,0.0021826066,-0.4601679,0.24588221,9.711968421936035,-5.063956260681152,9.694971084594727,87.5469970703125,-94.97698211669922, -20.585861206054688
368,2410395408,0.8474795,0.013566694,-0.46892175,0.24840885,9.803400039672852,-4.457546234130859,11.175759315490723,60.20320129394531,-88.37543487548828, -11.607150077819824
369,2410412075,0.84226334,0.01909721,-0.47814032,0.24821356,9.65269947052002,-3.91457462310791,12.023880958557129,16.483684539794922,-80.16490173339844, -9.292816162109375
370,2410428742,0.83767647,0.018788569,-0.48790434,0.2447337,9.296575546264648,-4.415290355682373,11.890607833862305,-29.1722469329834,-71.87861633300781, -10.160136222839355
371,2410445409,0.8339268,0.016224029,-0.49665603,0.24007472,8.713652610778809,-4.084440231323242,11.834321022033691,-44.54100036621094,-59.753780364990234, -10.97389030456543
372,2410462076,0.8310518,0.012545923,-0.5040081,0.23488663,8.596535682678223,-4.067160129547119,11.431406021118164,-50.544349670410156,-47.12593078613281, -11.850176811218262
373,2410478743,0.8290208,0.010439351,-0.50895715,0.23146959,8.521575927734375,-4.909854888916016,10.601490020751953,-31.639650344848633,-33.006710052490234, -8.787989616394043
374,2410495410,0.82793605,0.010899929,-0.5110508,0.23071703,8.67123031616211,-4.767002105712891,10.341764450073242,-3.2201218605041504,-17.436811447143555, -4.358005523681641
375,2410512077,0.8273694,0.012493677,-0.51126695,0.23218554,9.119084358215332,-4.959803104400635,9.472879409790039,13.97848129272461,-6.676224231719971, 3.3006279468536377
376,2410528744,0.82756865,0.015778525,-0.50906396,0.23608314,9.377470970153809,-4.354281902313232,9.198018074035645,35.9406623840332,7.203819274902344, 9.705195426940918
377,2410545411,0.8285276,0.01908991,-0.50507027,0.24100189,9.688811302185059,-3.631404161453247,9.561014175415039,42.48603439331055,20.05447006225586, 13.974732398986816
378,2410562078,0.83031774,0.022304367,-0.49909997,0.24693073,10.1654691696167,-4.41621208190918,8.684925079345703,48.58916091918945,34.42802810668945, 18.428146362304688
379,2410578745,0.83324665,0.026048321,-0.49053353,0.25376922,10.590463638305664,-4.1095051765441895,8.057977676391602,58.982181549072266,52.36553955078125, 19.466556549072266
380,2410595412,0.8373562,0.03040272,-0.4791726,0.2613507,10.073360443115234,-3.582928419113159,7.994454383850098,69.6629409790039,71.42378997802734, 19.10683250427246
381,2410612079,0.84244853,0.033817448,-0.46550962,0.26914266,9.45462417602539,-2.315178155899048,8.161216735839844,68.8886489868164,89.64700317382812, 21.180402755737305
382,2410628746,0.8480943,0.033937108,-0.45081046,0.2763228,9.060653686523438,-1.44796884059906,7.902897834777832,49.62464141845703,103.37128448486328, 26.951583862304688
383,2410645413,0.8541534,0.030341377,-0.4353475,0.28279707,9.04403305053711,-1.7153292894363403,7.271860122680664,27.108095169067383,116.0084457397461, 33.431827545166016
384,2410662080,0.86049235,0.025879858,-0.41814193,0.2898978,9.046676635742188,-1.6672450304031372,6.807765960693359,27.21735954284668,128.93064880371094, 38.82499694824219
385,2410678747,0.8671533,0.020975552,-0.3991996,0.297061,9.192293167114258,-0.7202616930007935,6.671231746673584,28.178630828857422,141.0811004638672, 39.552215576171875
386,2410695414,0.87405473,0.016697966,-0.37813872,0.30456644,9.432332038879395,-0.8841174840927124,6.366809368133545,37.123355865478516,153.2154083251953, 39.12651443481445
387,2410712081,0.88100284,0.014088892,-0.35499492,0.3124329,9.419612884521484,-0.6769684553146362,6.014008522033691,52.43598937988281,162.4961395263672, 36.67425537109375
388,2410728748,0.88798684,0.0127614895,-0.32973513,0.32029885,8.659505844116211,0.06085076928138733,6.48538875579834,64.72541809082031,172.7625274658203, 33.308837890625
389,2410745415,0.894652,0.009770965,-0.3038454,0.32738394,7.927153587341309,-0.28893688321113586,6.579482555389404,54.18209457397461,179.57737731933594, 33.01001739501953
390,2410762082,0.90088207,0.005781036,-0.27740186,0.33380622,8.094420433044434,-0.74200040102005,5.75206995010376,47.90361785888672,184.37078857421875, 32.002479553222656
391,2410778749,0.90662235,0.0012860546,-0.25062102,0.33944598,7.52089786529541,-1.1104857921600342,5.39403772354126,44.06753921508789,186.77548217773438, 29.251150131225586
392,2410795416,0.9118194,-0.004162648,-0.223585,0.34435174,6.360229015350342,-1.4673062562942505,5.776140213012695,37.46459197998047,189.77024841308594, 27.603416442871094
393,2410812083,0.9164059,-0.010695766,-0.19633333,0.3486251,5.504124641418457,-1.3779640197753906,6.40645170211792,30.199811935424805,192.865234375, 26.762025833129883
394,2410828750,0.9204335,-0.019313848,-0.16920076,0.35185274,4.710904121398926,-0.3968152403831482,6.644066333770752,15.332796096801758,196.51071166992188, 24.320404052734375
395,2410845417,0.9236623,-0.031546857,-0.14263472,0.3542719,4.12357234954834,-0.14623932540416718,6.642155647277832,-9.978911399841309,200.91085815429688, 25.279983520507812
396,2410862084,0.92604405,-0.046498522,-0.11672968,0.35588554,4.06828498840332,-0.08738701045513153,6.367339611053467,-29.852998733520508,202.73580932617188, 24.761497497558594
397,2410878751,0.9279774,-0.059951153,-0.09100729,0.3563449,4.063868522644043,-0.2690580189228058,5.4766669273376465,-21.848173141479492,197.97833251953125, 17.254831314086914
398,2410895418,0.92957604,-0.0697848,-0.06542696,0.35600284,3.862452983856201,-1.310220718383789,5.701817035675049,0.24156448245048523,188.4027557373047, 10.647799491882324
399,2410912085,0.93095726,-0.075811416,-0.04052345,0.35486507,2.8144896030426025,-0.8358587622642517,6.257228851318359,22.467514038085938,175.12107849121094, 4.0648040771484375
400,2410928752,0.932112,-0.07726496,-0.016647268,0.35344085,1.998548150062561,-1.4742627143859863,4.600380897521973,49.03068923950195,157.52906799316406, 0.9729596972465515
401,2410945419,0.9330841,-0.074949265,0.006130076,0.35170913,1.090789794921875,-1.1729332208633423,4.078947067260742,70.40692138671875,141.5121612548828, -1.5787904262542725
402,2410962086,0.93373847,-0.0700937,0.02731073,0.3499622,0.017517633736133575,-0.15801288187503815,3.544703722000122,82.69424438476562,125.16739654541016, -1.6318246126174927
403,2410978753,0.93392164,-0.06607503,0.045688976,0.348335,-0.5566835403442383,-0.04223737120628357,3.700765371322632,70.32019805908203,109.21053314208984, -1.2608344554901123
404,2410995420,0.93378896,-0.06395298,0.060710557,0.34678954,-1.24604070186615,0.4931161105632782,4.081882476806641,49.923641204833984,92.23763275146484, -2.112924814224243
405,2411012087,0.93358177,-0.064075395,0.07192206,0.34517673,-1.63187837600708,0.32743749022483826,4.091500759124756,26.402666091918945,73.15037536621094, -5.000243663787842
406,2411028754,0.9335703,-0.064512715,0.07998215,0.34334758,-1.8721877336502075,-0.05688980221748352,4.475654602050781,17.079647064208984,53.62323760986328, -8.40650463104248
407,2411045421,0.93375444,-0.06505606,0.084297255,0.3417083,-1.9316283464431763,-0.7749830484390259,3.2504892349243164,7.536787509918213,29.598608016967773, -9.376215934753418
408,2411062088,0.9342235,-0.06380028,0.08610333,0.34020975,-2.5891659259796143,-0.9771977663040161,3.9783201217651367,13.257232666015625,8.985221862792969, -9.222427368164062
409,2411078755,0.9350177,-0.059149627,0.08599306,0.3388931,-2.71101975440979,-1.3050849437713623,3.330821990966797,30.638975143432617,-11.600704193115234, -7.647970199584961
410,2411095422,0.9361544,-0.05097526,0.08448778,0.33745885,-2.5384888648986816,-0.7942280173301697,3.7821285724639893,50.28505325317383,-29.00340461730957, -7.687694072723389
411,2411112089,0.9372849,-0.041114923,0.08262965,0.3361235,-2.6809849739074707,-0.6983949542045593,7.140191555023193,60.27819061279297,-35.27875900268555, -6.183743000030518
412,2411128756,0.9381078,-0.031723846,0.08074656,0.33530197,-2.6271398067474365,-0.4084751009941101,9.18026351928711,56.833187103271484,-34.37113952636719, -2.4377522468566895
413,2411145423,0.93868184,-0.02290488,0.079031706,0.33482227,-2.68990421295166,-0.6156350374221802,9.149333953857422,53.29589080810547,-31.937334060668945, 0.06026109308004379
414,2411162090,0.93902177,-0.015643198,0.076559044,0.33486176,-2.3650856018066406,-0.8555877208709717,8.12526798248291,41.201515197753906,-33.23550796508789, 2.9868226051330566
415,2411178757,0.939086,-0.0076731634,0.07222223,0.33592105,-2.342646598815918,-2.5029821395874023,2.8637819290161133,40.946311950683594,-46.90092849731445, 10.383694648742676
416,2411195424,0.93863153,0.0019182471,0.057131838,0.3401521,0.7394115924835205,-4.327893257141113,-19.232515335083008,25.054821014404297,-120.0537338256836, 32.305973052978516
417,2411212091,0.93824005,0.023981465,0.030066423,0.34384122,19.67190170288086,-2.168642282485962,-10.744832992553711,77.86874389648438,-226.62449645996094, 33.729698181152344
418,2411228758,0.93795264,0.037845235,-0.0011717624,0.3446901,1.3117972612380981,8.711943626403809,18.36752700805664,15.726384162902832,-234.02227783203125, 14.10018539428711
419,2411245425,0.93604803,0.04841042,-0.03044467,0.34719446,3.895803451538086,1.8949230909347534,6.685544967651367,-0.6913609504699707,-213.07225036621094, 28.141355514526367
420,2411262092,0.9323923,0.06748132,-0.055983536,0.35065222,3.5267953872680664,-4.911990165710449,-3.2692770957946777,63.71629333496094,-209.2928924560547, 35.417442321777344
421,2411278759,0.929063,0.08390331,-0.07762585,0.35181916,0.07365860790014267,2.97892427444458,4.975052356719971,55.24617385864258,-178.7296905517578, 19.12519073486328
422,2411295426,0.92593914,0.092382126,-0.096438505,0.35327318,2.7372682094573975,-3.4101078510284424,7.2429351806640625,11.300483703613281,-141.20147705078125, 23.07162857055664
423,2411312093,0.9223551,0.09986076,-0.111992404,0.35601518,5.441903114318848,-0.7864015698432922,10.494975090026855,14.12729549407959,-117.48575592041016, 30.944650650024414
424,2411328760,0.9187478,0.10584666,-0.12604608,0.3589032,6.042092800140381,0.5111772418022156,9.468210220336914,8.52169132232666,-104.16412353515625, 32.01207733154297
425,2411345427,0.9152167,0.11064419,-0.13985221,0.3613556,7.491136074066162,0.3762442171573639,9.11502456665039,1.2097662687301636,-99.83277130126953, 29.89907455444336
426,2411362094,0.9115651,0.11187309,-0.15470944,0.36414117,8.185766220092773,3.4442882537841797,6.402243137359619,-23.420791625976562,-97.31629943847656, 36.51245880126953
427,2411378761,0.90831745,0.10878061,-0.16929781,0.3666941,6.933842658996582,3.989168405532837,6.965009689331055,-50.46702575683594,-84.39297485351562, 38.462528228759766
428,2411395428,0.9052746,0.102285914,-0.18575585,0.36811763,7.784185409545898,2.790355920791626,8.415112495422363,-77.98845672607422,-87.98897552490234, 36.313819885253906
429,2411412095,0.90225303,0.09422469,-0.20511042,0.36741152,8.393550872802734,1.9565809965133667,10.028701782226562,-97.86042785644531,-103.41645050048828, 27.109712600708008
430,2411428762,0.89975053,0.08536049,-0.2248504,0.36414987,10.202634811401367,1.026816725730896,10.810022354125977,-107.80245971679688,-104.61083984375, 11.377269744873047
431,2411445429,0.89802897,0.074126035,-0.24359637,0.3587623,10.780488967895508,0.10596498847007751,12.839982986450195,-123.73735809326172,-92.44454956054688, -0.5646665692329407
432,2411462096,0.89747256,0.060950134,-0.2563755,0.3536944,11.860005378723145,-3.015079975128174,15.652205467224121,-121.07476043701172,-48.60758972167969, -1.186720371246338
433,2411478763,0.89682394,0.049486883,-0.26694494,0.34928265,8.013162612915039,-2.8696625232696533,11.404719352722168,-103.87094116210938,-38.9638671875, -0.8288372159004211
434,2411495430,0.8940582,0.036851462,-0.28440145,0.34411883,7.382847309112549,-4.303237438201904,10.031533241271973,-128.2445831298828,-82.75553131103516, 4.146223068237305
435,2411512097,0.890711,0.026177468,-0.30252463,0.33827156,7.402101516723633,-4.00276517868042,10.161982536315918,-118.86276245117188,-92.80077362060547, -2.3418290615081787
436,2411528764,0.88712394,0.015180483,-0.32083696,0.33142817,7.476802825927734,-3.4973671436309814,12.416167259216309,-123.23918151855469,-93.89900970458984, -7.159382343292236
437,2411545431,0.88305914,0.0014111698,-0.3401982,0.32321867,7.775467395782471,-2.7959542274475098,11.504799842834473,-145.4939422607422,-95.24919128417969, -8.160038948059082
438,2411562098,0.8785867,-0.013518799,-0.35907555,0.31459153,8.882691383361816,-4.480052471160889,12.453326225280762,-152.4461212158203,-90.75360870361328, -7.027637481689453
439,2411578765,0.8746985,-0.022431318,-0.3742466,0.30714607,8.529998779296875,-3.0994906425476074,13.029958724975586,-105.07994079589844,-80.11254119873047, -15.639307975769043
440,2411595432,0.8706518,-0.030205382,-0.38913414,0.2993793,7.764248371124268,-3.237318754196167,13.284513473510742,-98.53495788574219,-81.27896881103516, -20.088401794433594
441,2411612099,0.86651975,-0.033243965,-0.40184686,0.29420692,6.994213581085205,-3.937005043029785,12.098362922668457,-58.84229278564453,-78.92271423339844, -16.5856990814209
442,2411628766,0.86240923,-0.033643607,-0.41304153,0.2907154,6.762075424194336,-3.3952670097351074,11.261035919189453,-35.43278503417969,-75.69224548339844, -13.57762336730957
443,2411645433,0.8585449,-0.032173984,-0.4227673,0.28832868,6.998218536376953,-3.255048990249634,10.942691802978516,-18.26418685913086,-70.41683959960938, -12.50771427154541
444,2411662100,0.85476524,-0.029311057,-0.43138757,0.28709275,7.490756034851074,-4.105859279632568,10.47177505493164,-4.528244495391846,-66.8001708984375, -9.701452255249023
445,2411678767,0.85125566,-0.023978066,-0.43860883,0.28707397,7.585425853729248,-3.709975481033325,10.798800468444824,16.391565322875977,-63.016822814941406, -10.163159370422363
446,2411695434,0.8485528,-0.018147582,-0.4439546,0.2872859,7.415877342224121,-3.292174816131592,10.883001327514648,23.796165466308594,-50.7603874206543, -11.625685691833496
447,2411712101,0.8467557,-0.0145822605,-0.4481558,0.28626674,7.065176010131836,-2.6700260639190674,10.686515808105469,9.1513090133667,-36.840057373046875, -13.558480262756348
448,2411728768,0.8455787,-0.013749359,-0.4517939,0.28406027,7.337545394897461,-3.272456645965576,9.90644359588623,-9.307684898376465,-26.310745239257812, -13.225967407226562
449,2411745435,0.8450516,-0.012522222,-0.45413783,0.28193963,7.742220878601074,-3.892825126647949,8.276718139648438,-4.194177627563477,-17.679304122924805, -15.11809253692627
450,2411762102,0.8447059,-0.011029058,-0.45637646,0.2794118,7.47941255569458,-3.2486538887023926,7.384931564331055,-3.698251724243164,-17.05522918701172, -18.68994903564453
451,2411778769,0.84467983,-0.008995851,-0.4579999,0.27689567,7.350265979766846,-3.6727242469787598,8.192350387573242,0.6707852482795715,-13.570175170898438, -20.907461166381836
452,2411795436,0.84492505,-0.007488982,-0.45926586,0.27408165,7.472035884857178,-3.239732265472412,9.056869506835938,-2.6256909370422363,-9.705631256103516, -21.506898880004883
453,2411812103,0.8456437,-0.004376056,-0.45916045,0.27210203,7.985099792480469,-4.0289764404296875,9.539583206176758,11.919133186340332,-3.423990249633789, -22.580835342407227
454,2411828770,0.84623104,0.0011967728,-0.45848325,0.27144977,7.810204029083252,-3.710752487182617,6.903289794921875,31.473970413208008,-5.272787094116211, -22.407392501831055
455,2411845437,0.84669083,0.00608419,-0.45820838,0.27041253,8.8251371383667,-3.6089398860931396,7.018658638000488,25.542465209960938,-6.772038459777832, -22.279760360717773
456,2411862104,0.8474156,0.009899559,-0.4573904,0.26941255,9.449922561645508,-4.109126567840576,7.940770626068115,20.44068717956543,-0.7931634783744812, -19.224037170410156
457,2411878771,0.84833014,0.014944039,-0.45561713,0.2693061,10.16309642791748,-4.612069129943848,7.425267219543457,32.187950134277344,3.127434730529785, -18.341228485107422
458,2411895438,0.84982866,0.022257555,-0.45192412,0.27029714,11.769721984863281,-5.826496124267578,5.17917013168335,52.410743713378906,12.0716552734375, -20.36792755126953
459,2411912105,0.8523629,0.034371264,-0.44413164,0.2739405,11.0369234085083,-5.2588701248168945,6.544496059417725,96.25861358642578,30.859210968017578, -22.417850494384766
460,2411928772,0.8553555,0.046723794,-0.43437624,0.2783906,9.805032730102539,-2.995596408843994,8.33168888092041,103.80179595947266,43.567169189453125, -19.812925338745117
461,2411945439,0.8586084,0.054806657,-0.42442596,0.2822247,9.367852210998535,-2.684537649154663,8.679878234863281,77.15394592285156,53.44232940673828, -11.264205932617188
462,2411962106,0.862223,0.05946508,-0.41333696,0.2866852,9.755480766296387,-3.934142589569092,8.417523384094238,60.85941696166992,68.06398010253906, 1.2817484140396118
463,2411978773,0.8664243,0.0626857,-0.39976618,0.29251793,9.781416893005371,-2.9918465614318848,8.104626655578613,60.95418167114258,87.83393096923828, 11.279927253723145
464,2411995440,0.87119645,0.062798545,-0.3846818,0.29848528,8.865817070007324,-1.8989542722702026,7.672563552856445,45.654571533203125,104.74848937988281, 18.798542022705078
465,2412012107,0.8762846,0.061280042,-0.36753953,0.30542573,8.861881256103516,-2.081563711166382,7.185396194458008,42.56786346435547,121.70244598388672, 27.409887313842773
466,2412028774,0.88140273,0.05796521,-0.34923896,0.31273264,8.682889938354492,-0.5786901712417603,6.9423828125,35.12777328491211,132.74107360839844, 33.607765197753906
467,2412045441,0.8865798,0.052463114,-0.32985088,0.32003483,8.659067153930664,-0.14645200967788696,6.771504878997803,24.169940948486328,144.25180053710938, 38.318077087402344
468,2412062108,0.8917759,0.044283256,-0.30957112,0.32701787,8.136360168457031,0.4269590377807617,7.172687530517578,9.051802635192871,155.6124725341797, 42.13264465332031
469,2412078775,0.8967767,0.033577427,-0.288932,0.33344063,7.380305767059326,0.7057902812957764,6.771174430847168,-6.804557800292969,163.00430297851562, 44.47600555419922
470,2412095442,0.9013,0.021884324,-0.26769325,0.33988243,6.707200527191162,0.5137207508087158,6.82888650894165,-11.428711891174316,168.121337890625, 47.58039474487305
471,2412112109,0.9053354,0.010454625,-0.24595495,0.346071,5.929438591003418,0.6354005932807922,5.957284927368164,-9.07580280303955,169.75799560546875, 46.654788970947266
472,2412128776,0.9089793,0.0007655927,-0.22307596,0.35212705,4.915370464324951,0.3509353995323181,6.364101409912109,4.215160369873047,172.14907836914062, 43.78689193725586
473,2412145443,0.9122771,-0.006619855,-0.19882947,0.3580136,4.003030776977539,0.6494863629341125,6.7956976890563965,21.6118106842041,174.65835571289062, 40.06829071044922
474,2412162110,0.9153297,-0.014067609,-0.17379911,0.36299828,3.5433380603790283,1.4356868267059326,7.2331156730651855,21.831090927124023,179.47982788085938, 35.16523742675781
475,2412178777,0.9180061,-0.023058208,-0.14857145,0.36696026,3.544353485107422,1.3774170875549316,7.098764419555664,11.241695404052734,184.25872802734375, 31.563478469848633
476,2412195444,0.92027694,-0.032140613,-0.12387764,0.36974603,3.693706512451172,1.2665740251541138,6.864748954772949,7.939752578735352,180.94944763183594, 25.197795867919922
477,2412212111,0.9220481,-0.040482573,-0.10093946,0.37148333,3.57887601852417,0.25819820165634155,5.859948635101318,7.051380634307861,167.84942626953125, 18.821577072143555
478,2412228778,0.9237836,-0.046366334,-0.07859854,0.37188244,2.8307483196258545,-0.04785602539777756,6.321966648101807,20.119733810424805,158.23892211914062, 8.562192916870117
479,2412245445,0.92550623,-0.050748046,-0.057586562,0.37087327,2.051823377609253,-0.27469369769096375,6.549722671508789,25.45479965209961,146.4811248779297, -1.5914154052734375
480,2412262112,0.92714804,-0.053484738,-0.037628625,0.36894485,1.3155771493911743,-0.9640994668006897,6.604607582092285,32.809696197509766,135.92535400390625, -8.271039962768555
481,2412278779,0.92853975,-0.055395853,-0.019244777,0.36657235,0.7655661106109619,-1.1718426942825317,6.510886192321777,33.873199462890625,123.92994689941406, -11.279662132263184
482,2412295446,0.9295246,-0.05634928,-0.0027722237,0.3644193,0.6469934582710266,-1.7591643333435059,5.433150768280029,35.0587158203125,109.19662475585938, -9.728605270385742
483,2412312113,0.93013847,-0.05601466,0.011763369,0.36272097,0.388943612575531,-1.439974308013916,4.988521099090576,38.35456085205078,93.43240356445312, -6.686372756958008
484,2412328780,0.93047553,-0.05502786,0.024001682,0.36140168,-0.5493136644363403,-1.0847753286361694,5.275557994842529,36.70254898071289,77.01045989990234, -4.420443058013916
485,2412345447,0.9306856,-0.053069513,0.033894572,0.36036018,-0.8371893167495728,-1.6102848052978516,4.9504218101501465,37.024688720703125,59.487648010253906, -3.066558837890625
486,2412362114,0.93084455,-0.049656507,0.041414455,0.35964924,-0.9469436407089233,-1.8979243040084839,3.6941325664520264,40.415618896484375,40.56143569946289, -1.3629697561264038
487,2412378781,0.9311164,-0.045190558,0.046264213,0.35894266,-1.722740888595581,-1.3479928970336914,3.4829015731811523,40.66728973388672,20.799413681030273, -2.2325856685638428
488,2412395448,0.931493,-0.040186163,0.04846687,0.35826945,-1.9117965698242188,-1.4908692836761475,4.465591907501221,37.65769958496094,2.4063825607299805, -2.935908555984497
489,2412412115,0.93180925,-0.035219748,0.048475742,0.35796857,-1.9185500144958496,-1.2497766017913818,5.088343620300293,31.930721282958984,-11.70900821685791, -1.0289559364318848
490,2412428782,0.9320606,-0.030680986,0.046789218,0.35795623,-1.921260118484497,-0.8002257943153381,6.271784782409668,24.95696258544922,-21.639509201049805, 0.4232194721698761
491,2412445449,0.93227303,-0.026106803,0.044054992,0.3581128,-1.6111323833465576,-0.7477973103523254,7.385418891906738,22.57229995727539,-28.53162956237793, 1.390500545501709
492,2412462116,0.93237245,-0.021375159,0.040929087,0.35853833,-1.4356555938720703,-0.7353086471557617,8.253779411315918,22.543807983398438,-31.49237060546875, 3.3681321144104004
493,2412478783,0.9322627,-0.015496947,0.038555708,0.35938793,-2.017423629760742,-0.5053927302360535,9.557486534118652,31.628673553466797,-29.53679084777832, 7.031847953796387
494,2412495450,0.9319259,-0.00976643,0.03642286,0.36068338,-2.081812620162964,-0.5662043690681458,8.836499214172363,31.15571403503418,-27.682716369628906, 10.430768013000488
495,2412512117,0.93141556,-0.00196895,0.034683067,0.362296,-2.2893927097320557,-0.6690672636032104,6.170973300933838,45.31188201904297,-30.34284210205078, 13.429879188537598
496,2412528784,0.9302607,0.011377154,0.028876634,0.36558452,-2.270852565765381,-2.6336538791656494,-9.306309700012207,70.34423065185547,-70.17488098144531, 27.035778045654297
497,2412545451,0.928159,0.0280857,0.0040603685,0.37110057,17.2774600982666,-5.322671890258789,-28.50908088684082,43.815303802490234,-200.0206298828125, 45.811676025390625
498,2412562118,0.9266057,0.052995387,-0.022877399,0.37157786,4.7250447273254395,7.776010990142822,14.417125701904297,90.98712921142578,-234.65216064453125, 12.841745376586914
499,2412578785,0.9233828,0.06859092,-0.047912348,0.37465188,5.932254314422607,0.17716434597969055,5.2969255447387695,37.18721008300781,-197.8509521484375, 34.391353607177734
500,2412595452,0.91943485,0.08613498,-0.07160501,0.37695268,3.006162166595459,0.07543401420116425,0.7303769588470459,53.12870407104492,-194.70314025878906, 30.04238510131836
501,2412612119,0.9156822,0.100115314,-0.091012895,0.378444,1.1404262781143188,1.5623728036880493,2.7329015731811523,41.19157791137695,-158.6311798095703, 23.595731735229492
502,2412628786,0.9123823,0.10796925,-0.10751946,0.3799223,2.9596750736236572,-0.9488004446029663,8.356462478637695,9.78945255279541,-124.14208984375, 24.163986206054688
503,2412645453,0.90839916,0.11438456,-0.123146854,0.38283432,6.327146530151367,-1.0173254013061523,9.436981201171875,4.727568626403809,-114.29413604736328, 35.33250045776367
504,2412662120,0.90455544,0.120734535,-0.13812968,0.3848676,7.437737941741943,2.7390897274017334,9.37533950805664,5.267641067504883,-110.5285415649414, 28.96830177307129
505,2412678787,0.90050054,0.1261394,-0.15556143,0.3859902,9.168318748474121,3.2617387771606445,8.654679298400879,-7.846487998962402,-124.04701232910156, 26.80017852783203
506,2412695454,0.89632463,0.12616111,-0.17671806,0.38659596,8.27968692779541,2.8968660831451416,7.6117939949035645,-51.60059356689453,-133.16165161132812, 32.94294738769531
507,2412712121,0.89163727,0.12499241,-0.19908911,0.3869416,7.945802211761475,2.0641911029815674,8.860166549682617,-62.11323547363281,-138.13270568847656, 35.25947952270508
508,2412728788,0.88736594,0.122940175,-0.21975341,0.3862338,8.762957572937012,1.7795130014419556,9.566459655761719,-64.82493591308594,-125.51959228515625, 27.49994659423828
509,2412745455,0.8839482,0.12025424,-0.23770982,0.38427687,9.697978019714355,1.4151304960250854,10.224374771118164,-64.13943481445312,-106.95166015625, 16.353242874145508
510,2412762122,0.8815038,0.11643417,-0.25334853,0.3810629,10.256237030029297,0.8653504848480225,9.788744926452637,-67.7967758178711,-89.18946075439453, 6.1517839431762695
511,2412778789,0.87981486,0.11114011,-0.2678825,0.37658063,10.072927474975586,1.4102766513824463,10.574713706970215,-76.6655044555664,-78.192626953125, -1.7479486465454102
512,2412795456,0.87846005,0.10418546,-0.28229025,0.37116855,10.254197120666504,0.9118388891220093,10.811518669128418,-88.41194915771484,-73.13899993896484, -5.175069332122803
513,2412812123,0.8770228,0.097623944,-0.29629287,0.36539185,10.131702423095703,0.4351779818534851,10.040725708007812,-85.69205474853516,-72.05027770996094, -8.107816696166992
514,2412828790,0.87572086,0.09082644,-0.30978814,0.3590197,10.898566246032715,0.7453609108924866,12.768357276916504,-87.17328643798828,-68.45916748046875, -11.783573150634766
515,2412845457,0.87440115,0.0826603,-0.32302964,0.35247982,9.852361679077148,-0.9888902902603149,12.897528648376465,-95.20072174072266,-63.70429229736328, -9.871671676635742
516,2412862124,0.8731132,0.074308194,-0.3352119,0.34609953,9.206172943115234,-1.588954210281372,13.539334297180176,-93.41112518310547,-56.7977180480957, -9.086322784423828
517,2412878791,0.87231493,0.06450144,-0.3445421,0.34087726,8.293160438537598,-3.511720895767212,13.713300704956055,-92.9443130493164,-34.626102447509766, -1.3527817726135254
518,2412895458,0.8704531,0.056949332,-0.35601255,0.33514714,6.986799716949463,-2.577256917953491,10.08067798614502,-85.11515045166016,-55.67130661010742, -6.309445858001709
519,2412912125,0.86726236,0.05108528,-0.37109295,0.32792774,9.694933891296387,-4.572500228881836,8.69591236114502,-86.41548919677734,-85.12738800048828, -14.854968070983887
520,2412928792,0.8631189,0.048021782,-0.3864638,0.3215057,11.675952911376953,-3.296166181564331,9.136103630065918,-67.89918518066406,-95.3102035522461, -15.028487205505371
521,2412945459,0.859811,0.047252428,-0.3997975,0.3140929,8.158123016357422,-2.5764613151550293,12.598042488098145,-52.634735107421875,-86.35175323486328, -29.4969539642334
522,2412962126,0.856839,0.04083369,-0.41376182,0.30489504,6.273024082183838,-2.099210023880005,14.52775764465332,-92.44693756103516,-77.7505111694336, -25.039255142211914
523,2412978793,0.85409045,0.032797843,-0.426382,0.29606146,6.872949123382568,-4.170300006866455,12.045554161071777,-98.24346923828125,-66.07186126708984, -19.121566772460938
524,2412995460,0.8518061,0.025394218,-0.43642658,0.28864127,7.4851226806640625,-4.717589378356934,10.678792953491211,-85.22957611083984,-50.81990051269531, -14.255664825439453
525,2413012127,0.84965026,0.021021618,-0.4443832,0.2831541,7.3416829109191895,-4.879716873168945,9.965657234191895,-57.517578125,-44.08363342285156, -12.7275390625
526,2413028794,0.8479537,0.019376863,-0.45047522,0.27869585,8.049765586853027,-4.408342361450195,10.816746711730957,-34.83789825439453,-37.12840270996094, -16.312829971313477
527,2413045461,0.84667236,0.020530438,-0.45408753,0.2766392,7.833302974700928,-4.917812347412109,10.636651992797852,-6.379861831665039,-26.61978530883789, -12.187610626220703
528,2413062128,0.8456558,0.024819754,-0.45563492,0.27685305,7.820415019989014,-3.7143478393554688,10.520964622497559,22.87797737121582,-19.609176635742188, -9.665907859802246
529,2413078795,0.8450649,0.027269652,-0.45665976,0.27673775,8.363678932189941,-3.205918550491333,10.68364429473877,12.061334609985352,-11.980597496032715, -6.7907538414001465
530,2413095462,0.8453844,0.031076038,-0.4555126,0.2772509,7.944105625152588,-2.301863193511963,9.874811172485352,25.854736328125,0.8549476265907288, -9.585321426391602
531,2413112129,0.8461516,0.034073155,-0.4538336,0.27731168,7.428646564483643,-3.098416566848755,9.954398155212402,20.61628532409668,6.635129928588867, -10.664457321166992
532,2413128796,0.8471933,0.03792466,-0.45117855,0.27796292,7.374075412750244,-3.147162914276123,9.406333923339844,29.21623992919922,11.50623607635498, -10.699028968811035
533,2413145463,0.84848523,0.041602846,-0.44791257,0.2787768,7.565789222717285,-2.7923340797424316,9.215834617614746,29.807506561279297,16.067371368408203, -9.911543846130371
534,2413162130,0.8500839,0.045177862,-0.44361392,0.28022018,8.029650688171387,-3.5822391510009766,7.886466979980469,33.03269577026367,23.282739639282227, -6.845700263977051
535,2413178797,0.8519998,0.04949293,-0.43818247,0.28221124,8.291372299194336,-2.968794822692871,8.368782997131348,41.153907775878906,29.552173614501953, -6.9235734939575195
536,2413195464,0.8542277,0.053249527,-0.43215224,0.2840851,9.22432804107666,-3.112342119216919,8.541357040405273,38.60675048828125,34.97425842285156, -6.773383140563965
537,2413212131,0.8568503,0.057440437,-0.42467153,0.2866402,9.52640151977539,-3.7629804611206055,7.440412521362305,45.88510513305664,44.02979278564453, -5.413450241088867
538,2413228798,0.85976356,0.06314386,-0.4155415,0.29007795,9.686668395996094,-3.001771926879883,7.007962226867676,60.58138656616211,51.977901458740234, -5.903207302093506
539,2413245465,0.86282384,0.06868117,-0.40544292,0.29399705,9.53895092010498,-2.912111759185791,7.611002445220947,62.89011001586914,58.70679473876953, -3.327484130859375
540,2413262132,0.8658538,0.07254297,-0.3948926,0.29848772,10.37707805633545,-2.923394203186035,7.670668125152588,55.52183151245117,64.98528289794922, 4.553037643432617
541,2413278799,0.8690094,0.073845774,-0.38368365,0.3035733,10.04040241241455,-2.854219913482666,8.487287521362305,43.243988037109375,74.857177734375, 14.425299644470215
542,2413295466,0.8724901,0.073021576,-0.37117922,0.30928162,10.027469635009766,-2.2756621837615967,8.438210487365723,34.76577377319336,88.24623107910156, 22.38838005065918
543,2413312133,0.8765303,0.07000532,-0.35707015,0.31511134,9.823185920715332,-1.716467022895813,7.873287677764893,25.100990295410156,104.07221984863281, 26.711946487426758
544,2413328800,0.8807879,0.066716224,-0.34070036,0.32200205,9.348334312438965,-1.2011072635650635,7.017851829528809,30.883623123168945,119.41027069091797, 32.22995376586914
545,2413345467,0.88516587,0.061936427,-0.32280493,0.32930604,8.921595573425293,-0.469951331615448,7.482590675354004,26.157569885253906,132.52674865722656, 37.28101348876953
546,2413362134,0.88939846,0.05552072,-0.30412492,0.33674338,9.169351577758789,-0.44752275943756104,7.223995685577393,18.325786590576172,140.8330841064453, 41.76802062988281
547,2413378801,0.8934315,0.048271768,-0.28449756,0.34425506,8.673396110534668,0.18835651874542236,6.573243141174316,15.642926216125488,148.2955322265625, 44.11176681518555
548,2413395468,0.8972154,0.04055448,-0.26393571,0.35170707,8.001148223876953,0.9436953067779541,6.653112888336182,14.913290023803711,154.78396606445312, 45.00543212890625
549,2413412135,0.9007037,0.03178728,-0.24285991,0.35880554,7.008500576019287,1.4814743995666504,6.955928802490234,9.056031227111816,159.99545288085938, 45.372859954833984
550,2413428802,0.90404975,0.022134168,-0.22121628,0.36505833,5.869125843048096,2.162177324295044,6.755712509155273,3.4986379146575928,165.38531494140625, 41.91284942626953
551,2413445469,0.90724397,0.0132202525,-0.19841099,0.3706307,4.712052822113037,1.5798211097717285,7.0115156173706055,9.878594398498535,170.5032501220703, 36.83531188964844
552,2413462136,0.91026986,0.005893709,-0.17445019,0.3754217,4.053805828094482,1.4693551063537598,7.371026039123535,21.5728759765625,173.42088317871094, 30.15938377380371
553,2413478803,0.9131611,-0.00068036286,-0.14963539,0.37913796,3.5196421146392822,1.2966620922088623,7.264475345611572,27.10173988342285,176.6590576171875, 22.866132736206055
554,2413495470,0.9158229,-0.0074920366,-0.1242118,0.38181636,3.182058811187744,1.1288785934448242,7.755202770233154,26.03493881225586,180.90792846679688, 17.20606231689453
555,2413512137,0.91822207,-0.015054991,-0.09919567,0.38314724,3.4498839378356934,0.9388834834098816,6.799375057220459,18.981142044067383,180.19464111328125, 10.025710105895996
556,2413528804,0.92028916,-0.022854878,-0.074505225,0.38339928,3.3358495235443115,0.20185239613056183,6.25433874130249,15.784248352050781,178.71934509277344, 4.21342134475708
557,2413545471,0.9220633,-0.029234968,-0.050927762,0.38255873,2.744920253753662,-0.43114593625068665,5.938991546630859,21.190814971923828,168.0385284423828, -2.8412349224090576
558,2413562138,0.9235557,-0.03372401,-0.028509263,0.38091353,2.13108491897583,-1.2484406232833862,5.751708984375,29.784269332885742,155.8521728515625, -8.121689796447754
559,2413578805,0.9245729,-0.038087543,-0.008028129,0.37901217,1.31844961643219,-1.086513638496399,6.094237804412842,25.375791549682617,143.24375915527344, -8.994905471801758
560,2413595472,0.9250526,-0.042811725,0.010671519,0.3772683,0.872212290763855,-1.0526567697525024,5.329366207122803,18.33241081237793,132.81895446777344, -7.058501243591309
561,2413612139,0.92499524,-0.048957366,0.027264161,0.37582418,0.15670861303806305,-0.5739094018936157,5.705949783325195,3.673499584197998,123.07708740234375, -4.493770599365234
562,2413628806,0.9244584,-0.055644307,0.041300226,0.37493306,-0.4806725084781647,-0.3823918104171753,5.283316135406494,-6.631747722625732,108.11898803710938, -0.708899199962616
563,2413645473,0.92380184,-0.061175533,0.052998185,0.37421834,-0.9107503294944763,-0.8655280470848083,4.777618408203125,-5.405523777008057,90.22297668457031, 0.14752699434757233
564,2413662140,0.92328453,-0.06434641,0.06301636,0.37340945,-1.565137505531311,-0.6014509201049805,5.109047889709473,5.382354736328125,73.43451690673828, -0.6602310538291931
565,2413678807,0.9229475,-0.065101035,0.070688814,0.37273732,-2.0502207279205322,-1.0077794790267944,3.577315092086792,14.732457160949707,52.14799880981445, -0.2605094611644745
566,2413695474,0.9229793,-0.06274245,0.07580342,0.37205732,-2.2853362560272217,-0.48207327723503113,1.7357118129730225,28.13625144958496,27.683095932006836, -0.8953863978385925
567,2413712141,0.9233391,-0.058507886,0.07780071,0.37144166,-2.4716906547546387,-0.10770082473754883,1.7506067752838135,32.1937255859375,2.803518533706665, -1.7065677642822266
568,2413728808,0.9240665,-0.051037584,0.07793886,0.37070483,-2.585228443145752,0.09354991465806961,2.5390100479125977,48.20469665527344,-17.515674591064453, -2.4485583305358887
569,2413745475,0.9249025,-0.04176228,0.07632166,0.37011695,-2.589641571044922,-0.3582230806350708,3.8905858993530273,55.1529541015625,-33.4818115234375, -1.4452818632125854
570,2413762142,0.9257082,-0.030689208,0.07381666,0.36969444,-2.2032814025878906,-0.46359479427337646,6.1525115966796875,64.24439239501953,-43.82551574707031, 0.36423954367637634
571,2413778809,0.9263603,-0.019566575,0.07083276,0.36940047,-2.265315055847168,-0.9112617373466492,8.581121444702148,63.26469802856445,-47.008934020996094, 1.488770604133606
572,2413795476,0.9267015,-0.00934347,0.06735333,0.36959568,-2.274735450744629,-0.829098105430603,8.652099609375,56.0383186340332,-47.8438835144043, 4.892201900482178
573,2413812143,0.92686063,-0.0005557468,0.06199161,0.3702517,-2.3240416049957275,-0.6089367270469666,5.717433452606201,41.93019104003906,-56.187896728515625, 7.4971537590026855
574,2413828810,0.92674994,0.00921062,0.051172208,0.37206364,-2.1471595764160156,-3.6421875953674316,-5.911080360412598,33.81553268432617,-93.42359161376953, 15.957182884216309
575,2413845477,0.92645127,0.019043583,0.024489544,0.37513453,12.1842622756958,-3.4659459590911865,-21.022886276245117,-6.637613296508789,-194.664306640625, 25.503501892089844
576,2413862144,0.92523354,0.038828533,-0.0059682266,0.37735912,9.195457458496094,2.6786816120147705,11.021259307861328,47.38341522216797,-243.92922973632812, 24.64166831970215
577,2413878811,0.922724,0.05140129,-0.03566387,0.38035092,2.9258127212524414,3.095939874649048,11.696261405944824,3.772620439529419,-219.85414123535156, 32.936912536621094
578,2413895478,0.9185658,0.06846868,-0.0627874,0.38419652,3.569164752960205,-3.84261417388916,-1.126574158668518,39.7299919128418,-215.33226013183594, 40.651676177978516
579,2413912145,0.9139548,0.08756416,-0.08445174,0.38715258,0.48265400528907776,-1.1987075805664062,1.765597939491272,66.94355010986328,-186.68992614746094, 32.732330322265625
580,2413928812,0.91011745,0.0993428,-0.10308564,0.38883242,0.8424807786941528,-2.7282750606536865,5.393786907196045,27.870746612548828,-148.49630737304688, 25.039566040039062
581,2413945479,0.90590346,0.11030542,-0.11728577,0.3916836,5.153133392333984,-2.0310142040252686,9.892305374145508,35.82544708251953,-118.07601928710938, 30.876468658447266
582,2413962146,0.9019008,0.11839496,-0.13104413,0.39418936,6.687165260314941,1.0911809206008911,8.695207595825195,18.793636322021484,-107.61834716796875, 30.082584381103516
583,2413978813,0.8982389,0.12529373,-0.14439732,0.39574993,6.368876934051514,1.3045819997787476,8.68754768371582,11.36813735961914,-102.22978210449219, 24.00840950012207
584,2413995480,0.8945219,0.1289609,-0.15934117,0.39725378,7.635502815246582,1.6933810710906982,6.785645484924316,-12.934828758239746,-103.2791519165039, 28.39143943786621
585,2414012147,0.8905713,0.13061707,-0.17594469,0.39857948,7.808300018310547,4.785434722900391,6.34235143661499,-29.860931396484375,-108.27372741699219, 31.60599136352539
586,2414028814,0.88659865,0.13047017,-0.19413584,0.3990388,8.953457832336426,3.25515079498291,9.064813613891602,-46.425018310546875,-113.73424530029297, 30.0279541015625
587,2414045481,0.8830539,0.1290516,-0.21178392,0.39838368,9.513090133666992,1.619273066520691,9.51527214050293,-54.632568359375,-107.2602767944336, 23.331506729125977
588,2414062148,0.8805646,0.12648502,-0.2274703,0.39606237,10.1580228805542,2.39001727104187,9.741659164428711,-59.62444305419922,-92.05661010742188, 10.28915786743164
589,2414078815,0.8790681,0.1202864,-0.24288712,0.39214388,10.209760665893555,1.8644099235534668,10.016119956970215,-84.3012466430664,-80.28880310058594, 3.4346799850463867
590,2414095482,0.8785927,0.10968245,-0.25838977,0.38636726,9.91900634765625,1.5292541980743408,11.142745971679688,-115.1540298461914,-68.70712280273438, -3.030686616897583
591,2414112149,0.8782675,0.096362956,-0.27431694,0.3796194,9.510095596313477,-0.37179023027420044,10.949267387390137,-134.5815887451172,-64.520751953125, -4.065425872802734
592,2414128816,0.8778335,0.08243854,-0.289606,0.37247944,9.017765998840332,-1.2552437782287598,10.630571365356445,-137.22340393066406,-59.57679748535156, -5.33618688583374
593,2414145483,0.8768367,0.070055425,-0.30455762,0.3653692,9.622293472290039,-2.0334410667419434,10.406460762023926,-126.65377044677734,-62.6373291015625, -6.903966903686523
594,2414162150,0.87586063,0.058869638,-0.3178499,0.35829335,9.603691101074219,-2.329164505004883,13.246214866638184,-115.18480682373047,-55.61658477783203, -10.016682624816895
595,2414178817,0.8757484,0.04585064,-0.32654646,0.35260493,10.122846603393555,-3.624112367630005,14.014815330505371,-112.22715759277344,-21.074954986572266, -1.6295802593231201
596,2414195484,0.8745465,0.034830697,-0.33758318,0.34640002,7.642626762390137,-1.9190138578414917,11.687795639038086,-106.63282012939453,-42.73577117919922, -5.813034534454346
597,2414212151,0.87205195,0.024152774,-0.35312545,0.33800137,8.018256187438965,-3.9104020595550537,9.557340621948242,-120.1007080078125,-74.30438995361328, -15.597295761108398
598,2414228818,0.8683064,0.019226853,-0.3697392,0.33010226,9.11550235748291,-4.68443489074707,7.8734965324401855,-86.66104125976562,-97.1283187866211, -23.50563621520996
599,2414245485,0.8639284,0.020832613,-0.38522166,0.32372588,9.067728042602539,-5.783409595489502,9.38231086730957,-41.08407974243164,-106.63646697998047, -29.752714157104492
600,2414262152,0.85946375,0.024890788,-0.39978728,0.31760508,7.710178852081299,-1.4844871759414673,14.495377540588379,-23.732458114624023,-106.90809631347656, -34.733177185058594
601,2414278819,0.8551843,0.023436308,-0.41507217,0.30955786,8.241106033325195,-3.3046085834503174,15.052876472473145,-63.28561782836914,-99.14908599853516, -31.242002487182617
602,2414295486,0.8513825,0.02295583,-0.42726612,0.30342165,7.913848400115967,-4.904045581817627,12.712177276611328,-45.6328239440918,-81.58909606933594, -24.31724739074707
603,2414312153,0.84761333,0.022116402,-0.43830627,0.29824558,7.972265243530273,-4.467341423034668,11.649333000183105,-42.50370788574219,-74.00714111328125, -17.950639724731445
604,2414328820,0.8439727,0.022062713,-0.44767126,0.29464236,8.449797630310059,-5.546488285064697,11.54746150970459,-29.772842407226562,-65.37152862548828, -11.72559642791748
605,2414345487,0.84111047,0.024564702,-0.454027,0.29289824,8.232583045959473,-4.537412166595459,11.445958137512207,-3.21889328956604,-50.542091369628906, -10.901815414428711
606,2414362154,0.8385492,0.027540231,-0.45952454,0.29140055,7.951901435852051,-3.67889666557312,11.2281494140625,1.9629276990890503,-45.682071685791016, -11.757843017578125
607,2414378821,0.83653843,0.031931214,-0.4630524,0.29114747,7.51942253112793,-3.6894092559814453,9.732528686523438,17.881052017211914,-35.31329345703125, -10.565901756286621
608,2414395488,0.8348231,0.03562065,-0.46617666,0.29065666,7.320467948913574,-2.9333977699279785,9.293795585632324,13.832667350769043,-30.799419403076172, -10.411441802978516
609,2414412155,0.83405674,0.03986616,-0.46721652,0.29063538,7.1878204345703125,-3.3651421070098877,9.41697883605957,22.443300247192383,-16.877134323120117, -11.930910110473633
610,2414428822,0.8338975,0.044432316,-0.4664438,0.29166943,7.368744850158691,-3.7693870067596436,10.14297103881836,31.121498107910156,-4.974094390869141, -8.648287773132324
611,2414445489,0.83440423,0.05046815,-0.46371394,0.29358497,7.03765344619751,-2.2321465015411377,10.283260345458984,46.09792709350586,5.608489513397217, -10.273027420043945
612,2414462156,0.83554256,0.052419588,-0.4617885,0.29304004,7.180912017822266,-1.6410845518112183,8.768869400024414,12.961793899536133,10.301000595092773, -12.365560531616211
613,2414478823,0.83732533,0.05158539,-0.4592624,0.29206824,7.491250514984131,-3.0268256664276123,8.140579223632812,-3.433683156967163,21.197052001953125, -7.483442306518555
614,2414495490,0.83920103,0.051549472,-0.45550242,0.29257894,7.309079647064209,-2.6276605129241943,8.187047958374023,8.291488647460938,27.479272842407227, -2.11453914642334
615,2414512157,0.8408907,0.051912833,-0.45183972,0.2933414,8.291276931762695,-2.250023365020752,7.275219440460205,11.257548332214355,25.583602905273438, -1.512331485748291
616,2414528824,0.8425718,0.051505115,-0.4479449,0.2945601,8.832942008972168,-2.8304221630096436,7.420212745666504,8.683725357055664,28.6132869720459, 3.4519433975219727
617,2414545491,0.8444574,0.051993072,-0.44299492,0.2965539,9.264741897583008,-2.0157904624938965,7.657620429992676,18.337644577026367,33.816951751708984, 4.3938751220703125
618,2414562158,0.8465377,0.052899294,-0.43716013,0.2991101,9.837623596191406,-3.2511696815490723,6.707310676574707,24.215137481689453,38.89889144897461, 5.685543060302734
619,2414578825,0.8491374,0.056606308,-0.42857057,0.30346146,10.59648323059082,-3.16729474067688,6.390685558319092,51.399864196777344,51.418453216552734, 5.633688926696777
620,2414595492,0.8520411,0.06098381,-0.41829675,0.30876404,9.897771835327148,-2.0385944843292236,6.421263694763184,61.5286865234375,61.16463088989258, 7.91848611831665
621,2414612159,0.8553367,0.06306022,-0.40735778,0.31381896,9.620594024658203,-1.5806266069412231,6.698295593261719,48.594120025634766,71.0062255859375, 11.991198539733887
622,2414628826,0.8587452,0.06389066,-0.39542338,0.31955516,9.532862663269043,-1.9701308012008667,6.782070636749268,45.272621154785156,80.19330596923828, 18.82673454284668
623,2414645493,0.8623499,0.063085385,-0.3826752,0.32547322,9.357285499572754,-1.3490734100341797,6.8138651847839355,37.812461853027344,89.24102020263672, 23.562223434448242
624,2414662160,0.86610925,0.061107695,-0.3688515,0.33176693,9.097384452819824,-1.1274093389511108,6.913907051086426,34.190460205078125,98.8470458984375, 28.079410552978516
625,2414678827,0.8700692,0.056475945,-0.3545421,0.337772,8.900344848632812,-0.30931130051612854,6.859685897827148,18.672395706176758,108.21700286865234, 32.44545364379883
626,2414695494,0.8743415,0.05100779,-0.33885264,0.34366322,9.023233413696289,-0.21836638450622559,6.387276649475098,16.459728240966797,119.17150115966797, 32.56493377685547
627,2414712161,0.878781,0.045153324,-0.32216376,0.34916466,8.589829444885254,0.17639493942260742,6.2848591804504395,15.517001152038574,126.39668273925781, 30.400711059570312
628,2414728828,0.8831113,0.03996212,-0.30441615,0.35475132,8.247920036315918,-0.2246389538049698,5.47313928604126,22.266937255859375,131.03704833984375, 29.402034759521484
629,2414745495,0.88740164,0.035718687,-0.28515586,0.3604567,7.599307537078857,0.03636310622096062,5.77290678024292,31.95754623413086,137.91944885253906, 27.83544158935547
630,2414762162,0.8915745,0.030624455,-0.26529947,0.36575076,6.445473670959473,0.5393637418746948,6.800209999084473,27.451744079589844,143.3843994140625, 27.156702041625977
631,2414778829,0.8955158,0.02396281,-0.24520516,0.3706105,5.716322898864746,0.340778648853302,7.094366073608398,17.670454025268555,148.2999267578125, 27.897680282592773
632,2414795496,0.8991843,0.015613708,-0.22491543,0.37501633,4.80605936050415,0.9394788146018982,7.0512375831604,7.036559104919434,153.28855895996094, 28.62288475036621
633,2414812163,0.902494,0.0052603213,-0.20489982,0.37880522,4.009725093841553,0.4037148952484131,6.689672946929932,-7.012216091156006,156.1551513671875, 28.86380958557129
634,2414828830,0.9054334,-0.0047297003,-0.18451393,0.38226065,3.7160351276397705,0.01390921138226986,6.254020690917969,-4.266983985900879,156.98016357421875, 27.244918823242188
635,2414845497,0.90804404,-0.0144468555,-0.1644904,0.38495559,3.6784584522247314,-0.10865727812051773,5.557231903076172,-4.51037073135376,153.62660217285156, 23.015104293823242
636,2414862164,0.9103856,-0.02297752,-0.14450589,0.3870251,3.8149614334106445,-0.6613337397575378,5.652829170227051,2.050173759460449,150.02037048339844, 18.474512100219727
637,2414878831,0.9125454,-0.03021087,-0.12482835,0.38828638,3.19343638420105,-0.21009090542793274,7.131153106689453,8.522064208984375,144.6182098388672, 12.562152862548828
638,2414895498,0.9146235,-0.036512755,-0.10580525,0.38850498,2.4034125804901123,-0.2731364667415619,7.43856143951416,11.694804191589355,138.18511962890625, 5.2971110343933105
639,2414912165,0.91651565,-0.041452207,-0.086917356,0.3882351,1.7819476127624512,-0.9724751114845276,7.792115688323975,19.48824691772461,133.68734741210938, 1.690310001373291
640,2414928832,0.9181493,-0.045266017,-0.06873032,0.3875945,1.662611961364746,-1.309931755065918,7.557926177978516,24.41693687438965,126.21421813964844, -0.8271333575248718
641,2414945499,0.91951305,-0.04739903,-0.05136176,0.38679662,1.1435680389404297,-1.7929069995880127,6.701546669006348,32.693973541259766,116.4927978515625, -2.1680219173431396
642,2414962166,0.9206008,-0.047791835,-0.035312563,0.38595822,0.6562415361404419,-1.5777106285095215,6.330599784851074,40.100364685058594,103.43830871582031, -2.7425732612609863
643,2414978833,0.9213414,-0.04727302,-0.02082615,0.3853074,0.3779946565628052,-1.5552921295166016,5.906641960144043,41.67061996459961,90.9765396118164, -1.37528395652771
644,2414995500,0.9217898,-0.046842873,-0.008241645,0.3847617,-0.09788763523101807,-0.8067214488983154,5.378974914550781,36.007423400878906,79.08147430419922, -0.5456930994987488
645,2415012167,0.9219487,-0.04760144,0.0015148008,0.38437307,-0.4025300443172455,-0.8294273018836975,4.746115684509277,20.914609909057617,64.224609375, 0.36804115772247314
646,2415028834,0.92193633,-0.049134012,0.008315402,0.3841226,-0.9543208479881287,-0.6463334560394287,4.274041652679443,8.14831829071045,47.47676467895508, 0.7163994908332825
647,2415045501,0.9217717,-0.05100302,0.012642417,0.38415694,-1.3726171255111694,-1.0283122062683105,4.9569854736328125,-0.57777339220047,32.57818603515625, 2.0651659965515137
648,2415062168,0.92157716,-0.051613737,0.015272843,0.38444602,-1.3065621852874756,-1.443267822265625,5.181938171386719,2.894911050796509,18.39108657836914, 3.271456480026245
649,2415078835,0.92137784,-0.0497886,0.016717574,0.3851035,-1.193251371383667,-1.9934223890304565,5.471530437469482,15.172191619873047,4.287717819213867, 5.454748630523682
650,2415095502,0.9212255,-0.045638878,0.017359417,0.3859527,-1.592324137687683,-1.504772663116455,6.5537848472595215,27.791706085205078,-7.0429253578186035, 6.539179801940918
651,2415112169,0.92092633,-0.039881285,0.017544538,0.38729393,-1.8371504545211792,-1.3887869119644165,7.808562755584717,36.67578887939453,-14.362159729003906, 10.091198921203613
652,2415128836,0.92043155,-0.03302204,0.017111711,0.38913095,-1.613463044166565,-1.8679641485214233,7.8322577476501465,41.90680694580078,-21.345664978027344, 13.71024227142334
653,2415145503,0.9197979,-0.024159174,0.016349025,0.39130703,-1.6526416540145874,-1.8740544319152832,8.006414413452148,53.6552619934082,-28.87617301940918, 16.391889572143555
654,2415162170,0.91906744,-0.01459183,0.014657513,0.3935577,-1.654363989830017,-1.6398149728775024,8.29887580871582,55.61106491088867,-36.66920852661133, 17.046428680419922
655,2415178837,0.91819865,-0.005289073,0.012529346,0.3958871,-1.627242922782898,-1.2388373613357544,8.635169982910156,52.7570915222168,-38.72922897338867, 17.85178565979004
656,2415195504,0.91708547,0.0046298583,0.00977084,0.39854443,-1.6633758544921875,-1.6993966102600098,6.2284698486328125,54.91115188598633,-44.39984130859375, 20.611793518066406
657,2415212171,0.9156836,0.01800953,0.00094042363,0.4014955,-0.5781798362731934,-2.391561508178711,-11.767061233520508,60.11051559448242,-92.16806030273438, 23.676057815551758
658,2415228838,0.91405576,0.030392637,-0.027389716,0.40352017,15.903426170349121,1.5207514762878418,-22.23396873474121,0.07049104571342468,-212.333740234375, 20.88249397277832
659,2415245505,0.91057724,0.048546962,-0.05607813,0.4066298,2.6954033374786377,0.9087700843811035,12.874401092529297,35.9051628112793,-230.46998596191406, 31.801313400268555
660,2415262172,0.90565383,0.06649293,-0.07983946,0.4110908,5.129511833190918,-1.3054137229919434,4.146265029907227,49.371734619140625,-199.1210174560547, 42.72441482543945
661,2415278839,0.9009333,0.08535389,-0.1012977,0.41324675,1.7599538564682007,-1.028902530670166,0.051192231476306915,60.24592208862305,-188.24400329589844, 26.23483657836914
662,2415295506,0.89634717,0.101392485,-0.11798621,0.4151636,0.9889485836029053,0.9796380996704102,3.021254301071167,56.07712936401367,-150.69798278808594, 23.510929107666016
663,2415312173,0.89213496,0.111869074,-0.13428761,0.4165904,4.380270481109619,-0.13965702056884766,7.975100994110107,22.230775833129883,-132.47613525390625, 23.66413116455078
664,2415328840,0.8879769,0.118046395,-0.1512981,0.41793737,9.01340103149414,0.7951489686965942,8.813080787658691,-6.276740550994873,-124.50399780273438, 27.527484893798828
665,2415345507,0.8833675,0.12257033,-0.1709739,0.41881573,9.676464080810547,1.8095284700393677,10.591750144958496,-24.158065795898438,-136.802978515625, 29.829124450683594
666,2415362174,0.87795806,0.12866,-0.19118807,0.4196234,9.82397174835205,4.288691520690918,7.315301895141602,-15.620161056518555,-145.5171661376953, 30.321029663085938
667,2415378841,0.8724419,0.13255075,-0.21288624,0.41947052,9.734623908996582,4.484321117401123,8.286102294921875,-34.39848709106445,-149.04286193847656, 29.052934646606445
668,2415395508,0.866968,0.13542537,-0.23411219,0.41859087,10.294899940490723,2.069969654083252,9.44739055633545,-40.28974533081055,-143.81637573242188, 25.65349769592285
669,2415412175,0.862611,0.13655463,-0.25308844,0.41617528,10.952183723449707,2.4954781532287598,10.457745552062988,-47.752891540527344,-124.95838165283203, 14.013927459716797
670,2415428842,0.85949117,0.13427594,-0.27038068,0.41248015,11.012935638427734,2.089872360229492,10.36905288696289,-66.56661987304688,-104.22067260742188, 7.2553486824035645
671,2415445509,0.8574542,0.12749302,-0.2871804,0.40748698,11.388752937316895,1.2993900775909424,10.10732650756836,-95.21849822998047,-87.68401336669922, 4.475693225860596
672,2415462176,0.85578656,0.118468076,-0.30362538,0.40175456,10.794914245605469,0.5374429821968079,9.669146537780762,-109.24417877197266,-79.19221496582031, 3.233868360519409
673,2415478843,0.8540062,0.10896329,-0.31953046,0.39585516,10.241616249084473,-0.33445975184440613,9.83033561706543,-110.84954833984375,-75.03406524658203, 3.1533596515655518
674,2415495510,0.85252506,0.09978974,-0.3338779,0.38957554,10.077670097351074,-0.5214003920555115,12.33144474029541,-105.71178436279297,-66.40487670898438, -1.7398126125335693
675,2415512177,0.85127664,0.0908421,-0.34700283,0.38296932,10.16038703918457,-1.4535188674926758,12.777721405029297,-102.0368423461914,-59.554115295410156, -5.6138505935668945
676,2415528844,0.85077983,0.08030262,-0.35773715,0.37649676,8.981404304504395,-2.4161641597747803,14.916376113891602,-105.21077728271484,-39.522640228271484, -4.481691360473633
677,2415545511,0.85072494,0.06630435,-0.36703795,0.37034404,8.035205841064453,-3.413710355758667,14.450355529785156,-121.1893310546875,-20.992033004760742, 3.9750146865844727
678,2415562178,0.8496351,0.05067315,-0.38100567,0.36109203,7.926487445831299,-3.1662144660949707,8.090197563171387,-149.96340942382812,-48.241737365722656, -5.256864547729492
679,2415578845,0.84700686,0.03997943,-0.39628866,0.3520466,9.468064308166504,-6.340942859649658,5.654923915863037,-123.29342651367188,-72.15528869628906, -12.701530456542969
680,2415595512,0.84312624,0.032623913,-0.4120879,0.34388658,13.469260215759277,-4.519801616668701,5.8215460777282715,-102.28462982177734,-86.38287353515625, -13.483833312988281
681,2415612179,0.8398255,0.03294495,-0.42393994,0.33746547,6.110987186431885,-2.956160306930542,12.491621971130371,-43.621150970458984,-79.54719543457031, -27.399986267089844
682,2415628846,0.8369223,0.02601145,-0.43756264,0.32775584,7.029574871063232,-0.6598927974700928,14.976875305175781,-99.31417083740234,-72.62592315673828, -25.76761817932129
683,2415645513,0.83518285,0.015734896,-0.44897717,0.31724155,6.923342704772949,-3.723472833633423,12.882049560546875,-116.25614929199219,-49.15586471557617, -23.326189041137695
684,2415662180,0.8341809,0.007657091,-0.4564768,0.3093748,7.206702709197998,-4.7842936515808105,11.798648834228516,-87.01421356201172,-29.010883331298828, -16.954410552978516
685,2415678847,0.8340323,0.003595194,-0.46085173,0.3033039,7.1863579750061035,-4.042026996612549,10.547796249389648,-51.73976135253906,-16.95002555847168, -21.2590274810791
686,2415695514,0.83441705,0.002572032,-0.46313858,0.29873857,7.135566234588623,-4.855547904968262,9.018829345703125,-25.218461990356445,-9.656452178955078, -23.441972732543945
687,2415712181,0.834965,0.0073846634,-0.4623056,0.29841685,6.991520404815674,-5.083906173706055,5.948600769042969,28.193862915039062,-3.20501971244812, -18.095651626586914
688,2415728848,0.835189,0.012856776,-0.46162856,0.29865298,7.707314968109131,-4.1267008781433105,7.037062168121338,33.47049331665039,-6.4646782875061035, -16.356903076171875
689,2415745515,0.8355166,0.019098375,-0.4598736,0.30010685,7.594470024108887,-3.4417989253997803,8.661534309387207,43.96944046020508,-1.4385604858398438, -12.136778831481934
690,2415762182,0.8361842,0.026934534,-0.45686778,0.30223018,7.6014485359191895,-3.272841453552246,10.370198249816895,57.77904510498047,3.5782344341278076, -14.215071678161621
