PacketCounter,SampleTimeFine,Quat_W,Quat_X,Quat_Y,Quat_Z,Acc_X,Acc_Y,Acc_Z,Gyr_X,Gyr_Y,Gyr_Z 
1,3483326815,0.29730585,-0.6990909,-0.20601606,-0.616797,-0.11548125743865967,0.1986446976661682,-1.0604684352874756,1.993285059928894,-0.28770434856414795, -0.778277575969696
2,3483343482,0.26761812,-0.6908623,-0.23911117,-0.62762713,7.069615364074707,5.289227485656738,-0.024507082998752594,4.2153496742248535,-134.61927795410156, -45.36384201049805
3,3483360149,0.22219686,-0.6811193,-0.2811394,-0.6384872,9.068465232849121,5.341624736785889,-3.1346898078918457,-3.9511983394622803,-120.6123275756836, -36.74170684814453
4,3483376816,0.1799256,-0.68134695,-0.32134917,-0.63255656,11.703034400939941,3.1365370750427246,-3.1171133518218994,21.00823211669922,-113.38690948486328, -26.967533111572266
5,3483393483,0.15559343,-0.6863747,-0.34881195,-0.6188785,11.23493480682373,-0.5815600752830505,-1.0581861734390259,47.2398681640625,-103.60487365722656, -15.790287971496582
6,3483410150,0.1489017,-0.69186795,-0.36125576,-0.6071586,10.489570617675781,0.6297947764396667,-0.9371991157531738,48.708396911621094,-86.10359191894531, -12.903681755065918
7,3483426817,0.14718944,-0.6964323,-0.36798498,-0.59825116,11.525907516479492,0.6904615163803101,-2.1402807235717773,39.35804748535156,-76.40959167480469, -14.602510452270508
8,3483443484,0.14753269,-0.7008742,-0.37259278,-0.5900715,12.696494102478027,0.5592028498649597,-1.8609564304351807,34.28804016113281,-69.90582275390625, -18.67350196838379
9,3483460151,0.15108077,-0.70492065,-0.37569258,-0.5823371,13.74873161315918,-2.5217602252960205,-1.5636602640151978,41.050514221191406,-64.72286987304688, -12.002786636352539
10,3483476818,0.16075961,-0.70862806,-0.37682477,-0.5744614,13.563342094421387,-1.864370584487915,-0.052959319204092026,57.82539367675781,-55.11055374145508, -2.2740232944488525
11,3483493485,0.17524049,-0.7112537,-0.3778382,-0.56625754,13.272292137145996,-0.58772873878479,-1.2009177207946777,82.27506256103516,-52.38968276977539, 8.717288970947266
12,3483510152,0.19087237,-0.7135355,-0.37946,-0.5571762,13.2166166305542,1.1879137754440308,0.4929976463317871,93.32272338867188,-55.10460662841797, 15.634879112243652
13,3483526819,0.20611367,-0.71477264,-0.38113374,-0.5489575,12.030278205871582,0.6468666791915894,2.757812261581421,94.09575653076172,-54.273155212402344, 22.17083168029785
14,3483543486,0.22196071,-0.7146035,-0.38334998,-0.541404,11.762761116027832,-0.009088486433029175,2.417276382446289,101.90421295166016,-53.57738494873047, 26.12748146057129
15,3483560153,0.23769742,-0.71390754,-0.38723406,-0.5328093,11.807441711425781,0.4685579836368561,1.5158717632293701,111.95931243896484,-63.27870559692383, 23.866411209106445
16,3483576820,0.25005117,-0.7140562,-0.3916415,-0.5236558,10.737174034118652,0.8158674240112305,1.9941730499267578,97.99075317382812,-78.56171417236328, 18.505821228027344
17,3483593487,0.25754336,-0.71540076,-0.39519447,-0.51545566,10.716861724853516,0.36423197388648987,4.168453216552734,67.1773910522461,-88.86193084716797, 12.612784385681152
18,3483610154,0.25860706,-0.717384,-0.39540032,-0.5119975,10.40235710144043,0.5361760854721069,4.455526828765869,10.262465476989746,-81.57552337646484, 2.920628309249878
19,3483626821,0.2551549,-0.7205937,-0.39532453,-0.5092733,10.223301887512207,-0.1303335726261139,3.8913090229034424,-16.510337829589844,-95.24048614501953, -7.307979583740234
20,3483643488,0.2475449,-0.7250187,-0.39501613,-0.50698316,10.592011451721191,-0.0885116308927536,2.1518924236297607,-40.94843292236328,-107.6875, -17.753677368164062
21,3483660155,0.23783503,-0.730617,-0.39652953,-0.50239193,11.209123611450195,-0.3095700144767761,1.6952683925628662,-40.522151947021484,-129.2659912109375, -26.919769287109375
22,3483676822,0.22752595,-0.7366465,-0.39986816,-0.49567094,10.997967720031738,0.3182111382484436,0.36726945638656616,-31.934051513671875,-143.44891357421875, -33.664310455322266
23,3483693489,0.21726687,-0.74354804,-0.40484825,-0.48582867,11.663054466247559,1.3790168762207031,-1.253132939338684,-18.514381408691406,-161.13302612304688, -33.95317077636719
24,3483710156,0.20579249,-0.7510218,-0.40999258,-0.47489145,12.578423500061035,2.558028221130371,-0.3327464163303375,-21.37675666809082,-168.32981872558594, -34.31297302246094
25,3483726823,0.19449611,-0.7575828,-0.41412574,-0.46555302,11.12612247467041,0.8065939545631409,3.904562473297119,-25.881093978881836,-153.1829071044922, -31.646448135375977
26,3483743490,0.1869407,-0.76290095,-0.41788468,-0.4565173,9.093033790588379,0.08190450072288513,6.115947246551514,-6.280842304229736,-137.40692138671875, -21.521093368530273
27,3483760157,0.18151493,-0.7670706,-0.42032957,-0.44941998,8.794373512268066,1.273254632949829,5.123690605163574,-3.0876476764678955,-117.18952178955078, -13.864566802978516
28,3483776824,0.17876863,-0.7703189,-0.42167923,-0.44366342,8.55863094329834,0.8043038845062256,3.9336509704589844,5.4198527336120605,-98.44213104248047, -3.4742257595062256
29,3483793491,0.17976272,-0.77261007,-0.4219689,-0.4389779,8.287277221679688,0.49409833550453186,4.497195720672607,20.096172332763672,-77.08617401123047, 9.942851066589355
30,3483810158,0.18352005,-0.7739738,-0.4207014,-0.43622893,8.092388153076172,1.0557037591934204,4.3205718994140625,25.396982192993164,-53.62592315673828, 21.9190731048584
31,3483826825,0.18760708,-0.77544767,-0.41789398,-0.434568,8.872819900512695,2.2976856231689453,3.3816354274749756,18.051265716552734,-27.54336929321289, 31.7524471282959
32,3483843492,0.18991688,-0.77748376,-0.41277218,-0.43482184,9.738962173461914,3.6324901580810547,2.714649200439453,-5.597929000854492,-2.3761417865753174, 39.3286247253418
33,3483860159,0.1904974,-0.7793354,-0.40484795,-0.4386859,10.199563026428223,3.8024964332580566,2.014840841293335,-33.58124923706055,23.1179256439209, 44.32405090332031
34,3483876826,0.19017297,-0.78009707,-0.3950949,-0.44629925,10.038593292236328,3.9130518436431885,1.6890995502471924,-53.10637283325195,48.50752258300781, 43.485591888427734
35,3483893493,0.18928236,-0.77916276,-0.38434124,-0.45755842,9.942876815795898,4.297213554382324,1.0314280986785889,-66.97532653808594,73.75540161132812, 37.7260627746582
36,3483910160,0.18892051,-0.77586,-0.37335435,-0.4721832,10.035737037658691,4.370579719543457,0.6600165367126465,-70.71598052978516,101.22396850585938, 29.9898681640625
37,3483926827,0.19042273,-0.76959664,-0.36278585,-0.4897415,10.006635665893555,3.437671422958374,0.35365766286849976,-63.11538314819336,130.855224609375, 22.39299774169922
38,3483943494,0.19530177,-0.76003814,-0.35334858,-0.5092584,10.414318084716797,2.65474534034729,-0.20879456400871277,-42.02911376953125,159.32688903808594, 16.97886085510254
39,3483960161,0.20330976,-0.7472417,-0.34520394,-0.5302163,11.035344123840332,2.417966604232788,-0.24200654029846191,-20.323278427124023,184.11117553710938, 11.359491348266602
40,3483976828,0.21255423,-0.7318529,-0.3375306,-0.5525263,11.580756187438965,2.425753593444824,-0.35547176003456116,-11.851569175720215,202.81649780273438, 5.391726970672607
41,3483993495,0.22193833,-0.71423006,-0.32921413,-0.57640004,12.09414291381836,1.7766358852386475,-0.28997182846069336,-13.957990646362305,220.46546936035156, 1.6815643310546875
42,3484010162,0.23162869,-0.6946477,-0.31992716,-0.60121495,12.486902236938477,1.2028213739395142,-0.42121249437332153,-15.455473899841309,235.05213928222656, 1.7775170803070068
43,3484026829,0.2415044,-0.67318785,-0.30923155,-0.6267933,13.014596939086914,0.45969873666763306,-0.6405840516090393,-19.093461990356445,249.14410400390625, 3.9083144664764404
44,3484043496,0.2515103,-0.6500027,-0.29678532,-0.6528074,13.637667655944824,0.23718523979187012,-0.7657784819602966,-24.104928970336914,261.8193054199219, 8.157859802246094
45,3484060163,0.26154885,-0.62586534,-0.2818341,-0.67856795,14.390995979309082,-0.813494086265564,-1.2966208457946777,-33.0318603515625,269.4026184082031, 17.97836685180664
46,3484076830,0.27269435,-0.6011378,-0.26506814,-0.70285857,15.193187713623047,-1.272297739982605,-2.0671567916870117,-32.83965301513672,271.291748046875, 32.42494201660156
47,3484093497,0.28416625,-0.57639027,-0.24680896,-0.7253339,15.183513641357422,-0.8138861656188965,-2.0190820693969727,-35.37018585205078,267.3459167480469, 43.516300201416016
48,3484110164,0.29445213,-0.55258393,-0.22659132,-0.7460599,15.124317169189453,-0.3336123824119568,-1.971017599105835,-48.684539794921875,257.5923156738281, 50.37929153442383
49,3484126831,0.30279723,-0.5305817,-0.20401217,-0.7649681,15.542875289916992,0.2638868987560272,-2.3951308727264404,-69.02263641357422,243.2442169189453, 55.889461517333984
50,3484143498,0.30947953,-0.5111606,-0.18009584,-0.7813467,14.887154579162598,-0.2955192029476166,-3.442892551422119,-83.90896606445312,220.95254516601562, 60.94804000854492
51,3484160165,0.31473142,-0.49374923,-0.15615885,-0.7954686,13.925274848937988,1.0513442754745483,-2.283662796020508,-90.55278778076172,200.56858825683594, 60.62824249267578
52,3484176832,0.31719992,-0.4781368,-0.1309686,-0.8084658,13.30335521697998,1.482542872428894,-2.655561923980713,-109.53128814697266,186.67242431640625, 54.07524871826172
53,3484193499,0.3208494,-0.4631654,-0.11133998,-0.81861895,12.048321723937988,0.5656007528305054,-4.2974348068237305,-73.59900665283203,162.72805786132812, 49.157379150390625
54,3484210166,0.32535762,-0.4498548,-0.09839089,-0.825889,10.89522933959961,1.9645466804504395,-4.854887008666992,-34.69679260253906,130.16624450683594, 40.37504577636719
55,3484226833,0.32889324,-0.4398846,-0.090320006,-0.8307667,9.727992057800293,2.9881551265716553,-5.20449161529541,-15.870144844055176,92.27105712890625, 27.40113067626953
56,3484243500,0.3311987,-0.43364263,-0.08701431,-0.8334808,9.074480056762695,3.2355642318725586,-5.44842004776001,0.5210381746292114,52.926551818847656, 13.20091724395752
57,3484260167,0.33248436,-0.430767,-0.08801603,-0.8343544,8.887330055236816,2.6651978492736816,-5.194698810577393,15.586413383483887,17.758272171020508, 0.745119571685791
58,3484276834,0.33237788,-0.43107566,-0.0912816,-0.83388644,9.10585880279541,2.0872933864593506,-4.718477725982666,17.971059799194336,-10.476317405700684, -8.945828437805176
59,3484293501,0.33094406,-0.4340585,-0.09633732,-0.83233935,9.17053508758545,1.9561008214950562,-4.1150031089782715,18.86727523803711,-33.91292953491211, -17.716047286987305
60,3484310168,0.3278036,-0.43947652,-0.10210087,-0.8300486,9.096564292907715,2.2372169494628906,-3.502516031265259,12.772634506225586,-52.79966354370117, -26.292783737182617
61,3484326835,0.32268196,-0.44735494,-0.107495986,-0.8271606,9.326763153076172,2.380490779876709,-3.3571360111236572,-0.4479498565196991,-69.20545196533203, -33.405235290527344
62,3484343502,0.31574494,-0.45729062,-0.11228615,-0.82376105,9.849207878112793,2.0783212184906006,-3.3405044078826904,-13.664132118225098,-82.47518157958984, -39.20225524902344
63,3484360169,0.3078711,-0.4683741,-0.117612496,-0.8197613,10.333805084228516,2.1540653705596924,-2.9404964447021484,-15.604361534118652,-92.74058532714844, -43.99787139892578
64,3484376836,0.29765484,-0.4809962,-0.123142876,-0.8154019,10.489166259765625,4.9563422203063965,-4.759331226348877,-24.970928192138672,-104.88895416259766, -55.843994140625
65,3484393503,0.2842205,-0.4963375,-0.12667593,-0.81044495,15.118160247802734,1.4368646144866943,-1.9025626182556152,-51.8991584777832,-120.71144104003906, -63.69792175292969
66,3484410170,0.2743249,-0.5112913,-0.13628009,-0.80296624,19.323925018310547,-6.170227527618408,3.0476787090301514,-3.0288991928100586,-135.91343688964844, -60.11143112182617
67,3484426837,0.26233768,-0.52823263,-0.1478957,-0.79389936,17.080751419067383,-2.085508108139038,-0.4209511876106262,-1.4769998788833618,-158.25961303710938, -74.01145935058594
68,3484443504,0.25088444,-0.54525894,-0.16280378,-0.7830995,14.291213989257812,-1.112707495689392,0.25079479813575745,20.047304153442383,-170.40597534179688, -79.8952407836914
69,3484460171,0.24111252,-0.561039,-0.17895097,-0.7714122,10.54753303527832,0.42603135108947754,0.3165774941444397,36.18193054199219,-167.31300354003906, -75.37769317626953
70,3484476838,0.23177075,-0.5754709,-0.19173834,-0.76049477,8.0962553024292,2.4986186027526855,-0.695825457572937,21.28350257873535,-151.15008544921875, -63.07773971557617
71,3484493505,0.22351882,-0.5873938,-0.20108813,-0.7513797,7.185595989227295,4.78097677230835,-1.025742530822754,9.230344772338867,-124.02777099609375, -49.91966247558594
72,3484510172,0.21586633,-0.59750384,-0.20925435,-0.7433732,10.44922924041748,8.270723342895508,-3.9114432334899902,6.76934814453125,-107.57465362548828, -46.17982482910156
73,3484526839,0.21097144,-0.60692096,-0.21794464,-0.7346009,12.413891792297363,1.4785518646240234,-1.9075825214385986,22.882102966308594,-103.94618225097656, -33.974124908447266
74,3484543506,0.21168472,-0.61404467,-0.22930503,-0.72495395,11.14183521270752,-1.5165066719055176,-0.42225244641304016,64.42212677001953,-91.48397827148438, -18.99771499633789
75,3484560173,0.21322954,-0.6191909,-0.24028347,-0.7165192,11.23439884185791,0.06678441166877747,-0.3987935185432434,67.02314758300781,-74.6834716796875, -18.21599769592285
76,3484576840,0.21322685,-0.6235005,-0.24949977,-0.70959955,11.78431510925293,0.39276739954948425,-1.8602675199508667,50.4681396484375,-64.12483215332031, -21.989187240600586
77,3484593507,0.21278033,-0.6282311,-0.25773236,-0.70258415,13.06397533416748,-1.0107011795043945,-1.7162150144577026,43.326759338378906,-65.90904998779297, -19.106592178344727
78,3484610174,0.21620572,-0.63209707,-0.26840922,-0.69402087,13.502058982849121,-1.3481147289276123,1.573908805847168,75.86851501464844,-65.14006805419922, -10.289794921875
79,3484626841,0.2210605,-0.63510424,-0.2792325,-0.68542266,13.166404724121094,0.44364404678344727,2.4943645000457764,84.13838195800781,-58.85576248168945, -5.700562000274658
80,3484643508,0.22630344,-0.63793993,-0.28998342,-0.6765568,12.45382022857666,1.6792807579040527,1.4548568725585938,86.2701187133789,-58.45527267456055, -3.4925663471221924
81,3484660175,0.23169667,-0.64155155,-0.3010681,-0.6663981,12.17409896850586,0.8946865200996399,1.942389965057373,89.85578155517578,-68.0174560546875, -0.6825577616691589
82,3484676842,0.23835273,-0.64552027,-0.31336373,-0.6544424,11.362264633178711,-0.050431713461875916,2.1242194175720215,104.14035034179688,-76.96365356445312, 3.362077236175537
83,3484693509,0.24612017,-0.6499814,-0.32731378,-0.6401677,10.795650482177734,-0.19615569710731506,2.192762851715088,120.71321105957031,-89.86121368408203, 5.862735271453857
84,3484710176,0.25053638,-0.6559687,-0.3404073,-0.62534744,10.71415901184082,2.1405346393585205,2.3543546199798584,100.61325073242188,-105.17924499511719, -0.7180672287940979
85,3484726843,0.2500275,-0.6638411,-0.35092556,-0.61127126,11.109697341918945,2.3838260173797607,1.5809204578399658,62.348548889160156,-117.0876693725586, -7.110668182373047
86,3484743510,0.24554376,-0.6728776,-0.3588845,-0.59845304,11.131802558898926,1.967261552810669,1.8244882822036743,28.418237686157227,-121.48104858398438, -11.450660705566406
87,3484760177,0.23892885,-0.6824044,-0.3648597,-0.586613,10.527607917785645,0.4645308256149292,1.2597824335098267,7.164419651031494,-120.94459533691406, -11.462347030639648
88,3484776844,0.23081847,-0.69215125,-0.3693854,-0.5755035,9.824322700500488,0.588491678237915,0.18375886976718903,-7.889167308807373,-119.82279205322266, -11.357843399047852
89,3484793511,0.2225273,-0.70183367,-0.373361,-0.5643697,10.248993873596191,0.6994615793228149,-0.5108279585838318,-10.754833221435547,-119.29335021972656, -9.592483520507812
90,3484810178,0.21478288,-0.71096104,-0.3772469,-0.55325186,9.888096809387207,0.564757227897644,0.4878450930118561,-7.660020351409912,-115.53740692138672, -8.496648788452148
91,3484826845,0.20813589,-0.71964115,-0.38084278,-0.5419919,9.307202339172363,-0.17480194568634033,0.33671054244041443,-2.3678438663482666,-111.30207824707031, -3.866905689239502
92,3484843512,0.20270932,-0.7278486,-0.3844693,-0.5304045,9.233500480651855,0.20657488703727722,-0.35797542333602905,5.31461763381958,-108.05199432373047, -0.26653674244880676
93,3484860179,0.19836517,-0.7357739,-0.38792455,-0.5184619,9.569265365600586,-0.2810579240322113,-0.5121951103210449,11.434407234191895,-105.73207092285156, 4.274180889129639
94,3484876846,0.196533,-0.7428008,-0.3916439,-0.50619864,9.14948844909668,-0.5235215425491333,1.0655159950256348,27.157352447509766,-97.84801483154297, 9.909256935119629
95,3484893513,0.198126,-0.7481689,-0.396148,-0.49402073,8.736189842224121,0.11661915481090546,1.4156811237335205,49.38746643066406,-83.55461120605469, 13.217822074890137
96,3484910180,0.20063166,-0.7511542,-0.4001837,-0.48514697,9.437112808227539,3.8262009620666504,2.411954402923584,46.7392463684082,-55.42388153076172, 7.735097885131836
97,3484926847,0.1999646,-0.75481564,-0.40419063,-0.4763376,9.860601425170898,5.364297866821289,-3.8447747230529785,29.19828987121582,-66.15375518798828, -0.8446455001831055
98,3484943514,0.19609182,-0.7605895,-0.4094226,-0.46413878,13.139774322509766,5.546571731567383,-8.529522895812988,23.14118194580078,-101.22004699707031, -7.062112808227539
99,3484960181,0.18931535,-0.7668194,-0.41583827,-0.45080638,13.416488647460938,7.241751194000244,-6.274522304534912,14.347084045410156,-118.278564453125, -19.6097354888916
100,3484976848,0.18202557,-0.77272063,-0.42279375,-0.43705264,14.738822937011719,5.7020134925842285,-3.8731489181518555,15.033618927001953,-121.63983917236328, -24.3228759765625
101,3484993515,0.16876583,-0.7772705,-0.4250073,-0.4321314,13.032873153686523,7.638116359710693,12.746553421020508,-54.84721374511719,-82.15906524658203, -31.994279861450195
102,3485010182,0.15291007,-0.780462,-0.4221699,-0.435052,9.36481761932373,-0.06536601483821869,10.858622550964355,-104.9222183227539,-38.42514419555664, -25.712026596069336
103,3485026849,0.14755107,-0.7817642,-0.41893262,-0.43768615,10.465394020080566,2.437268018722534,4.902248382568359,-46.9550666809082,-3.765109062194824, 2.5424325466156006
104,3485043516,0.14250751,-0.78216255,-0.41460738,-0.4427353,9.792366027832031,3.3517866134643555,2.565927743911743,-54.551788330078125,13.750967979431152, 4.249150276184082
105,3485060183,0.14405096,-0.781259,-0.40974095,-0.44832593,8.095884323120117,-1.6023708581924438,5.0070061683654785,-21.0186710357666,39.81207275390625, 22.96772003173828
106,3485076850,0.15309575,-0.7773348,-0.40574768,-0.45572066,6.852242469787598,0.823306143283844,5.750911235809326,19.819461822509766,78.93329620361328, 31.016504287719727
107,3485093517,0.16130653,-0.77088594,-0.3998121,-0.4688979,7.134369850158691,2.4057977199554443,2.8069610595703125,-4.212274074554443,117.32592010498047, 25.649356842041016
108,3485110184,0.16958715,-0.76160264,-0.3930987,-0.48649266,7.968711853027344,2.022111177444458,2.6205451488494873,-15.350336074829102,150.87332153320312, 17.33639907836914
109,3485126851,0.17673244,-0.74972576,-0.38442034,-0.5088203,8.989524841308594,1.3261327743530273,2.464937686920166,-37.63859558105469,183.49331665039062, 11.311120986938477
110,3485143518,0.18471554,-0.7353937,-0.37420443,-0.5338983,10.421588897705078,0.13254159688949585,0.9483327865600586,-43.003177642822266,210.2769317626953, 12.32156753540039
111,3485160185,0.19477968,-0.7184771,-0.36310306,-0.560364,11.489798545837402,-0.3984161913394928,0.29401978850364685,-36.0552864074707,233.2329559326172, 15.976031303405762
112,3485176852,0.20619369,-0.6994023,-0.35046577,-0.5877877,12.63365364074707,-0.7200890183448792,-0.519965648651123,-34.8430290222168,251.7047119140625, 22.02834129333496
113,3485193519,0.21875204,-0.6784654,-0.33623615,-0.61544913,13.81525707244873,-0.5123634934425354,-2.1042375564575195,-33.744380950927734,265.4232177734375, 29.410985946655273
114,3485210186,0.23289683,-0.6557444,-0.32139462,-0.64223385,14.696611404418945,0.01509317196905613,-2.2454705238342285,-24.25789451599121,273.57550048828125, 36.10819625854492
115,3485226853,0.24638566,-0.6317309,-0.30489933,-0.66876495,14.988262176513672,0.3879794478416443,-1.8497562408447266,-31.930147171020508,279.47210693359375, 38.17333221435547
116,3485243520,0.25960103,-0.60678077,-0.28669044,-0.69443023,16.10431671142578,-0.43344810605049133,-2.384026050567627,-37.62933349609375,282.5010070800781, 43.831031799316406
117,3485260187,0.27272314,-0.5814,-0.26781616,-0.7182414,16.69855499267578,0.14387556910514832,-3.2610044479370117,-36.77739334106445,278.0318908691406, 48.56776428222656
118,3485276854,0.2838831,-0.5564921,-0.24719289,-0.74069065,16.521629333496094,0.5046468377113342,-3.0145106315612793,-51.67784118652344,270.1968994140625, 49.26013946533203
119,3485293521,0.2916654,-0.5334175,-0.22309735,-0.7619873,16.12767791748047,-0.20444051921367645,-3.4739105701446533,-83.91471099853516,257.7947692871094, 50.7025146484375
120,3485310188,0.29795143,-0.5124704,-0.19705485,-0.78087676,15.881625175476074,-0.5743380188941956,-3.982461929321289,-100.21013641357422,239.78289794921875, 58.06305694580078
121,3485326855,0.30311793,-0.49377927,-0.17003143,-0.7971142,14.988265991210938,0.1227046549320221,-3.4894542694091797,-110.42743682861328,219.21859741210938, 63.99290466308594
122,3485343522,0.30657122,-0.47780573,-0.1422023,-0.8108604,14.424697875976562,1.5313599109649658,-3.1784236431121826,-123.40404510498047,195.93405151367188, 65.74905395507812
123,3485360189,0.3080261,-0.46415904,-0.11335124,-0.8226955,14.202903747558594,1.6339893341064453,-4.151140213012695,-138.7375946044922,177.2763671875, 64.37619018554688
124,3485376856,0.3128608,-0.45099938,-0.09349895,-0.8306478,12.36816692352295,0.42285189032554626,-6.2133049964904785,-75.05413055419922,146.12730407714844, 63.51578140258789
125,3485393523,0.31983805,-0.43936452,-0.08349329,-0.83527935,10.800544738769531,2.8276331424713135,-7.534322738647461,-13.282087326049805,107.78224182128906, 53.44144821166992
126,3485410190,0.32695785,-0.43117762,-0.08127898,-0.8370056,9.427486419677734,3.867936134338379,-8.401326179504395,25.947052001953125,62.64211654663086, 39.229896545410156
127,3485426857,0.33315042,-0.4274533,-0.085558265,-0.83604676,8.9674072265625,4.6335835456848145,-8.388555526733398,51.98833084106445,14.37557601928711, 23.315208435058594
128,3485443524,0.33710542,-0.4283852,-0.09326853,-0.833155,9.054543495178223,4.8794331550598145,-7.730961322784424,55.54074478149414,-26.762317657470703, 7.683012008666992
129,3485460191,0.33799222,-0.43371353,-0.10182941,-0.8290264,9.44083309173584,4.756683349609375,-6.907120704650879,41.89292907714844,-59.063480377197266, -6.565732955932617
130,3485476858,0.3356305,-0.44263884,-0.110455886,-0.8241496,10.013798713684082,4.587947845458984,-5.61276912689209,24.656824111938477,-83.7817153930664, -20.85930633544922
131,3485493525,0.32985222,-0.45465204,-0.11811803,-0.8188636,10.448983192443848,4.817530155181885,-4.758565425872803,1.875791072845459,-102.48909759521484, -33.81897735595703
132,3485510192,0.3208736,-0.46916103,-0.12425682,-0.81331944,10.638710975646973,4.607797622680664,-4.537720680236816,-22.26481819152832,-116.12052917480469, -44.23823165893555
133,3485526859,0.30920684,-0.48513988,-0.12905978,-0.8076967,10.451111793518066,4.234897136688232,-4.013655185699463,-41.69265365600586,-123.59136962890625, -53.279869079589844
134,3485543526,0.29369202,-0.50245893,-0.13172309,-0.80245197,10.670609474182129,6.156558990478516,-4.291345596313477,-69.70962524414062,-128.3372039794922, -66.85111999511719
135,3485560193,0.27751118,-0.5184575,-0.13130262,-0.79809105,13.499300956726074,-2.8360610008239746,9.634347915649414,-87.29354858398438,-112.07833862304688, -62.444000244140625
136,3485576860,0.26477945,-0.53117555,-0.1329456,-0.79376966,14.50463581085205,-4.642327308654785,5.4001145362854,-57.43790817260742,-95.0404281616211, -53.89506149291992
137,3485593527,0.25264192,-0.5467176,-0.13916482,-0.7860695,18.654064178466797,-4.010695934295654,-4.065750598907471,-32.27779769897461,-130.6549835205078, -58.73683547973633
138,3485610194,0.24444789,-0.56197894,-0.15437105,-0.7749803,15.389347076416016,-2.0404443740844727,0.08638495206832886,34.898109436035156,-153.24781799316406, -65.72142791748047
139,3485626861,0.23621842,-0.57751197,-0.17055318,-0.762622,12.178391456604004,-0.4114527404308319,2.2641608715057373,40.86176300048828,-161.07931518554688, -67.3843994140625
140,3485643528,0.22684324,-0.5926979,-0.18372966,-0.75066286,8.703611373901367,1.176666259765625,2.838102340698242,20.64304542541504,-154.12710571289062, -62.566734313964844
141,3485660195,0.21587077,-0.6064208,-0.19074592,-0.7411272,6.414626121520996,2.383817672729492,3.040820360183716,-18.470914840698242,-129.21127319335938, -51.282562255859375
142,3485676862,0.20515719,-0.6174859,-0.1947835,-0.73394895,8.890559196472168,5.977895736694336,-1.7056069374084473,-31.729856491088867,-101.24415588378906, -44.383949279785156
143,3485693529,0.19747399,-0.6275145,-0.20165871,-0.7256469,11.970239639282227,3.7026312351226807,-5.7240118980407715,-1.650333046913147,-100.60932159423828, -40.6342887878418
144,3485710196,0.19559897,-0.635724,-0.21258949,-0.7158227,11.141799926757812,0.4898155629634857,-2.0627708435058594,48.199256896972656,-95.17176818847656, -29.479902267456055
145,3485726863,0.19411819,-0.6428081,-0.22309771,-0.7066423,12.03741455078125,-1.3505699634552002,-1.9096442461013794,48.42205810546875,-85.51024627685547, -28.296003341674805
146,3485743530,0.19207944,-0.64981455,-0.23423642,-0.6971225,12.577159881591797,0.45217305421829224,-0.011204957962036133,49.633338928222656,-88.19467163085938, -33.662254333496094
147,3485760197,0.18918498,-0.6572725,-0.24409027,-0.68747497,12.993481636047363,-1.2832989692687988,-0.6026774048805237,39.27412033081055,-90.59745025634766, -31.23246192932129
148,3485776864,0.1874856,-0.66480225,-0.25515348,-0.6765973,13.568033218383789,0.3727305829524994,0.009016275405883789,52.33696365356445,-96.04266357421875, -29.537382125854492
149,3485793531,0.18766956,-0.67165905,-0.26766992,-0.66483617,12.610077857971191,0.49979040026664734,1.8524441719055176,70.15341186523438,-95.54265594482422, -27.6121883392334
150,3485810198,0.1882868,-0.6782275,-0.2801749,-0.652731,12.333402633666992,1.5523666143417358,1.5183221101760864,73.12335205078125,-95.15840148925781, -25.826078414916992
151,3485826865,0.18939573,-0.68476796,-0.29240334,-0.64009565,12.238405227661133,1.4987457990646362,1.0935759544372559,75.2687759399414,-96.50015258789062, -21.832571029663086
152,3485843532,0.1905148,-0.69113517,-0.3043996,-0.6271979,11.983297348022461,1.78184974193573,1.1872122287750244,75.12046813964844,-97.17216491699219, -20.88568687438965
153,3485860199,0.19140172,-0.6971859,-0.31545144,-0.6146442,11.635113716125488,0.7515218257904053,1.2611809968948364,69.73889923095703,-94.09011840820312, -18.691219329833984
154,3485876866,0.1927783,-0.70298237,-0.3263239,-0.6018016,11.378470420837402,0.2565092444419861,0.1987943798303604,72.37267303466797,-93.82271575927734, -16.14834976196289
155,3485893533,0.19450602,-0.7088034,-0.33716965,-0.58828723,11.560112953186035,-0.13698048889636993,0.2881259322166443,75.50546264648438,-96.98538970947266, -13.826313018798828
156,3485910200,0.19580469,-0.7146364,-0.3475806,-0.574581,11.753783226013184,0.10222941637039185,0.37425392866134644,72.14273834228516,-98.96837615966797, -13.339204788208008
157,3485926867,0.1960755,-0.7204973,-0.35722148,-0.56109816,11.290915489196777,-0.4564882814884186,0.8499783277511597,63.530635833740234,-99.91464233398438, -13.976922988891602
158,3485943534,0.19635367,-0.7261569,-0.36633372,-0.5476689,10.814973831176758,-0.9242619872093201,0.807490885257721,61.706626892089844,-98.5879135131836, -12.004006385803223
159,3485960201,0.19756195,-0.7314038,-0.3751284,-0.53413165,10.531635284423828,-1.5989491939544678,0.8485687971115112,66.01160430908203,-95.1622314453125, -7.900829315185547
160,3485976868,0.20012942,-0.7363318,-0.38358706,-0.5202161,10.088543891906738,-1.4236094951629639,0.4419543147087097,73.0346908569336,-92.22569274902344, -1.6104258298873901
161,3485993535,0.20367423,-0.7409102,-0.39127102,-0.5064347,10.117798805236816,-0.4768908619880676,1.9742655754089355,75.34928894042969,-86.87393188476562, 4.6499528884887695
162,3486010202,0.20484158,-0.74397355,-0.39505124,-0.49847564,9.556676864624023,1.8511656522750854,2.278623342514038,36.12126541137695,-53.08762741088867, 4.020003795623779
163,3486026869,0.20422274,-0.7480203,-0.39924732,-0.48924476,7.540964126586914,2.8765828609466553,-0.9600374698638916,30.52073097229004,-68.58081817626953, 0.28760430216789246
164,3486043536,0.20223941,-0.7538217,-0.4045098,-0.4766804,8.488882064819336,3.936251401901245,-5.073879718780518,33.817134857177734,-96.91361999511719, -0.22141720354557037
165,3486060203,0.19818285,-0.76039267,-0.41030455,-0.46279252,11.296979904174805,5.328094482421875,-5.656411647796631,27.459867477416992,-112.75698852539062, -5.717935562133789
166,3486076870,0.1921874,-0.7670084,-0.41543686,-0.44963846,10.049162864685059,4.711795330047607,-4.196877479553223,13.127776145935059,-113.62078857421875, -9.215607643127441
167,3486093537,0.18451805,-0.7726221,-0.4182961,-0.4404963,10.433882713317871,3.345609188079834,7.921316623687744,-12.824653625488281,-91.15972900390625, -10.512076377868652
168,3486110204,0.17687729,-0.7765838,-0.4193744,-0.43561167,7.372082233428955,-0.29458504915237427,7.423842430114746,-28.166322708129883,-61.466793060302734, -11.106937408447266
169,3486126871,0.17707708,-0.7791262,-0.4203063,-0.43005672,8.30991268157959,0.3368612229824066,3.6829733848571777,16.917264938354492,-38.189205169677734, 9.82949447631836
170,3486143538,0.18091267,-0.78038925,-0.421914,-0.42456102,9.664529800415039,3.904386043548584,3.1962978839874268,39.77096939086914,-24.502527236938477, 13.168923377990723
171,3486160205,0.18466692,-0.7812876,-0.42137128,-0.4218227,10.260979652404785,4.538966178894043,4.072897434234619,25.544570922851562,-6.29872465133667, 20.020709991455078
172,3486176872,0.18606272,-0.78179777,-0.41724607,-0.42435682,9.663525581359863,3.61515474319458,4.109464645385742,-12.26064395904541,20.755212783813477, 24.64383888244629
173,3486193539,0.1858332,-0.78192943,-0.41028756,-0.43094856,9.191924095153809,1.51577627658844,1.6771396398544312,-40.414207458496094,42.538333892822266, 28.8792724609375
174,3486210206,0.18799518,-0.7800709,-0.40351105,-0.43968862,9.503190994262695,2.953925609588623,0.9494856595993042,-30.54562759399414,66.46426391601562, 26.60613441467285
175,3486226873,0.18880326,-0.7761361,-0.39577883,-0.45312825,8.751646995544434,4.517103672027588,1.7710771560668945,-51.04671096801758,95.40476989746094, 15.811319351196289
176,3486243540,0.18836688,-0.77015156,-0.38698816,-0.47077033,8.743630409240723,3.314804792404175,0.6458254456520081,-69.74562072753906,122.18151092529297, 6.578896522521973
177,3486260207,0.1904542,-0.76112056,-0.37900177,-0.49069375,9.395193099975586,2.7649600505828857,0.8618391752243042,-55.905906677246094,149.798095703125, -0.5603026151657104
178,3486276874,0.19486083,-0.74936545,-0.37129575,-0.5124649,10.312549591064453,1.4720109701156616,0.5467690229415894,-44.07221603393555,174.3323211669922, -3.7178127765655518
179,3486293541,0.2018539,-0.73502314,-0.36397052,-0.53527707,11.26753044128418,0.5946544408798218,-0.23186466097831726,-28.614721298217773,194.9070281982422, -4.579677581787109
180,3486310208,0.2104201,-0.7186151,-0.3562349,-0.5589389,11.888739585876465,0.1655273586511612,-0.6019185781478882,-21.461336135864258,211.3293914794922, -3.089050054550171
181,3486326875,0.22034721,-0.700411,-0.3475407,-0.58316976,12.263686180114746,-0.46819400787353516,-0.8135658502578735,-17.22718048095703,225.80239868164062, 1.6199055910110474
182,3486343542,0.23196422,-0.6803087,-0.33798486,-0.60756814,12.599573135375977,-0.7360630035400391,-0.8546575307846069,-10.103507041931152,239.6270294189453, 7.717897891998291
183,3486360209,0.24394172,-0.65848637,-0.3269777,-0.6324349,13.172839164733887,-0.1734958440065384,-0.7996668815612793,-12.848353385925293,252.23568725585938, 11.226045608520508
184,3486376876,0.25544658,-0.6351419,-0.3131626,-0.6582333,14.243314743041992,-0.8651539087295532,-0.9119171500205994,-26.761554718017578,266.8124084472656, 16.871017456054688
185,3486393543,0.26707485,-0.61062676,-0.2965589,-0.6840022,15.527905464172363,-1.4316742420196533,-2.0285675525665283,-36.73313522338867,277.2508544921875, 27.09952163696289
186,3486410210,0.27893126,-0.5856373,-0.2779032,-0.7085169,16.362464904785156,-1.4092357158660889,-2.6965551376342773,-42.02314376831055,278.5810852050781, 38.078372955322266
187,3486426877,0.28855467,-0.5617788,-0.2560447,-0.7318347,16.553363800048828,-0.7317366600036621,-2.7162044048309326,-66.50739288330078,270.2812194824219, 44.51580047607422
188,3486443544,0.29543784,-0.5399669,-0.23051299,-0.7536685,16.905567169189453,-1.0904914140701294,-3.0013537406921387,-97.02143096923828,256.8736572265625, 51.45040512084961
189,3486460211,0.3010765,-0.52049094,-0.20415889,-0.77250326,16.190664291381836,-0.4198186993598938,-3.1555075645446777,-105.90663146972656,233.49603271484375, 57.83177947998047
190,3486476878,0.30343196,-0.5042681,-0.17560518,-0.7891805,15.045960426330566,0.7792364358901978,-3.1814961433410645,-133.04071044921875,208.6072235107422, 57.31340026855469
191,3486493545,0.30252197,-0.49130282,-0.1454462,-0.8037087,14.474534034729004,1.693599820137024,-3.440281391143799,-157.29974365234375,183.04452514648438, 53.61484146118164
192,3486510212,0.30054155,-0.48011386,-0.11706851,-0.8157579,12.966365814208984,0.23066073656082153,-5.124780178070068,-152.2837677001953,160.22532653808594, 48.69020462036133
193,3486526879,0.3021451,-0.46959168,-0.098227,-0.8237375,11.5943021774292,1.2980022430419922,-5.289482593536377,-85.05064392089844,126.3770523071289, 46.300811767578125
194,3486543546,0.3037889,-0.46151313,-0.08564703,-0.82908547,9.800339698791504,3.298480987548828,-5.97284460067749,-52.75457763671875,91.194580078125, 33.48644256591797
195,3486560213,0.3053117,-0.45654094,-0.07964486,-0.8318726,9.051688194274902,3.514385461807251,-5.852723598480225,-20.655048370361328,51.6761589050293, 19.168617248535156
196,3486576880,0.30655482,-0.45482662,-0.07907255,-0.8324089,8.848105430603027,3.6684305667877197,-5.912934303283691,3.8958165645599365,14.534561157226562, 7.097599506378174
197,3486593547,0.3073303,-0.45604023,-0.08194552,-0.83118033,8.964851379394531,2.8761849403381348,-5.840723514556885,16.91216468811035,-15.154176712036133, -0.9906753897666931
198,3486610214,0.30787107,-0.45944217,-0.088002175,-0.82848287,9.300850868225098,2.810905694961548,-4.96868371963501,30.55902099609375,-39.028865814208984, -7.945054531097412
199,3486626881,0.30717605,-0.4649707,-0.09585512,-0.8247769,9.552735328674316,3.9801955223083496,-3.995500326156616,32.984100341796875,-58.79762268066406, -17.208620071411133
200,3486643548,0.30384108,-0.47300026,-0.103220895,-0.82054675,9.719757080078125,4.356033802032471,-3.785207748413086,16.808443069458008,-75.30321502685547, -27.826934814453125
201,3486660215,0.29722017,-0.48371127,-0.10929953,-0.8159274,9.70793342590332,4.653997898101807,-3.930298328399658,-6.494838714599609,-91.28612518310547, -39.40550231933594
202,3486676882,0.2877979,-0.49651483,-0.114396125,-0.8109001,9.989751815795898,4.01638650894165,-3.909468412399292,-25.322998046875,-104.43212127685547, -49.382347106933594
203,3486693549,0.27629688,-0.51064897,-0.11921702,-0.8054099,10.479578971862793,4.181249141693115,-3.9151134490966797,-36.246910095214844,-114.4774169921875, -58.006507873535156
204,3486710216,0.26174894,-0.52675545,-0.12266557,-0.7993556,11.526869773864746,4.498970985412598,-4.646247863769531,-57.863067626953125,-127.2318344116211, -67.31055450439453
205,3486726883,0.24901916,-0.5412981,-0.12590761,-0.79317915,14.173161506652832,-5.221389293670654,8.726811408996582,-49.50392150878906,-117.11442565917969, -57.58613204956055
206,3486743550,0.23883039,-0.5547576,-0.13205865,-0.78598005,15.63563060760498,-2.8017358779907227,2.686972141265869,-21.401981353759766,-117.98194122314453, -53.85628890991211
207,3486760217,0.22856635,-0.57066274,-0.14221513,-0.77580696,16.834270477294922,-2.205240249633789,-1.905428409576416,-1.3251951932907104,-149.23956298828125, -62.505001068115234
208,3486776884,0.21956074,-0.58647364,-0.15602243,-0.7638711,13.110091209411621,-0.8831350207328796,2.2699854373931885,24.974308013916016,-160.11102294921875, -67.50272369384766
209,3486793551,0.20953941,-0.6014225,-0.16768724,-0.7525061,9.791085243225098,0.6710312962532043,1.7181015014648438,10.31418514251709,-151.20509338378906, -66.03176879882812
210,3486810218,0.1990256,-0.61497265,-0.1759572,-0.7424532,7.835515975952148,1.8353962898254395,0.6211353540420532,-8.772514343261719,-134.29786682128906, -58.05359649658203
211,3486826885,0.18797755,-0.6265637,-0.1803306,-0.73454964,6.958728790283203,2.6415529251098633,0.9093478918075562,-30.844179153442383,-110.59539794921875, -49.60227584838867
212,3486843552,0.17807567,-0.63586456,-0.18494375,-0.7278469,11.240744590759277,7.0609211921691895,-3.791308641433716,-23.229372024536133,-92.83466339111328, -49.21586990356445
213,3486860219,0.1728944,-0.644912,-0.19333395,-0.7189005,12.728757858276367,1.6956861019134521,-4.198254585266113,19.469472885131836,-99.96797943115234, -39.58104705810547
214,3486876886,0.17150168,-0.65223134,-0.2035764,-0.7097451,10.485297203063965,-0.3162223696708679,-1.0571346282958984,47.763248443603516,-89.4903793334961, -31.149505615234375
215,3486893553,0.17112839,-0.658388,-0.2146617,-0.70082855,11.531683921813965,0.051335398107767105,-1.8403667211532593,57.485931396484375,-82.37020111083984, -31.943241119384766
216,3486910220,0.16917874,-0.6652036,-0.22465673,-0.69167346,13.445090293884277,-1.6690753698349,-1.640027642250061,44.68901824951172,-87.70875549316406, -33.4166259765625
217,3486926887,0.16864026,-0.67177,-0.23637734,-0.6814774,13.466330528259277,-0.3149932622909546,-0.06837023049592972,61.25419616699219,-91.16287231445312, -33.87104034423828
218,3486943554,0.16854317,-0.67844546,-0.24822362,-0.6705895,13.303424835205078,-0.43904808163642883,0.2950201630592346,64.89483642578125,-94.38312530517578, -31.470964431762695
219,3486960221,0.17015128,-0.684624,-0.26124537,-0.6588547,12.631155014038086,0.3612138032913208,0.6244524121284485,80.299560546875,-94.58656311035156, -29.025562286376953
220,3486976888,0.17227569,-0.69035184,-0.27434555,-0.64689255,12.703255653381348,1.4958115816116333,0.8834754228591919,84.02314758300781,-92.87664794921875, -27.643339157104492
221,3486993555,0.17516905,-0.6956204,-0.2869832,-0.6348769,12.414420127868652,1.107609748840332,0.7029730677604675,86.27483367919922,-89.18865203857422, -22.849451065063477
222,3487010222,0.1795271,-0.70024437,-0.3000698,-0.6224034,11.92410945892334,1.2145715951919556,0.7543269395828247,96.92871856689453,-86.30962371826172, -19.34653663635254
223,3487026889,0.18384528,-0.7044844,-0.3128097,-0.6099613,11.515130996704102,0.6696901321411133,1.587003469467163,95.68572998046875,-84.25897216796875, -18.697649002075195
224,3487043556,0.18784401,-0.70888704,-0.3251279,-0.5970642,11.813611030578613,1.0156095027923584,0.8823195695877075,93.14106750488281,-87.4055404663086, -17.090944290161133
225,3487060223,0.190408,-0.7140066,-0.33631116,-0.5838102,12.32069206237793,0.4589563310146332,0.9325864315032959,81.3824462890625,-93.91834259033203, -15.39980697631836
226,3487076890,0.19118929,-0.7198068,-0.3460235,-0.5706075,11.786168098449707,-0.1418100744485855,1.377776026725769,65.72480010986328,-98.68706512451172, -13.848930358886719
227,3487093557,0.19082938,-0.72593874,-0.3547352,-0.55745864,11.167557716369629,-1.0802487134933472,0.8623906373977661,55.585723876953125,-101.22247314453125, -12.680669784545898
228,3487110224,0.19124925,-0.7320458,-0.36319324,-0.54371274,10.838035583496094,-1.622385025024414,0.5000441074371338,59.998779296875,-101.95777893066406, -7.745203018188477
229,3487126891,0.19270487,-0.73781455,-0.37154886,-0.52957153,10.406933784484863,-1.3170416355133057,0.6368099451065063,66.25018310546875,-100.0384292602539, -3.724736452102661
230,3487143558,0.19367264,-0.74321723,-0.37814432,-0.51684237,9.754803657531738,-0.5618935823440552,1.2627005577087402,54.240203857421875,-90.53370666503906, 0.589518666267395
231,3487160225,0.19317192,-0.7480267,-0.38201043,-0.5071575,9.360978126525879,0.420711874961853,1.0946831703186035,29.911102294921875,-73.1376953125, 3.7092041969299316
232,3487176892,0.19097844,-0.75216734,-0.38440734,-0.5000027,8.328304290771484,1.81564462184906,-0.7138228416442871,10.334470748901367,-60.36333465576172, 0.24795342981815338
233,3487193559,0.18816693,-0.75783956,-0.38823804,-0.48943207,7.9016876220703125,2.4455764293670654,-2.6431727409362793,19.097749710083008,-86.83941650390625, -0.726012110710144
234,3487210226,0.1864925,-0.7642082,-0.39347357,-0.47579947,8.891054153442383,2.8176259994506836,-4.335278034210205,37.03554916381836,-103.90946197509766, 1.6445914506912231
235,3487226893,0.18392406,-0.77078867,-0.39911965,-0.46125987,9.806600570678711,4.6947712898254395,-4.0209197998046875,35.87956619262695,-112.28501892089844, -1.656402826309204
236,3487243560,0.17992212,-0.77718645,-0.4035857,-0.44802675,9.205124855041504,4.340968608856201,-3.8311550617218018,21.221521377563477,-107.22016906738281, -2.0297253131866455
237,3487260227,0.17264307,-0.782823,-0.40467176,-0.44002655,9.10278606414795,3.304295778274536,6.110581398010254,-20.245386123657227,-81.82661437988281, -2.592082977294922
238,3487276894,0.16254306,-0.78698355,-0.40347376,-0.43754503,6.117466449737549,1.3966333866119385,5.097224712371826,-55.890682220458984,-53.00175857543945, -9.469688415527344
239,3487293561,0.1592314,-0.7897519,-0.40230018,-0.43484724,7.279508590698242,-0.12266705930233002,2.398583173751831,-16.909801483154297,-31.316295623779297, 7.192444324493408
240,3487310228,0.16390215,-0.79083055,-0.4032379,-0.43025893,8.731619834899902,1.2252695560455322,3.8785550594329834,39.82057189941406,-16.855113983154297, 16.962656021118164
241,3487326895,0.17325547,-0.7904606,-0.40337956,-0.42712957,9.2944974899292,2.6694047451019287,6.307672023773193,60.52667999267578,9.101614952087402, 29.491458892822266
242,3487343562,0.18019493,-0.7901187,-0.39917833,-0.4288345,9.857013702392578,2.789170980453491,3.9244563579559326,21.238500595092773,33.579647064208984, 40.359771728515625
243,3487360229,0.18649152,-0.7898066,-0.3928861,-0.4325129,11.181269645690918,1.9416577816009521,0.49105098843574524,6.141537666320801,44.89506912231445, 47.49156188964844
244,3487376896,0.19292076,-0.7880798,-0.38602766,-0.43896997,11.629898071289062,3.4698448181152344,0.6623342037200928,-0.5246106386184692,65.19010925292969, 43.59495162963867
245,3487393563,0.195643,-0.78510165,-0.377943,-0.4499985,11.355758666992188,4.2893195152282715,0.5056437253952026,-34.76804733276367,85.43619537353516, 29.700603485107422
246,3487410230,0.19445772,-0.78053397,-0.36905625,-0.46556467,11.183110237121582,4.930965423583984,0.7195815443992615,-67.98095703125,105.69803619384766, 11.752744674682617
247,3487426897,0.18996683,-0.7742722,-0.3593748,-0.48504126,11.138172149658203,3.953958511352539,0.9313170909881592,-95.88568878173828,124.71261596679688, -4.054985523223877
248,3487443564,0.18514828,-0.765931,-0.34954703,-0.50684005,11.42275619506836,2.8948209285736084,0.317483127117157,-101.12532806396484,143.32640075683594, -12.527499198913574
249,3487460231,0.18195555,-0.75515175,-0.34008214,-0.5300776,11.592329025268555,1.6756541728973389,0.3454401195049286,-91.63663482666016,162.80300903320312, -16.477323532104492
250,3487476898,0.18172158,-0.7418414,-0.33131716,-0.55396557,11.586359024047852,0.8677405714988708,0.444135844707489,-72.08003234863281,181.4177703857422, -16.090383529663086
251,3487493565,0.18471219,-0.72616047,-0.32277596,-0.5782632,11.660887718200684,0.23087237775325775,0.13084560632705688,-52.76190948486328,199.58474731445312, -10.897501945495605
252,3487510232,0.19106571,-0.7082066,-0.31413165,-0.6027096,11.790929794311523,-0.7370919585227966,0.5368475914001465,-33.84088897705078,216.96592712402344, -2.2855026721954346
253,3487526899,0.19986004,-0.6881059,-0.3045006,-0.6275715,12.224925994873047,-1.0578354597091675,0.660152792930603,-24.135835647583008,234.46900939941406, 7.396277904510498
254,3487543566,0.20977236,-0.6662006,-0.29250348,-0.65315723,13.32385540008545,-1.0345239639282227,0.33532875776290894,-28.114988327026367,251.29867553710938, 18.585168838500977
255,3487560233,0.22097082,-0.6426487,-0.27789855,-0.6789308,14.550222396850586,-1.6701232194900513,-0.5445743203163147,-31.970294952392578,265.95501708984375, 32.66791534423828
256,3487576900,0.233684,-0.6175979,-0.26110318,-0.7041235,15.571513175964355,-1.606428623199463,-1.2314302921295166,-32.12916946411133,276.7076416015625, 47.3668327331543
257,3487593567,0.24669246,-0.59162974,-0.24211004,-0.72835433,16.136425018310547,-1.2389014959335327,-1.3963690996170044,-38.31770324707031,281.27032470703125, 57.9666633605957
258,3487610234,0.25871086,-0.5655585,-0.2206868,-0.7513386,16.770479202270508,-1.2706434726715088,-1.8090037107467651,-52.3203239440918,279.36248779296875, 64.77933502197266
259,3487626901,0.270159,-0.5401372,-0.19815063,-0.77201194,17.19780921936035,-1.511414647102356,-2.5718495845794678,-57.909942626953125,268.34832763671875, 71.2247314453125
260,3487643568,0.27989772,-0.5166477,-0.17430073,-0.7901594,16.527212142944336,-0.4098155200481415,-2.849982738494873,-71.41412353515625,249.08670043945312, 74.30329895019531
261,3487660235,0.2858895,-0.49642056,-0.14771846,-0.8062341,15.868205070495605,1.0785831212997437,-3.0421454906463623,-103.3486557006836,225.05755615234375, 71.56539916992188
262,3487676902,0.28850183,-0.47919473,-0.11932036,-0.82030594,14.615862846374512,0.38259607553482056,-4.534275054931641,-128.84971618652344,202.03179931640625, 66.06373596191406
263,3487693569,0.2931383,-0.46364647,-0.098389335,-0.83031416,12.90269947052002,0.3741104006767273,-6.040911674499512,-80.03842163085938,166.3566436767578, 62.37468338012695
264,3487710236,0.2976463,-0.4512008,-0.083994076,-0.8371199,11.199028015136719,2.491128444671631,-7.435150623321533,-47.20792007446289,125.5212173461914, 49.43064880371094
265,3487726903,0.30124974,-0.44311073,-0.076000825,-0.84090763,9.758321762084961,3.2987611293792725,-8.00025749206543,-20.36309814453125,77.82401275634766, 33.16443634033203
266,3487743570,0.30342755,-0.43981194,-0.07378035,-0.8420532,9.133135795593262,3.7853307723999023,-7.955081462860107,0.0795469582080841,29.71717071533203, 15.422394752502441
267,3487760237,0.30412334,-0.44089162,-0.07499834,-0.8411297,8.964375495910645,2.911353588104248,-7.68145227432251,7.383601188659668,-9.487499237060547, 3.108058214187622
268,3487776904,0.30353752,-0.44549885,-0.07813092,-0.8386246,9.084593772888184,2.2456023693084717,-6.665870189666748,7.975551605224609,-39.0375862121582, -4.8927321434021
269,3487793571,0.3020204,-0.452676,-0.08321303,-0.83483154,9.182368278503418,2.909522533416748,-5.8122429847717285,11.671985626220703,-62.09242248535156, -12.091047286987305
270,3487810238,0.29923618,-0.4616327,-0.08885803,-0.83033574,9.799120903015137,3.346999406814575,-4.290835380554199,7.625547885894775,-76.13682556152344, -18.553451538085938
271,3487826905,0.29487,-0.47245744,-0.0944429,-0.8251765,9.801778793334961,3.8374381065368652,-4.038052558898926,-1.2294470071792603,-89.53495788574219, -24.78744125366211
272,3487843572,0.28893805,-0.48456565,-0.09935516,-0.81965816,10.059682846069336,3.483363389968872,-3.7571256160736084,-12.554055213928223,-97.43839263916016, -29.80031394958496
273,3487860239,0.28241146,-0.49707898,-0.10476742,-0.8137444,9.800235748291016,3.23602557182312,-3.3930366039276123,-12.299445152282715,-102.25279235839844, -33.636192321777344
274,3487876906,0.27513108,-0.5098201,-0.110411845,-0.80758625,9.65642261505127,3.7623555660247803,-3.1328418254852295,-13.885700225830078,-105.19510650634766, -37.89712905883789
275,3487893573,0.26621175,-0.52269727,-0.11487603,-0.8016997,9.964272499084473,4.383399963378906,-2.1211633682250977,-26.707826614379883,-103.8680191040039, -43.14528274536133
276,3487910240,0.25467524,-0.53543955,-0.11568352,-0.7969081,12.519601821899414,1.5308557748794556,5.486832618713379,-56.937252044677734,-94.46561431884766, -46.36642074584961
277,3487926907,0.24681863,-0.5440441,-0.11731918,-0.7933051,13.92219066619873,-6.585378170013428,11.450008392333984,-32.591392517089844,-66.05714416503906, -34.541282653808594
278,3487943574,0.23708665,-0.55602723,-0.121456966,-0.78731954,18.613876342773438,-1.7157185077667236,-1.4609434604644775,-29.69900131225586,-99.4665756225586, -47.530216217041016
279,3487960241,0.22863483,-0.56965435,-0.1325717,-0.77823186,16.768875122070312,-2.5167081356048584,0.2909921109676361,12.884665489196777,-130.3393096923828, -60.86524963378906
280,3487976908,0.22111203,-0.58381677,-0.1482432,-0.76700157,14.444570541381836,-0.2012423872947693,1.9588077068328857,42.035972595214844,-147.81900024414062, -69.97510528564453
281,3487993575,0.21195547,-0.5988783,-0.16210596,-0.755077,10.088920593261719,0.1253945529460907,1.0980093479156494,25.2525577545166,-154.26670837402344, -69.39739990234375
282,3488010242,0.20285174,-0.6130351,-0.17185989,-0.74397796,6.385701656341553,2.561249256134033,1.519649863243103,4.528948783874512,-140.15753173828125, -54.4324836730957
283,3488026909,0.19268723,-0.62501544,-0.17600688,-0.7356964,6.827237606048584,4.761104583740234,1.3470516204833984,-28.913911819458008,-110.67569732666016, -42.646549224853516
284,3488043576,0.18322878,-0.6342947,-0.17957754,-0.72928,10.709684371948242,6.981898307800293,-2.1685585975646973,-27.49724578857422,-87.47003936767578, -42.181007385253906
285,3488060243,0.17816791,-0.6430244,-0.18633237,-0.7211492,11.776416778564453,0.26298537850379944,-3.8012747764587402,10.421211242675781,-90.70543670654297, -32.32072067260742
286,3488076910,0.17944172,-0.64972675,-0.19708726,-0.7119078,10.344175338745117,-0.3936285376548767,-2.1335082054138184,62.1689567565918,-82.21723175048828, -19.89623260498047
287,3488093577,0.1815338,-0.6552183,-0.20847706,-0.7030446,11.442543983459473,0.37899312376976013,-1.9339370727539062,69.94742584228516,-74.21603393554688, -20.948429107666016
288,3488110244,0.1815311,-0.6608703,-0.21800719,-0.6948164,12.520740509033203,-1.6285568475723267,-0.6930677890777588,50.410396575927734,-72.76677703857422, -23.344820022583008
289,3488126911,0.18186261,-0.66609836,-0.2276505,-0.6865962,12.998174667358398,-2.1781864166259766,-0.22743308544158936,52.99465560913086,-70.36702728271484, -23.062210083007812
290,3488143578,0.18224354,-0.6719942,-0.23725708,-0.67743653,13.360751152038574,-2.25612473487854,1.2695767879486084,53.69729232788086,-77.75027465820312, -20.616853713989258
291,3488160245,0.18438384,-0.67767227,-0.24873812,-0.6670025,13.051752090454102,0.2062661200761795,1.4980502128601074,72.91450500488281,-82.22578430175781, -20.029102325439453
292,3488176912,0.18654157,-0.6839088,-0.26135585,-0.6551063,12.989728927612305,1.9525089263916016,1.9748241901397705,80.01761627197266,-93.14754486083984, -22.539810180664062
293,3488193579,0.18839976,-0.6901686,-0.27376834,-0.6428249,12.236144065856934,1.3160532712936401,3.5218896865844727,78.36803436279297,-95.50301361083984, -22.425174713134766
294,3488210246,0.18988718,-0.6965162,-0.28626376,-0.6299692,12.021583557128906,1.383392333984375,2.149735927581787,77.97541809082031,-99.66265106201172, -23.603939056396484
295,3488226913,0.19220676,-0.7027387,-0.29987916,-0.6158632,12.323290824890137,0.6787624359130859,2.569047689437866,89.46187591552734,-105.1274642944336, -24.027706146240234
296,3488243580,0.19387202,-0.7092245,-0.31303447,-0.60118526,12.519278526306152,0.6510441303253174,3.3032195568084717,85.20323181152344,-109.97642517089844, -23.35093116760254
297,3488260247,0.1939292,-0.71622115,-0.3259125,-0.5858326,12.76595687866211,0.9743363857269287,2.801901340484619,77.0191650390625,-118.74732208251953, -26.717153549194336
298,3488276914,0.19184156,-0.723922,-0.33859926,-0.56963533,12.764427185058594,0.4447374641895294,3.1971042156219482,66.66668701171875,-130.57086181640625, -31.756668090820312
299,3488293581,0.18866058,-0.7317257,-0.35122573,-0.5528341,12.763361930847168,-0.09914619475603104,3.414689302444458,62.295684814453125,-136.75732421875, -34.76607131958008
300,3488310248,0.18653776,-0.7390911,-0.3639825,-0.5352241,12.639955520629883,-0.6061450839042664,3.374598503112793,70.6573486328125,-137.11314392089844, -31.487035751342773
301,3488326915,0.1869422,-0.7456471,-0.3768763,-0.51674694,11.649630546569824,-0.9673537015914917,3.0437405109405518,87.24539947509766,-132.7463836669922, -23.89537811279297
302,3488343582,0.18898389,-0.75087196,-0.38730603,-0.5004702,11.286169052124023,0.06545204669237137,4.420434474945068,82.8946533203125,-109.6662368774414, -11.814433097839355
303,3488360249,0.19024234,-0.75348675,-0.39329162,-0.4913117,9.79336929321289,2.2973010540008545,1.1899493932724,48.02442169189453,-60.65074920654297, -7.8095173835754395
304,3488376916,0.19039185,-0.75851053,-0.40245536,-0.47586,6.8864521980285645,4.659987449645996,-5.927143573760986,66.94242858886719,-108.79647827148438, -13.224501609802246
305,3488393583,0.18964027,-0.7642269,-0.41315773,-0.45748714,10.214966773986816,4.761200904846191,-8.44810962677002,74.51782989501953,-130.69674682617188, -18.298925399780273
306,3488410250,0.19024119,-0.76971275,-0.4224259,-0.4392119,8.877472877502441,0.37508562207221985,-2.8757619857788086,77.20309448242188,-123.6214370727539, -7.149476051330566
307,3488426917,0.19317397,-0.77290636,-0.4311455,-0.42357218,8.682239532470703,1.4014686346054077,11.390064239501953,83.23542022705078,-95.3565673828125, -7.325697422027588
308,3488443584,0.19236507,-0.7747536,-0.43526563,-0.41628903,4.116981506347656,1.4158258438110352,7.091064929962158,27.07056427001953,-52.69727325439453, -8.849055290222168
309,3488460251,0.18834816,-0.77595186,-0.4368398,-0.41424015,6.922708988189697,4.229912757873535,1.8327606916427612,-12.037213325500488,-29.57724952697754, -13.306326866149902
310,3488476918,0.18271366,-0.77658904,-0.4355186,-0.41695175,8.816410064697266,2.097271680831909,2.1147043704986572,-42.35808181762695,-3.9469563961029053, -10.212518692016602
311,3488493585,0.1802218,-0.77631885,-0.43263444,-0.42151725,9.023796081542969,1.9160932302474976,4.201990604400635,-34.40181350708008,19.600757598876953, 2.107943296432495
312,3488510252,0.17809027,-0.77543294,-0.42661718,-0.43009943,8.288286209106445,3.4984166622161865,3.466899871826172,-52.67927169799805,47.360618591308594, 13.060263633728027
313,3488526919,0.17474312,-0.77382207,-0.4174877,-0.44313475,8.249247550964355,3.2358789443969727,1.3060964345932007,-80.45167541503906,73.1258544921875, 18.518922805786133
314,3488543586,0.17287494,-0.77096695,-0.40673003,-0.45857942,8.393899917602539,1.7154916524887085,-0.11338070034980774,-82.90919494628906,95.66808319091797, 25.240577697753906
315,3488560253,0.17439961,-0.7661195,-0.39580488,-0.47537813,8.558578491210938,1.9807655811309814,0.17332400381565094,-66.8689956665039,118.61483001708984, 29.608484268188477
316,3488576920,0.17785239,-0.7591183,-0.38487187,-0.49394506,8.695359230041504,2.6478331089019775,0.3385034203529358,-58.97119140625,140.0218505859375, 27.962631225585938
317,3488593587,0.18139158,-0.7496721,-0.37369886,-0.5152068,9.112872123718262,3.360023021697998,0.8798056840896606,-63.46483612060547,162.7180938720703, 19.764841079711914
318,3488610254,0.18325968,-0.73803455,-0.36104715,-0.5397835,9.807148933410645,2.467231273651123,1.3743536472320557,-83.07493591308594,184.90965270996094, 11.743406295776367
319,3488626921,0.18401326,-0.7243449,-0.34657648,-0.56687605,11.01159381866455,1.3292943239212036,1.0046977996826172,-99.12903594970703,204.59385681152344, 8.55113697052002
320,3488643588,0.18463068,-0.7085825,-0.3301458,-0.59567285,11.998163223266602,0.3626475930213928,0.7324696779251099,-108.89051818847656,223.1205596923828, 10.58800220489502
321,3488660255,0.18753435,-0.6905883,-0.3124521,-0.624734,13.115657806396484,-1.103840708732605,0.26059919595718384,-100.72110748291016,240.18455505371094, 20.55513572692871
322,3488676922,0.19462599,-0.6700912,-0.2946755,-0.6528897,14.095706939697266,-1.2612944841384888,-0.024632811546325684,-76.05301666259766,255.644775390625, 34.52352523803711
323,3488693589,0.20505154,-0.6477314,-0.27695146,-0.67948204,14.803192138671875,-0.7582091093063354,-0.25849300622940063,-54.83633804321289,263.4524230957031, 47.38132858276367
324,3488710256,0.21701561,-0.62417525,-0.25881532,-0.70450276,15.48017406463623,0.05952734127640724,-0.1090269684791565,-45.25315856933594,265.58953857421875, 56.20827102661133
325,3488726923,0.22937977,-0.5998693,-0.23971367,-0.7280653,16.083375930786133,-0.2471950352191925,-0.2687060236930847,-44.55868911743164,265.20977783203125, 63.05217361450195
326,3488743590,0.24232902,-0.5749835,-0.22036196,-0.74974096,16.49849510192871,-0.45136743783950806,-0.8501977920532227,-39.41953659057617,261.8607177734375, 68.95437622070312
327,3488760257,0.25452763,-0.5501221,-0.19976555,-0.76985395,16.82672119140625,-0.5130477547645569,-1.282052755355835,-46.529701232910156,256.77630615234375, 72.5713882446289
328,3488776924,0.26490194,-0.5261597,-0.17725939,-0.78839207,17.03191375732422,-0.507931649684906,-2.3890626430511475,-63.008995056152344,247.28005981445312, 74.05389404296875
329,3488793591,0.27375594,-0.5050475,-0.15339358,-0.80402434,16.33470916748047,-1.0981481075286865,-3.7120397090911865,-77.52986145019531,222.45294189453125, 79.45729064941406
330,3488810258,0.2789938,-0.48716158,-0.12686568,-0.81776613,15.66087818145752,1.803547978401184,-2.1898422241210938,-108.91238403320312,199.88670349121094, 75.59801483154297
331,3488826925,0.2813791,-0.47224984,-0.10034071,-0.8292995,14.107343673706055,0.4857173264026642,-4.454788684844971,-122.28833770751953,173.86180114746094, 66.48200988769531
332,3488843592,0.2856944,-0.4593117,-0.084019765,-0.83687043,12.55519962310791,2.355576992034912,-5.669250011444092,-58.91956329345703,132.0098114013672, 53.46685791015625
333,3488860259,0.28917372,-0.45035702,-0.07457456,-0.84142476,10.571503639221191,3.1623315811157227,-6.952094554901123,-28.15469741821289,86.2910385131836, 35.357810974121094
334,3488876926,0.29129004,-0.44666484,-0.07095102,-0.8429749,9.973675727844238,3.6742279529571533,-7.126014709472656,-7.685094833374023,34.991146087646484, 18.3577938079834
335,3488893593,0.29203144,-0.44762763,-0.07262398,-0.84206474,9.721074104309082,3.697031021118164,-6.332568645477295,10.575626373291016,-10.109249114990234, 1.5712568759918213
336,3488910260,0.29107574,-0.45214885,-0.07703913,-0.83958393,9.661263465881348,3.0129809379577637,-5.328100681304932,14.770354270935059,-41.233924865722656, -11.522839546203613
337,3488926927,0.2885094,-0.45957437,-0.0822598,-0.83593494,9.76711368560791,2.2985024452209473,-4.576612949371338,9.132512092590332,-63.48955154418945, -19.245121002197266
338,3488943594,0.28427428,-0.46925503,-0.08743277,-0.83147067,9.778026580810547,2.2182157039642334,-4.009558200836182,-0.4970010221004486,-79.31491088867188, -25.619306564331055
339,3488960261,0.27865723,-0.48049065,-0.09251447,-0.82638985,9.919916152954102,2.77653431892395,-3.786715030670166,-8.21265697479248,-90.3266372680664, -30.9055233001709
340,3488976928,0.27181855,-0.4929647,-0.0972387,-0.82075894,9.918844223022461,3.3929593563079834,-3.924452543258667,-16.38771629333496,-98.77547454833984, -34.60810852050781
341,3488993595,0.26412982,-0.50629383,-0.101822436,-0.814576,9.933671951293945,3.7666471004486084,-4.159158229827881,-21.391918182373047,-105.29023742675781, -37.069679260253906
342,3489010262,0.25635034,-0.51974434,-0.107445605,-0.80784035,9.95888900756836,4.488344192504883,-4.761637210845947,-15.821554183959961,-109.36225128173828, -39.827354431152344
343,3489026929,0.2494032,-0.5329393,-0.115575425,-0.80026007,10.024872779846191,4.8129777908325195,-5.193456172943115,2.0422909259796143,-114.26016998291016, -42.556983947753906
344,3489043596,0.24232505,-0.5461798,-0.12494682,-0.79205716,10.402520179748535,5.059192180633545,-3.4285590648651123,8.702187538146973,-118.50707244873047, -46.41999816894531
345,3489060263,0.23694438,-0.5571265,-0.13173804,-0.78492844,13.05336856842041,-5.309298515319824,11.837623596191406,3.8036410808563232,-95.81379699707031, -30.94151496887207
346,3489076930,0.23192425,-0.56499064,-0.13725817,-0.7798444,11.842074394226074,-2.709627866744995,9.271394729614258,1.608337163925171,-69.44383239746094, -30.518056869506836
347,3489093597,0.22178373,-0.577294,-0.14172132,-0.77295464,16.47593879699707,-0.6351832747459412,-2.6260952949523926,-29.279993057250977,-103.80691528320312, -46.91128158569336
348,3489110264,0.21338278,-0.59085834,-0.15270454,-0.7629127,14.986428260803223,-1.5137827396392822,0.44182151556015015,13.41247844696045,-130.85751342773438, -57.492919921875
349,3489126931,0.2050815,-0.60490555,-0.16482942,-0.75157326,11.882899284362793,-1.3805466890335083,2.0170774459838867,20.468273162841797,-140.06686401367188, -59.28845977783203
350,3489143598,0.19691467,-0.61831325,-0.17691235,-0.7400105,10.241585731506348,1.5851097106933594,0.7141615152359009,21.968584060668945,-137.4987030029297, -58.94068145751953
351,3489160265,0.18980227,-0.6312431,-0.18861489,-0.72796404,9.000728607177734,3.263517379760742,-1.2979398965835571,25.720500946044922,-135.3053436279297, -51.836830139160156
352,3489176932,0.18480042,-0.6428538,-0.20010448,-0.7159232,8.17655086517334,4.3345627784729,-0.5181112289428711,35.50467300415039,-125.54157257080078, -41.93531799316406
353,3489193599,0.17941517,-0.6536097,-0.2108379,-0.70438075,10.200632095336914,3.8087470531463623,-1.2810359001159668,30.47677230834961,-118.65142822265625, -42.10775375366211
354,3489210266,0.17460924,-0.6640666,-0.22131719,-0.6924928,11.738851547241211,-0.8511943221092224,-0.16281214356422424,32.689327239990234,-117.52213287353516, -38.03095245361328
355,3489226933,0.17228088,-0.67303246,-0.23322567,-0.6804062,11.129422187805176,-0.29884839057922363,-0.08768419921398163,52.94450378417969,-109.29348754882812, -34.97468566894531
356,3489243600,0.16885561,-0.6818721,-0.24281763,-0.6690127,12.657692909240723,-1.3258270025253296,-1.7674466371536255,36.07914733886719,-104.56291961669922, -30.56905174255371
357,3489260267,0.16557357,-0.6900461,-0.2500653,-0.65870285,12.54546070098877,-0.9826660752296448,-2.223809242248535,24.93358612060547,-93.44149780273438, -21.499696731567383
358,3489276934,0.16227677,-0.69770133,-0.25547874,-0.649315,12.564432144165039,-0.4758807122707367,-1.5145597457885742,15.564542770385742,-84.6378173828125, -14.983407974243164
359,3489293601,0.16066648,-0.70424086,-0.26170737,-0.6401097,12.012889862060547,0.0209355466067791,-0.3871228098869324,28.229867935180664,-76.78124237060547, -13.683966636657715
360,3489310268,0.15958726,-0.7103171,-0.2689798,-0.6305805,12.209351539611816,1.545606255531311,-0.14349587261676788,36.5067253112793,-76.64901733398438, -17.01907730102539
361,3489326935,0.1584196,-0.7161602,-0.276922,-0.6207514,12.100556373596191,1.6913989782333374,1.2247194051742554,39.82907485961914,-78.19804382324219, -20.843429565429688
362,3489343602,0.15779747,-0.72149754,-0.2849961,-0.61099803,11.910175323486328,1.3055208921432495,1.6346971988677979,43.522682189941406,-75.12137603759766, -20.283302307128906
363,3489360269,0.1596029,-0.72652817,-0.29506496,-0.5996837,12.004565238952637,0.8236770629882812,0.6405057907104492,67.40191650390625,-79.40044403076172, -19.012802124023438
364,3489376936,0.16187754,-0.73150647,-0.30732226,-0.58672583,11.357409477233887,2.0283167362213135,2.585402011871338,82.20706939697266,-89.23365020751953, -26.485586166381836
365,3489393603,0.16210231,-0.73693615,-0.3189988,-0.5734875,12.15292739868164,1.6415334939956665,1.788830041885376,69.71537780761719,-96.67304992675781, -30.658458709716797
366,3489410270,0.16178803,-0.7426564,-0.330705,-0.5593929,13.321354866027832,0.6192920804023743,1.8885226249694824,68.73052215576172,-103.87470245361328, -31.44936752319336
367,3489426937,0.16109592,-0.74870044,-0.34193882,-0.5445859,12.217296600341797,-0.9246101975440979,1.9848346710205078,66.29241943359375,-109.62947082519531, -29.11550521850586
368,3489443604,0.16089241,-0.75465304,-0.35299468,-0.52915716,12.297015190124512,-1.2318251132965088,1.6296496391296387,69.7286148071289,-111.66073608398438, -26.106069564819336
369,3489460271,0.16090083,-0.76045984,-0.36312923,-0.51375985,12.225717544555664,-1.6651724576950073,1.9339489936828613,67.58041381835938,-109.92510986328125, -21.146852493286133
370,3489476938,0.16224082,-0.76581717,-0.3728909,-0.49815097,11.49936294555664,-2.0406036376953125,1.8662614822387695,74.25697326660156,-106.19957733154297, -15.575044631958008
371,3489493605,0.16495553,-0.770739,-0.38169435,-0.48276326,10.26792049407959,-1.5197458267211914,2.394946336746216,78.12165832519531,-99.40215301513672, -7.358610153198242
372,3489510272,0.16610621,-0.7745443,-0.3862907,-0.47251415,9.416753768920898,0.6088748574256897,2.751997232437134,43.6542854309082,-68.21524810791016, 0.870486855506897
373,3489526939,0.1662867,-0.77902657,-0.39184967,-0.46034798,7.136423587799072,3.9947125911712646,-3.7383711338043213,45.98686218261719,-84.68160247802734, -3.4205853939056396
374,3489543606,0.16305363,-0.7852535,-0.39840358,-0.44504514,10.292314529418945,6.094809055328369,-8.926692962646484,37.39714813232422,-117.35262298583984, -11.119583129882812
375,3489560273,0.15771024,-0.7922573,-0.40364105,-0.42956942,11.228555679321289,3.7118475437164307,-5.213451385498047,21.679702758789062,-124.86033630371094, -7.944934368133545
376,3489576940,0.15842518,-0.79745257,-0.41021392,-0.41315305,9.50988483428955,-0.5331182479858398,4.5889081954956055,63.27397155761719,-109.36882019042969, -1.2474597692489624
377,3489593607,0.16434425,-0.80066276,-0.41509134,-0.39953646,6.014059543609619,-0.9575174450874329,5.943315029144287,81.2659912109375,-72.2664794921875, 14.123357772827148
378,3489610274,0.16843216,-0.803192,-0.41758472,-0.3900467,7.369088172912598,3.018017292022705,2.5566155910491943,53.62362289428711,-50.538028717041016, 15.564937591552734
379,3489626941,0.1679463,-0.80562884,-0.41669762,-0.3861596,8.729874610900879,4.135219573974609,2.1648776531219482,3.396980047225952,-28.78506851196289, 15.29139518737793
380,3489643608,0.16457023,-0.8080423,-0.4126241,-0.38694406,9.48037052154541,3.6268503665924072,3.7456018924713135,-34.33327865600586,-7.670252799987793, 19.890764236450195
381,3489660275,0.15795125,-0.8099709,-0.40520486,-0.39345595,9.16459846496582,4.169671058654785,3.1888115406036377,-76.8726577758789,19.753387451171875, 22.032241821289062
382,3489676942,0.14900869,-0.811246,-0.39506036,-0.40447953,8.720720291137695,2.129598617553711,2.4996955394744873,-108.980224609375,42.91212463378906, 24.239757537841797
383,3489693609,0.14280555,-0.8109321,-0.38493648,-0.41691712,8.44375228881836,2.3467912673950195,1.7361187934875488,-95.83993530273438,62.47401809692383, 25.938617706298828
384,3489710276,0.13748205,-0.8086707,-0.37451407,-0.43230724,8.88044261932373,4.352518558502197,1.4746404886245728,-97.68328857421875,87.0281753540039, 22.043149948120117
385,3489726943,0.13239229,-0.80468845,-0.3631049,-0.45067027,9.06747817993164,3.0638511180877686,0.8352252244949341,-105.30422973632812,110.11125946044922, 21.007835388183594
386,3489743610,0.13025829,-0.79824877,-0.35189393,-0.4711716,9.795526504516602,3.061889886856079,0.9261051416397095,-91.42112731933594,136.69273376464844, 20.97225570678711
387,3489760277,0.13002051,-0.7895342,-0.34029827,-0.49389017,10.129842758178711,1.9610399007797241,1.5474560260772705,-85.5887451171875,161.1027069091797, 21.733623504638672
388,3489776944,0.13059512,-0.77880776,-0.3276027,-0.5187293,10.63227653503418,1.6890251636505127,1.5987836122512817,-88.08934783935547,182.2662811279297, 23.821191787719727
389,3489793611,0.13174449,-0.76612663,-0.3131231,-0.54557097,11.518935203552246,0.22590817511081696,0.5347881317138672,-94.15435791015625,202.8072509765625, 29.178321838378906
390,3489810278,0.13763371,-0.7509609,-0.29918382,-0.5723669,12.478455543518066,-1.1766718626022339,0.17729300260543823,-64.8420639038086,221.59194946289062, 38.72328186035156
391,3489826945,0.14732015,-0.73306894,-0.2862985,-0.5991161,13.250941276550293,-0.22338101267814636,-0.2015671730041504,-38.472869873046875,238.91043090820312, 42.569122314453125
392,3489843612,0.15819393,-0.7128348,-0.273207,-0.6262584,14.07674503326416,-0.45073869824409485,-0.8167902231216431,-31.771520614624023,253.1437530517578, 43.43768310546875
393,3489860279,0.16977565,-0.6906944,-0.25949097,-0.65328544,15.319108963012695,-0.43209636211395264,-1.9942340850830078,-28.71583366394043,262.8977966308594, 46.041568756103516
394,3489876946,0.1810398,-0.66707957,-0.24459293,-0.6800029,15.783618927001953,-0.2228444665670395,-2.580536365509033,-33.32319641113281,269.0174255371094, 47.92075729370117
395,3489893613,0.19038819,-0.64258546,-0.22736518,-0.70649946,15.951598167419434,-0.05553632974624634,-2.421424388885498,-51.56407928466797,271.99505615234375, 48.412193298339844
396,3489910280,0.19796094,-0.61754125,-0.20669256,-0.7326203,16.84539794921875,-0.6143180131912231,-3.1279187202453613,-74.86993408203125,274.9654846191406, 54.6121940612793
397,3489926947,0.2058674,-0.5919184,-0.18445067,-0.7571192,17.469825744628906,-0.6532573103904724,-3.959179162979126,-78.2737045288086,273.8675231933594, 64.30934143066406
398,3489943614,0.21302205,-0.56704646,-0.16121596,-0.7791595,16.91419219970703,0.6679046750068665,-4.22479248046875,-84.47869873046875,260.70135498046875, 68.84239959716797
399,3489960281,0.21773364,-0.5442345,-0.13577074,-0.79872847,16.57126235961914,1.9606001377105713,-4.020483493804932,-106.14368438720703,240.87232971191406, 70.30158996582031
400,3489976948,0.22051959,-0.5242744,-0.109337695,-0.81520104,15.983449935913086,2.611037254333496,-4.29182243347168,-120.17337036132812,213.6103515625, 70.7922592163086
401,3489993615,0.22167104,-0.50694567,-0.0828822,-0.8288538,14.996284484863281,2.5315628051757812,-5.289076805114746,-128.08485412597656,187.80581665039062, 68.06593322753906
402,3490010282,0.22682914,-0.49149007,-0.06532071,-0.83828366,12.701659202575684,0.8725734353065491,-7.613882064819336,-63.91101837158203,151.43890380859375, 67.49449920654297
403,3490026949,0.23500337,-0.47861195,-0.058866806,-0.84394246,10.699490547180176,3.5895798206329346,-8.591327667236328,7.9856157302856445,108.18501281738281, 54.443817138671875
404,3490043616,0.24330787,-0.47027954,-0.060642537,-0.84614486,8.966252326965332,4.8284454345703125,-8.943164825439453,50.190494537353516,57.48997116088867, 35.64300537109375
405,3490060283,0.24898115,-0.4678567,-0.06622013,-0.8454191,8.292363166809082,5.407315731048584,-8.394244194030762,55.095027923583984,6.454648017883301, 15.508844375610352
406,3490076950,0.25131425,-0.47079238,-0.07272288,-0.84256,8.126773834228516,4.428706169128418,-7.198739051818848,41.46742630004883,-34.426239013671875, -0.6948795914649963
407,3490093617,0.25047514,-0.47784066,-0.07909284,-0.83825713,8.5861177444458,3.6030454635620117,-5.887282848358154,24.003000259399414,-64.09319305419922, -14.014522552490234
408,3490110284,0.24696761,-0.48780677,-0.08519787,-0.83294237,9.155658721923828,3.3586184978485107,-4.4613518714904785,9.204276084899902,-85.08074951171875, -25.12855339050293
409,3490126951,0.2410044,-0.49987572,-0.09061711,-0.8269401,9.537149429321289,3.315091848373413,-3.3453588485717773,-6.159595966339111,-99.59033203125, -34.42918395996094
410,3490143618,0.23308326,-0.5132591,-0.09529808,-0.8204606,9.712928771972656,3.1058099269866943,-2.6867756843566895,-18.999799728393555,-108.62027740478516, -41.3455924987793
411,3490160285,0.22424266,-0.52711123,-0.099693775,-0.81359106,9.736726760864258,2.6790759563446045,-2.2281720638275146,-24.377866744995117,-112.72817993164062, -44.52760314941406
412,3490176952,0.21553792,-0.5406638,-0.104443155,-0.8064229,9.816312789916992,2.413986921310425,-1.9738655090332031,-21.265653610229492,-112.54671478271484, -44.74109649658203
413,3490193619,0.20747204,-0.55345964,-0.11045232,-0.79902333,10.287514686584473,3.451007843017578,-2.0605528354644775,-10.627569198608398,-110.5914077758789, -46.036624908447266
414,3490210286,0.19965051,-0.5651691,-0.116419524,-0.7919408,13.623687744140625,0.8208059668540955,6.335490703582764,-8.629243850708008,-103.14147186279297, -45.74944305419922
415,3490226953,0.19376326,-0.5750953,-0.12544598,-0.78484696,15.435064315795898,-1.5345538854599,6.509486198425293,17.992507934570312,-96.25926971435547, -48.52668762207031
416,3490243620,0.18317924,-0.5879463,-0.13288909,-0.7765984,16.382936477661133,-1.9436179399490356,0.6465643644332886,-12.007250785827637,-118.68099975585938, -63.60780334472656
417,3490260287,0.17291787,-0.60185903,-0.14321229,-0.7663913,14.036873817443848,-1.3486844301223755,0.8611107468605042,5.147762775421143,-135.60130310058594, -70.150634765625
418,3490276954,0.16510183,-0.61530167,-0.1560183,-0.7548533,11.942837715148926,-0.23871493339538574,0.5395655632019043,30.222423553466797,-139.2005157470703, -66.48369598388672
419,3490293621,0.1574813,-0.6277776,-0.16716427,-0.7437414,9.657787322998047,1.9103145599365234,0.14366137981414795,23.088653564453125,-130.3189697265625, -60.00738525390625
420,3490310288,0.15021545,-0.63883,-0.1754236,-0.7338652,8.054309844970703,2.8239545822143555,0.5825990438461304,9.946178436279297,-114.21289825439453, -48.70498275756836
421,3490326955,0.14332494,-0.6482076,-0.18214577,-0.7253331,10.031646728515625,6.816763401031494,-0.7581698894500732,3.993213415145874,-97.87786102294922, -43.43454360961914
422,3490343622,0.1372664,-0.65726084,-0.18832198,-0.71672946,11.681498527526855,3.06046199798584,-2.5248188972473145,5.344996452331543,-95.0306396484375, -37.0850944519043
423,3490360289,0.13656344,-0.66481066,-0.19712111,-0.70747477,10.449277877807617,-0.4726857542991638,-1.864153504371643,44.74972152709961,-86.09698486328125, -23.872207641601562
424,3490376956,0.1383157,-0.6702664,-0.2075789,-0.69894403,10.845770835876465,0.631175696849823,-2.4610118865966797,65.04086303710938,-70.84636688232422, -23.11406707763672
425,3490393623,0.1392629,-0.67490727,-0.21814181,-0.6910284,12.191247940063477,0.18241876363754272,-2.216620922088623,61.72414016723633,-65.35365295410156, -29.279417037963867
426,3490410290,0.14108239,-0.6792218,-0.2293095,-0.68276703,13.372552871704102,-3.5579843521118164,-1.043029546737671,69.50260162353516,-64.6961898803711, -28.176513671875
427,3490426957,0.145444,-0.68354714,-0.24206123,-0.6730645,14.161924362182617,-2.521991491317749,0.14329656958580017,91.06361389160156,-69.06555938720703, -22.38608169555664
428,3490443624,0.15193902,-0.6879557,-0.25561875,-0.6620353,13.479850769042969,-0.509043276309967,1.2123056650161743,106.95599365234375,-73.03099822998047, -14.975004196166992
429,3490460291,0.15847972,-0.6926575,-0.26846126,-0.650414,12.804924964904785,1.5887991189956665,1.8382079601287842,104.65357208251953,-76.45381927490234, -10.338631629943848
430,3490476958,0.16396289,-0.6977716,-0.27991042,-0.6386558,12.183310508728027,1.3175758123397827,2.7920193672180176,93.23175811767578,-79.50822448730469, -7.557466983795166
431,3490493625,0.169693,-0.702904,-0.29128113,-0.6263272,11.529562950134277,0.8730661869049072,2.4989125728607178,95.16304779052734,-81.90972900390625, -5.4483160972595215
432,3490510292,0.175052,-0.7081675,-0.302559,-0.61344427,11.145875930786133,1.5607144832611084,2.155601739883423,93.94343566894531,-85.92817687988281, -5.719898223876953
433,3490526959,0.1775826,-0.71405536,-0.3121351,-0.60096675,11.09559440612793,2.2675650119781494,1.604943037033081,71.42328643798828,-90.54998779296875, -8.563702583312988
434,3490543626,0.17645122,-0.7209833,-0.31960392,-0.5889835,10.95913314819336,1.490976095199585,1.3783923387527466,42.42203140258789,-97.82257843017578, -11.707258224487305
435,3490560293,0.17365873,-0.7285434,-0.3260002,-0.5768806,10.912761688232422,-0.16943718492984772,1.1040006875991821,29.36370086669922,-103.43359375, -11.585817337036133
436,3490576960,0.17039558,-0.73621845,-0.33252782,-0.5642457,10.690800666809082,-0.5810935497283936,0.8297918438911438,28.582948684692383,-107.87342834472656, -13.24734878540039
437,3490593627,0.16595076,-0.7441006,-0.33873925,-0.5513897,10.468932151794434,-0.8691478967666626,-0.04937487095594406,21.64756965637207,-112.22713470458984, -15.538480758666992
438,3490610294,0.16147004,-0.75193506,-0.3448431,-0.5381491,10.787665367126465,-1.3794735670089722,1.1830049753189087,21.99906349182129,-114.05970001220703, -14.83386516571045
439,3490626961,0.15732804,-0.75950533,-0.35009873,-0.5251958,10.359335899353027,-1.989689826965332,1.382131814956665,20.222450256347656,-109.96456909179688, -10.189823150634766
440,3490643628,0.15402587,-0.76643133,-0.35459298,-0.5129553,10.76881217956543,-0.8647904396057129,2.810519218444824,20.831396102905273,-101.18562316894531, -5.559279441833496
441,3490660295,0.1486992,-0.77180505,-0.35604426,-0.505409,10.514760971069336,0.8061152696609497,2.548330068588257,-10.364620208740234,-72.83177947998047, -5.454699993133545
442,3490676962,0.14267357,-0.7770139,-0.3581703,-0.497602,8.48983383178711,1.9903286695480347,-0.23081105947494507,-10.905866622924805,-76.1800765991211, -11.605953216552734
443,3490693629,0.13629754,-0.7841002,-0.36190966,-0.48541874,9.092985153198242,2.615119218826294,-1.6922811269760132,1.6999285221099854,-108.48934936523438, -12.487215042114258
444,3490710296,0.13174087,-0.7917394,-0.36737242,-0.46992636,10.704832077026367,2.945382833480835,-3.377737283706665,24.99010467529297,-125.30740356445312, -11.19437313079834
445,3490726963,0.1270195,-0.7987771,-0.37387666,-0.45391366,11.416614532470703,4.778649806976318,-2.131782054901123,29.33899688720703,-127.59049224853516, -18.410823822021484
446,3490743630,0.12242174,-0.804947,-0.3798889,-0.43904224,12.004195213317871,4.664644718170166,-0.7380368709564209,26.355344772338867,-117.9369888305664, -18.4949951171875
447,3490760297,0.117132664,-0.80920297,-0.38399276,-0.4289758,9.36687183380127,2.057745933532715,8.525016784667969,5.880523681640625,-85.87329864501953, -19.016056060791016
448,3490776964,0.11285557,-0.81211007,-0.38644853,-0.4223724,8.04883861541748,0.926356315612793,7.306828022003174,-1.348090410232544,-58.86552047729492, -13.21505355834961
449,3490793631,0.112702385,-0.81438303,-0.3872283,-0.4172923,9.836358070373535,1.8573321104049683,4.258655548095703,13.293632507324219,-36.454017639160156, 5.236205101013184
450,3490810298,0.11277337,-0.81669855,-0.38605,-0.41382506,11.282427787780762,3.414005994796753,3.228670358657837,4.629926681518555,-25.592124938964844, 15.707096099853516
451,3490826965,0.112149864,-0.81939125,-0.38083822,-0.41350055,11.539201736450195,1.4014126062393188,3.114715337753296,-19.33954429626465,-7.895186424255371, 34.956703186035156
452,3490843632,0.11121305,-0.8213827,-0.372769,-0.41713968,10.035287857055664,1.1991997957229614,3.9293344020843506,-39.06379318237305,17.651737213134766, 45.246185302734375
453,3490860299,0.108800724,-0.82151407,-0.3628247,-0.42618722,8.906277656555176,4.050441265106201,3.882676362991333,-65.21309661865234,51.0368766784668, 42.664730072021484
454,3490876966,0.10411127,-0.81928486,-0.35179135,-0.44065413,8.902139663696289,5.739535808563232,2.5126826763153076,-92.9847412109375,83.5776138305664, 32.205894470214844
455,3490893633,0.1010435,-0.8143581,-0.34077328,-0.45878628,8.772316932678223,3.109654188156128,1.9798414707183838,-90.68599700927734,116.21820068359375, 27.914630889892578
456,3490910300,0.10213036,-0.8063061,-0.33104515,-0.4794257,8.828510284423828,2.7685952186584473,1.734582781791687,-67.033203125,148.88128662109375, 24.725116729736328
457,3490926967,0.10536003,-0.79523647,-0.3217361,-0.50297546,9.54358959197998,1.7649025917053223,0.7850065231323242,-58.255332946777344,179.4893341064453, 20.550752639770508
458,3490943634,0.111170955,-0.78121465,-0.3130274,-0.5285439,10.634913444519043,0.7678684592247009,0.4124872386455536,-44.3985710144043,205.9698486328125, 18.200992584228516
459,3490960301,0.120327845,-0.76419485,-0.3050253,-0.5554161,11.923515319824219,0.10385587811470032,-0.5817241668701172,-24.370328903198242,230.5008544921875, 19.09659767150879
460,3490976968,0.13365346,-0.744431,-0.2984013,-0.5821651,12.979244232177734,0.1370336413383484,-1.0952167510986328,5.313395023345947,247.92327880859375, 22.110990524291992
461,3490993635,0.14963219,-0.7223336,-0.29257187,-0.6084786,13.652569770812988,0.1155473068356514,-1.2952165603637695,25.114816665649414,259.7569580078125, 24.274620056152344
462,3491010302,0.16662169,-0.6984013,-0.2864203,-0.6343788,14.424895286560059,-0.2140892893075943,-1.6760281324386597,31.4769344329834,267.7676696777344, 26.852031707763672
463,3491026969,0.18314026,-0.6729845,-0.27887595,-0.66013634,14.87882137298584,-0.15923567116260529,-1.6708974838256836,25.11036491394043,274.2752380371094, 28.728086471557617
464,3491043636,0.19717789,-0.64650345,-0.26791412,-0.6865686,15.141719818115234,-0.1431223750114441,-1.9356555938720703,-1.8609055280685425,281.8474426269531, 30.384828567504883
465,3491060303,0.20876776,-0.6193733,-0.25254557,-0.7134519,16.004934310913086,-0.48224228620529175,-2.3147192001342773,-33.53763961791992,288.4873046875, 36.59114074707031
466,3491076970,0.2189599,-0.5921561,-0.23339525,-0.7395502,16.682931900024414,-0.6005687117576599,-3.0773110389709473,-56.551597595214844,288.71484375, 46.78048324584961
467,3491093637,0.22793612,-0.565661,-0.21076356,-0.7639709,16.96896743774414,-0.6981397271156311,-3.5294435024261475,-77.6335678100586,281.6855773925781, 58.409366607666016
468,3491110304,0.23628205,-0.5410246,-0.18529841,-0.7855749,16.526363372802734,-1.1886848211288452,-4.246628284454346,-93.86495971679688,264.7099304199219, 73.16619873046875
469,3491126971,0.24405544,-0.51911193,-0.15828419,-0.80368274,16.50737953186035,0.7192603945732117,-4.010951042175293,-104.30701446533203,239.0317840576172, 84.94977569580078
470,3491143638,0.24916674,-0.50001055,-0.12950128,-0.81922823,15.86166763305664,1.8037352561950684,-4.701696395874023,-125.56248474121094,214.69178771972656, 83.90179443359375
471,3491160305,0.2556762,-0.4818031,-0.107772954,-0.83119226,13.271998405456543,1.047984004020691,-7.3484625816345215,-79.34603881835938,186.7845916748047, 74.51087188720703
472,3491176972,0.26385048,-0.46621886,-0.09772552,-0.83873284,10.852518081665039,4.080943584442139,-9.298558235168457,-8.428620338439941,138.15496826171875, 55.0839958190918
473,3491193639,0.26992172,-0.45730814,-0.093365036,-0.8421964,8.828197479248047,4.522768020629883,-10.872175216674805,8.219428062438965,75.20695495605469, 36.7166633605957
474,3491210306,0.27367175,-0.45548266,-0.095022604,-0.84179,8.53431510925293,4.635889053344727,-10.808244705200195,25.0474796295166,9.69786548614502, 16.184879302978516
475,3491226973,0.27453417,-0.45917836,-0.100933544,-0.83880794,8.643817901611328,4.815209865570068,-8.745613098144531,31.86861801147461,-39.879085540771484, -5.290376663208008
476,3491243640,0.27214193,-0.46722406,-0.107002646,-0.8343806,9.377148628234863,3.6883177757263184,-6.530485153198242,15.232979774475098,-71.79850769042969, -18.716087341308594
477,3491260307,0.26681408,-0.47838834,-0.112127535,-0.8290852,9.905155181884766,3.359541654586792,-5.290774345397949,-4.8583269119262695,-92.62944793701172, -28.519006729125977
478,3491276974,0.2596295,-0.4912489,-0.11701408,-0.8231494,10.347452163696289,3.574244737625122,-4.288286209106445,-14.982098579406738,-105.1856689453125, -35.74770736694336
479,3491293641,0.25100127,-0.5051224,-0.121611096,-0.81673795,10.49285888671875,3.8081936836242676,-3.9194860458374023,-22.981237411499023,-112.98086547851562, -41.18490982055664
480,3491310308,0.2408666,-0.5198428,-0.12588526,-0.80987644,10.639846801757812,4.246542453765869,-4.099064826965332,-31.159507751464844,-119.83123016357422, -46.93022537231445
481,3491326975,0.22933951,-0.5349817,-0.13034426,-0.802626,11.224130630493164,5.154087543487549,-4.295619010925293,-35.51225280761719,-124.89872741699219, -54.21253204345703
482,3491343642,0.21747205,-0.5490144,-0.13416092,-0.7957952,13.755782127380371,0.8170521259307861,7.948225498199463,-39.010887145996094,-116.37515258789062, -55.23881149291992
483,3491360309,0.21062137,-0.55897117,-0.1406029,-0.7895701,14.485355377197266,-5.306976795196533,9.3265962600708,-0.16499006748199463,-91.19884490966797, -42.325416564941406
484,3491376976,0.19940343,-0.5729937,-0.14569704,-0.7814659,18.60640525817871,-2.1165261268615723,-2.820481061935425,-28.293567657470703,-122.9238052368164, -54.32506561279297
485,3491393643,0.19247745,-0.5877906,-0.1597559,-0.76937175,16.311878204345703,-2.5066568851470947,-0.6207625865936279,39.726261138916016,-150.62037658691406, -60.39191818237305
486,3491410310,0.18715757,-0.6030671,-0.1773111,-0.75487953,13.22520637512207,-0.8241605758666992,0.6296442747116089,66.7286148071289,-165.62376403808594, -62.42509460449219
487,3491426977,0.18067785,-0.6184359,-0.19229665,-0.74021256,8.975621223449707,0.8468028903007507,1.6454452276229858,48.65214538574219,-164.9123992919922, -57.52052688598633
488,3491443644,0.1724119,-0.63206166,-0.2018791,-0.7280228,6.428504943847656,4.161152362823486,2.354118824005127,12.440441131591797,-141.19491577148438, -49.02336120605469
489,3491460311,0.16320944,-0.64329123,-0.2071539,-0.71876746,7.60939884185791,6.7220025062561035,-1.5979801416397095,-14.417710304260254,-112.72132873535156, -41.69651412963867
490,3491476978,0.15553364,-0.6538367,-0.21246737,-0.70934105,11.463983535766602,3.590721845626831,-4.299037933349609,-6.513759613037109,-107.9450912475586, -34.94458770751953
491,3491493645,0.1531461,-0.66296214,-0.22075972,-0.6987795,11.093469619750977,-0.7316431403160095,-1.919891357421875,35.00141906738281,-101.47643280029297, -23.348838806152344
492,3491510312,0.15334408,-0.66946256,-0.22986442,-0.68954194,10.901944160461426,-0.20289182662963867,-1.1673238277435303,51.41088104248047,-79.73544311523438, -20.091691970825195
493,3491526979,0.15186208,-0.67463434,-0.23733023,-0.6822617,11.923648834228516,0.31495800614356995,-1.4921932220458984,34.22711181640625,-65.35398864746094, -24.7469425201416
494,3491543646,0.14843549,-0.6796538,-0.24269196,-0.67612004,13.468782424926758,-1.4781237840652466,-1.5176730155944824,13.635936737060547,-60.33751678466797, -25.596147537231445
495,3491560313,0.14676741,-0.68435836,-0.24947426,-0.6692353,13.846819877624512,-1.8262579441070557,-0.9320549964904785,30.023656845092773,-60.8719367980957, -23.930625915527344
496,3491576980,0.14938167,-0.6889615,-0.2594184,-0.6600903,13.45138931274414,-2.406205654144287,-0.2528457045555115,68.6776351928711,-66.92254638671875, -17.127605438232422
497,3491593647,0.15631878,-0.6934902,-0.27284756,-0.6482206,13.096358299255371,0.10940468311309814,0.5456621646881104,109.92225646972656,-75.4207534790039, -11.521256446838379
498,3491610314,0.16257162,-0.69867444,-0.28566542,-0.63546824,12.876487731933594,2.1006247997283936,2.4575862884521484,104.88404083251953,-83.26832580566406, -9.582192420959473
499,3491626981,0.16697732,-0.7041939,-0.29610607,-0.6233385,11.747757911682129,2.249882936477661,3.0621118545532227,84.05587005615234,-82.86213684082031, -6.309780597686768
500,3491643648,0.17027652,-0.7102162,-0.30523306,-0.61109054,11.33762264251709,1.9278457164764404,2.596693277359009,72.76253509521484,-86.50724029541016, -3.5493881702423096
501,3491660315,0.17214634,-0.71648824,-0.31405503,-0.5986483,11.029722213745117,2.07940936088562,2.8941855430603027,64.65079498291016,-91.3113021850586, -7.330626964569092
502,3491676982,0.17152971,-0.7230956,-0.32233548,-0.58635354,11.02987003326416,2.1959428787231445,2.246199131011963,49.4856071472168,-96.87310028076172, -14.350339889526367
503,3491693649,0.16854122,-0.7303746,-0.32994562,-0.5738318,10.9510498046875,0.8817721009254456,1.7238733768463135,34.72563934326172,-105.34365844726562, -18.81344223022461
504,3491710316,0.16459993,-0.7381301,-0.33754525,-0.56047666,11.25686264038086,0.24622361361980438,1.2714968919754028,31.261550903320312,-113.71770477294922, -20.498865127563477
505,3491726983,0.15862496,-0.7462952,-0.34431195,-0.54711133,10.981681823730469,0.37656810879707336,1.4739668369293213,17.296964645385742,-119.28555297851562, -23.184734344482422
506,3491743650,0.15163209,-0.75471735,-0.3501865,-0.533647,11.157687187194824,-0.7121490836143494,0.9387340545654297,8.695021629333496,-122.367431640625, -21.75627326965332
507,3491760317,0.14646612,-0.76303464,-0.3557735,-0.51937586,11.324934005737305,-2.332509756088257,1.1662371158599854,19.16538429260254,-121.63878631591797, -13.034712791442871
508,3491776984,0.14470373,-0.77076095,-0.36196417,-0.5039547,10.952935218811035,-2.1891982555389404,1.248210072517395,42.56644821166992,-118.0315170288086, -4.445804595947266
509,3491793651,0.14501818,-0.777951,-0.36798516,-0.4882099,10.584922790527344,-0.9945265054702759,2.041851758956909,54.297386169433594,-112.7486572265625, 2.5372636318206787
510,3491810318,0.14480172,-0.78377223,-0.3718126,-0.47590855,10.644633293151855,1.2842803001403809,3.8242781162261963,36.74125671386719,-89.11090087890625, 5.5278825759887695
511,3491826985,0.14295362,-0.78856915,-0.37500665,-0.46593234,8.695261001586914,3.5127947330474854,0.7132436037063599,20.990060806274414,-77.0458984375, -1.334733486175537
512,3491843652,0.13937652,-0.79464644,-0.37951103,-0.45286044,8.526965141296387,5.104815483093262,-4.432389259338379,22.5953311920166,-103.84007263183594, -7.569918155670166
513,3491860319,0.133081,-0.80190325,-0.38459733,-0.4374079,12.169215202331543,6.284152984619141,-6.551023006439209,14.69981575012207,-128.19569396972656, -13.748229026794434
514,3491876986,0.12548831,-0.80894154,-0.38939938,-0.42217875,10.981158256530762,3.4117283821105957,-5.234675407409668,6.390900611877441,-129.51922607421875, -16.752595901489258
515,3491893653,0.118958175,-0.8150616,-0.39316723,-0.40858686,11.650981903076172,4.945096015930176,7.174289703369141,5.748595714569092,-114.07955169677734, -11.745210647583008
516,3491910320,0.10863693,-0.81935793,-0.39392537,-0.4020865,8.016275405883789,1.248974323272705,8.587211608886719,-41.48836135864258,-77.41726684570312, -16.211219787597656
517,3491926987,0.10228999,-0.82224923,-0.39370477,-0.39804485,8.311763763427734,1.526695728302002,5.125674247741699,-27.343379974365234,-48.56273651123047, -5.3847198486328125
518,3491943654,0.09871628,-0.82387817,-0.39298654,-0.39628467,9.467723846435547,4.390028953552246,2.907747745513916,-18.247608184814453,-24.645797729492188, -0.036254893988370895
519,3491960321,0.09538058,-0.8251381,-0.389936,-0.39749178,9.343511581420898,3.8045363426208496,3.0033199787139893,-30.915348052978516,-4.8715667724609375, 10.848447799682617
520,3491976988,0.09445467,-0.8254272,-0.38482967,-0.40206313,8.821964263916016,1.991025447845459,3.846985101699829,-31.15962028503418,24.40985107421875, 24.304336547851562
521,3491993655,0.09601183,-0.82418483,-0.3782461,-0.41040364,7.704239845275879,1.107701301574707,2.8865480422973633,-30.085248947143555,57.28767395019531, 33.03014373779297
522,3492010322,0.10008209,-0.820775,-0.3712441,-0.42248064,7.613559722900391,2.0053293704986572,1.2964955568313599,-25.296951293945312,91.16648864746094, 34.36103057861328
523,3492026989,0.10472777,-0.8147769,-0.36375856,-0.43914744,7.873569488525391,2.9081530570983887,1.2877992391586304,-33.36775588989258,126.21573638916016, 28.999313354492188
524,3492043656,0.109126545,-0.80603594,-0.35583964,-0.46019092,8.130818367004395,2.8720409870147705,1.0411275625228882,-44.984745025634766,158.5448455810547, 20.69074249267578
525,3492060323,0.11451902,-0.79427844,-0.34768152,-0.48489693,9.219882011413574,1.5913118124008179,0.800278902053833,-46.89754867553711,190.84432983398438, 15.062605857849121
526,3492076990,0.122694574,-0.7795287,-0.34014967,-0.51144844,10.530092239379883,0.7608606219291687,0.05769914388656616,-31.639129638671875,216.9070281982422, 12.307897567749023
527,3492093657,0.13198352,-0.7620132,-0.3325619,-0.53973985,11.983113288879395,0.5446308851242065,-0.6269617080688477,-27.600749969482422,238.47430419921875, 8.56881332397461
528,3492110324,0.14180167,-0.74218184,-0.32393572,-0.56931907,13.204606056213379,-0.6792554259300232,-1.5148811340332031,-29.52244758605957,255.85845947265625, 9.481485366821289
529,3492126991,0.15377527,-0.7201996,-0.3147842,-0.598813,14.190375328063965,-1.3916540145874023,-2.244619607925415,-18.300090789794922,269.08758544921875, 15.826335906982422
530,3492143658,0.16754599,-0.6964363,-0.30534914,-0.6274289,15.02115249633789,-0.30874890089035034,-3.3080461025238037,-6.811044692993164,276.238525390625, 21.626413345336914
531,3492160325,0.18247133,-0.6715358,-0.29509598,-0.6547233,15.69190502166748,-1.0714490413665771,-3.555851936340332,-0.7512741088867188,278.2281799316406, 29.626502990722656
532,3492176992,0.19773462,-0.6457531,-0.28365055,-0.6807689,15.64934253692627,-0.43259868025779724,-2.842121124267578,-0.9692750573158264,278.7056884765625, 36.37223815917969
533,3492193659,0.21064934,-0.6198874,-0.2690945,-0.70636725,15.758086204528809,0.1068420261144638,-3.070580005645752,-25.004316329956055,276.87200927734375, 39.58837127685547
534,3492210326,0.2204175,-0.59487224,-0.2505985,-0.73126173,15.828611373901367,0.31634318828582764,-3.214540719985962,-57.48818588256836,269.8009033203125, 43.6422119140625
535,3492226993,0.22650006,-0.57156795,-0.22686957,-0.7553396,16.015352249145508,-0.2599332630634308,-3.38910174369812,-100.12399291992188,259.66766357421875, 50.62476348876953
536,3492243660,0.23085794,-0.55036473,-0.20010465,-0.77702093,15.73257064819336,-0.7021001577377319,-3.7459988594055176,-122.25386047363281,241.65663146972656, 60.49625778198242
537,3492260327,0.23379013,-0.53163165,-0.17138134,-0.7958256,15.078635215759277,0.26411545276641846,-3.0484914779663086,-138.0630340576172,219.0615692138672, 68.15033721923828
538,3492276994,0.23300138,-0.5159821,-0.13995798,-0.8123329,14.352249145507812,2.6785759925842285,-2.6118052005767822,-168.73416137695312,194.0983428955078, 64.90731811523438
539,3492293661,0.23044346,-0.5023435,-0.10863447,-0.82628405,13.22582721710205,1.0470308065414429,-4.632003307342529,-175.26004028320312,172.29318237304688, 60.730567932128906
540,3492310328,0.23309703,-0.48974746,-0.08988293,-0.8353049,11.122673034667969,1.40572988986969,-6.254497051239014,-83.7977523803711,133.71798706054688, 55.525970458984375
541,3492326995,0.23768732,-0.479952,-0.08058163,-0.84062934,9.407304763793945,2.930166006088257,-7.788815021514893,-25.226680755615234,91.67144012451172, 42.55463409423828
542,3492343662,0.24279778,-0.4747993,-0.07848916,-0.8422911,8.869776725769043,3.7622053623199463,-7.7679901123046875,12.554081916809082,41.7127799987793, 30.466772079467773
543,3492360329,0.24722153,-0.47462872,-0.08225836,-0.8407395,8.961129188537598,4.716028213500977,-7.242860317230225,37.603759765625,-7.3399529457092285, 15.557727813720703
544,3492376996,0.24985386,-0.4785441,-0.08933127,-0.8370119,9.324167251586914,4.944915294647217,-6.212663173675537,45.05078887939453,-44.257686614990234, 0.6065237522125244
545,3492393663,0.25019574,-0.48568088,-0.097945526,-0.8318191,9.854308128356934,4.82760763168335,-5.503751277923584,41.653018951416016,-71.26959991455078, -12.975419044494629
546,3492410330,0.24785425,-0.49568036,-0.1072152,-0.82545406,9.871581077575684,4.9702911376953125,-5.116497993469238,32.20428466796875,-94.10421752929688, -26.398841857910156
547,3492426997,0.24268612,-0.50799006,-0.11643768,-0.8182249,10.305676460266113,5.390436172485352,-4.751889705657959,18.91161346435547,-111.79918670654297, -38.92225646972656
548,3492443664,0.23451762,-0.5221442,-0.12473617,-0.8104368,10.724679946899414,5.650447845458984,-4.319872856140137,0.4861791133880615,-124.6395492553711, -49.9692497253418
549,3492460331,0.2220603,-0.5383929,-0.13098747,-0.80228734,11.204659461975098,6.534531593322754,-5.513634204864502,-29.495878219604492,-137.66458129882812, -63.9111328125
550,3492476998,0.20992957,-0.5536129,-0.1354904,-0.7944084,14.495091438293457,-2.957685947418213,7.975882530212402,-36.7122917175293,-127.67015838623047, -56.694480895996094
551,3492493665,0.19964308,-0.56700975,-0.14124088,-0.78657085,14.40893268585205,-2.8757572174072266,3.6706020832061768,-20.26104736328125,-117.76318359375, -53.20001983642578
552,3492510332,0.18923123,-0.58254915,-0.14937325,-0.7762189,16.984607696533203,-2.562072515487671,-2.4318549633026123,-8.328075408935547,-142.5326385498047, -57.71413040161133
553,3492526999,0.18180974,-0.59809035,-0.1640143,-0.7631071,14.481430053710938,-0.6388614177703857,0.5575700998306274,41.227386474609375,-158.73086547851562, -64.33578491210938
554,3492543666,0.17259765,-0.61389923,-0.17730853,-0.74959964,11.109618186950684,0.3988780379295349,1.1777070760726929,26.865690231323242,-162.00210571289062, -67.45701599121094
555,3492560333,0.16323566,-0.62875956,-0.18786737,-0.73669636,8.567776679992676,1.1127663850784302,0.7910557985305786,12.54590892791748,-151.48046875, -58.55708312988281
556,3492577000,0.15525164,-0.6420653,-0.19705306,-0.72444415,8.452898979187012,3.8897511959075928,-2.8425350189208984,12.4072847366333,-137.47732543945312, -48.36161422729492
557,3492593667,0.14955412,-0.65440136,-0.20690505,-0.7117463,10.19607925415039,3.941253900527954,-3.322615385055542,27.41368293762207,-132.09869384765625, -40.6332893371582
558,3492610334,0.1456239,-0.6653904,-0.21696511,-0.6992678,10.568689346313477,1.410440444946289,-1.0322186946868896,37.459938049316406,-122.071533203125, -34.962554931640625
559,3492627001,0.14419274,-0.6744166,-0.22752292,-0.6874621,10.559198379516602,0.08796917647123337,-0.29115596413612366,52.219940185546875,-106.29350280761719, -28.84998893737793
560,3492643668,0.1413725,-0.6821318,-0.23677525,-0.6772352,11.117894172668457,0.7900055646896362,-1.8880926370620728,38.451534271240234,-93.66587829589844, -33.06081008911133
561,3492660335,0.13942288,-0.6892955,-0.24639611,-0.6668748,12.262943267822266,-1.2310447692871094,-1.6825003623962402,44.977745056152344,-90.63139343261719, -31.56035804748535
562,3492677002,0.1367209,-0.69596565,-0.2550146,-0.6571964,12.888803482055664,0.4300835430622101,-1.3372347354888916,36.11905288696289,-85.44403076171875, -31.895986557006836
563,3492693669,0.13544425,-0.70202607,-0.26402828,-0.6473821,12.816862106323242,-0.19688232243061066,-0.6065629720687866,45.506290435791016,-81.23880004882812, -28.37378692626953
564,3492710336,0.13697371,-0.7072336,-0.27375954,-0.6372714,12.751334190368652,0.9793098568916321,0.4914996027946472,63.57560729980469,-74.5160903930664, -20.747941970825195
565,3492727003,0.13975081,-0.71195287,-0.28327262,-0.6271761,12.819331169128418,2.230145215988159,0.06811031699180603,69.14461517333984,-69.87068176269531, -15.2494478225708
566,3492743670,0.14340355,-0.7164327,-0.2922769,-0.6170365,12.524078369140625,2.0506904125213623,0.8784826993942261,71.56150817871094,-66.98148345947266, -9.450834274291992
567,3492760337,0.14819427,-0.7208573,-0.30101797,-0.6064581,12.520720481872559,1.2552363872528076,0.6996884346008301,77.01897430419922,-66.52519989013672, -3.0563595294952393
568,3492777004,0.15441716,-0.72519284,-0.31045625,-0.5948678,12.30869197845459,0.7553825974464417,1.1460002660751343,89.24700164794922,-69.08032989501953, 0.21986286342144012
569,3492793671,0.16075516,-0.72970366,-0.32013693,-0.5824113,11.81010627746582,0.3342227339744568,1.358843445777893,92.49874114990234,-74.32589721679688, 0.6763432621955872
570,3492810338,0.1654346,-0.7348061,-0.32904574,-0.5695794,11.719218254089355,0.21212685108184814,1.1812283992767334,81.28804016113281,-81.58934783935547, -0.4772893488407135
571,3492827005,0.16676158,-0.74099576,-0.33640176,-0.5567313,11.522205352783203,0.31662121415138245,1.8352848291397095,57.084571838378906,-91.96401977539062, -3.3685290813446045
572,3492843672,0.16296397,-0.748457,-0.3407447,-0.54511285,10.915288925170898,0.25133010745048523,2.042487382888794,15.168182373046875,-99.21601867675781, -6.162391662597656
573,3492860339,0.15589929,-0.756837,-0.34323463,-0.5339318,10.306597709655762,-0.6621853709220886,0.28192830085754395,-10.633452415466309,-106.24671936035156, -7.245498180389404
574,3492877006,0.14878246,-0.7653726,-0.34549665,-0.52220756,10.547895431518555,-1.4421812295913696,0.23701484501361847,-10.632633209228516,-109.71360778808594, -5.367191791534424
575,3492893673,0.14327858,-0.7733576,-0.34828675,-0.5099859,9.950309753417969,-1.1750094890594482,0.5710428357124329,1.4687621593475342,-107.26671600341797, -3.2485392093658447
576,3492910340,0.13899598,-0.7809839,-0.3507919,-0.49768412,9.489648818969727,-1.6629834175109863,0.2227371484041214,7.501097202301025,-103.44328308105469, 1.676421046257019
577,3492927007,0.13677071,-0.78812605,-0.35348728,-0.4849723,9.330000877380371,-1.0717036724090576,0.5913771390914917,20.612398147583008,-99.41407012939453, 6.822453498840332
578,3492943674,0.13549972,-0.79480207,-0.35584602,-0.47254968,9.302966117858887,0.07247042655944824,1.0364718437194824,24.375778198242188,-93.88145446777344, 10.347576141357422
579,3492960341,0.13278127,-0.7997563,-0.35623175,-0.4646055,9.658744812011719,2.59555983543396,3.014935255050659,0.707465648651123,-65.76069641113281, 8.009324073791504
580,3492977008,0.12823576,-0.80421853,-0.3568729,-0.45763525,8.175810813903809,4.565955638885498,-1.7642395496368408,-10.379277229309082,-63.86722183227539, -1.278950572013855
581,3492993675,0.122215316,-0.81041867,-0.35874474,-0.446752,10.266144752502441,4.32338285446167,-6.600818157196045,-6.503749847412109,-95.79863739013672, -4.884577751159668
582,3493010342,0.115110174,-0.81709796,-0.36238456,-0.43333372,12.317901611328125,6.119236469268799,-5.8519463539123535,-1.2092589139938354,-115.56666564941406, -14.6489839553833
583,3493027009,0.10663542,-0.8237428,-0.36651102,-0.41922158,12.29674243927002,4.716516494750977,-5.175082206726074,-5.580803394317627,-123.2611312866211, -20.857330322265625
584,3493043676,0.09689973,-0.82940483,-0.3686601,-0.40839678,11.090499877929688,2.817091226577759,9.22374439239502,-25.884368896484375,-103.67645263671875, -18.09975814819336
585,3493060343,0.09044753,-0.833104,-0.3712585,-0.39990526,7.6694464683532715,-1.0348632335662842,7.988914966583252,-10.357958793640137,-77.42843627929688, -17.971942901611328
586,3493077010,0.09416228,-0.83554894,-0.37343127,-0.39184272,10.763443946838379,1.3151392936706543,5.395606517791748,46.4259147644043,-45.76225662231445, 8.866783142089844
587,3493093677,0.09828693,-0.8370139,-0.37290874,-0.38818398,11.425166130065918,3.4945085048675537,3.8093321323394775,30.916297912597656,-15.487420082092285, 20.074417114257812
588,3493110344,0.09988142,-0.8383753,-0.36835203,-0.3891885,10.968291282653809,1.9447271823883057,3.723170518875122,-6.188002109527588,7.4381937980651855, 33.161338806152344
589,3493127011,0.100556,-0.83847326,-0.3610696,-0.3955753,10.18513298034668,1.4661778211593628,4.332934379577637,-31.49896812438965,40.980648040771484, 39.49808883666992
590,3493143678,0.099993445,-0.8363138,-0.3523754,-0.40793672,9.036263465881348,3.713749885559082,4.2013983726501465,-55.69773864746094,79.07942199707031, 34.48460006713867
591,3493160345,0.09707127,-0.8316941,-0.342439,-0.42614302,8.503335952758789,4.447512149810791,2.5470328330993652,-85.11920166015625,114.38822937011719, 25.032184600830078
592,3493177012,0.095113456,-0.8245411,-0.33239436,-0.44788334,8.593847274780273,3.228405237197876,1.5071585178375244,-86.4380111694336,144.10784912109375, 20.17205810546875
593,3493193679,0.0965253,-0.81465477,-0.32328305,-0.47170836,9.020364761352539,2.3216753005981445,1.287994623184204,-67.35594177246094,171.22560119628906, 17.640727996826172
594,3493210346,0.10137891,-0.8018753,-0.3151566,-0.49738833,10.096320152282715,1.6746333837509155,0.6457017064094543,-47.0316276550293,197.80111694335938, 15.618024826049805
595,3493227013,0.10928524,-0.78640527,-0.30786824,-0.52425253,11.184351921081543,0.5350554585456848,0.12283778190612793,-27.996780395507812,219.3860626220703, 14.78336238861084
596,3493243680,0.11921547,-0.7685867,-0.30095705,-0.55180335,11.917551040649414,-0.2311522662639618,-0.9614770412445068,-15.361140251159668,235.4122314453125, 14.526381492614746
597,3493260347,0.1317882,-0.7485673,-0.29445192,-0.5792903,12.766414642333984,-1.0426570177078247,-1.4230422973632812,2.091702461242676,248.46807861328125, 17.869850158691406
598,3493277014,0.14656055,-0.7264277,-0.2884491,-0.6063168,13.452601432800293,-0.5064089894294739,-1.1746444702148438,18.245254516601562,258.48504638671875, 20.135099411010742
599,3493293681,0.1617817,-0.7024242,-0.28168887,-0.6333076,14.30922794342041,-0.42898204922676086,-1.3054192066192627,19.23460578918457,267.6900634765625, 22.1332950592041
600,3493310348,0.17616253,-0.67710745,-0.27321988,-0.66018444,14.988935470581055,-0.24133875966072083,-1.4860339164733887,9.452871322631836,273.1461181640625, 24.296037673950195
601,3493327015,0.1888527,-0.6510335,-0.26199383,-0.6869128,15.469215393066406,-0.29192113876342773,-2.3667917251586914,-9.791029930114746,276.1181335449219, 28.201393127441406
602,3493343682,0.19906995,-0.62471503,-0.24684542,-0.7135614,15.795052528381348,-0.7094256281852722,-2.5616939067840576,-38.96949768066406,277.7267150878906, 33.69377136230469
603,3493360349,0.2071619,-0.598747,-0.22736968,-0.7395194,16.23377799987793,-1.1576800346374512,-3.2072153091430664,-68.65465545654297,275.6087646484375, 43.30209732055664
604,3493377016,0.21387738,-0.57347894,-0.20354158,-0.7641657,16.592571258544922,-1.9247870445251465,-3.4575695991516113,-95.44403076171875,271.0393371582031, 57.05315399169922
605,3493393683,0.22186609,-0.5496874,-0.17811377,-0.7854265,16.516372680664062,-2.155404567718506,-3.8492043018341064,-96.32579803466797,254.4662628173828, 76.9309310913086
606,3493410350,0.22816531,-0.5281468,-0.14986995,-0.8040774,16.800392150878906,1.475671410560608,-3.301157236099243,-118.15308380126953,235.1428680419922, 85.05537414550781
607,3493427017,0.23087007,-0.5092447,-0.11869691,-0.8205364,16.514230728149414,2.369741439819336,-3.9785475730895996,-149.34490966796875,213.9835662841797, 81.98501586914062
608,3493443684,0.23595358,-0.4916293,-0.09535416,-0.83278704,14.244685173034668,0.5198137164115906,-7.390832424163818,-95.52482604980469,182.02017211914062, 75.77639770507812
609,3493460351,0.24418016,-0.47650588,-0.085777864,-0.8402145,11.428925514221191,3.0950918197631836,-10.099855422973633,-6.941956043243408,131.76351928710938, 56.77798843383789
610,3493477018,0.25084412,-0.46799374,-0.08367579,-0.8432423,8.970487594604492,4.728893280029297,-11.341045379638672,22.550617218017578,66.30374145507812, 34.720462799072266
611,3493493685,0.25410634,-0.46726993,-0.08613111,-0.8424194,8.784003257751465,4.494039058685303,-10.928686141967773,26.71845817565918,-0.4677916467189789, 11.658441543579102
612,3493510352,0.25439405,-0.47238365,-0.09196896,-0.83885574,8.890206336975098,4.30638313293457,-9.04809284210205,28.08213996887207,-50.20893478393555, -8.020442008972168
613,3493527019,0.2519965,-0.48163772,-0.09787649,-0.83363265,9.618827819824219,2.953451156616211,-7.084439754486084,13.483097076416016,-80.8404769897461, -18.055673599243164
614,3493543686,0.24746421,-0.49337268,-0.10362229,-0.82741016,10.07569694519043,3.064779043197632,-5.787449359893799,1.798174262046814,-99.14468383789062, -26.239723205566406
615,3493560353,0.24213076,-0.50617427,-0.110042304,-0.82039684,10.496698379516602,3.4970340728759766,-4.575301647186279,1.5945335626602173,-109.29277801513672, -30.865962982177734
616,3493577020,0.23574856,-0.5196146,-0.11632016,-0.81295335,10.576997756958008,4.315636157989502,-3.846724271774292,-3.6706905364990234,-114.6885757446289, -34.964385986328125
617,3493593687,0.2281962,-0.53352076,-0.121971995,-0.80523616,10.416492462158203,4.349441051483154,-4.0613017082214355,-11.962709426879883,-117.9803695678711, -38.302490234375
618,3493610354,0.21992488,-0.54738057,-0.12755293,-0.7973318,10.367259979248047,4.502368927001953,-3.9904613494873047,-14.818090438842773,-118.7120361328125, -41.61628723144531
619,3493627021,0.21016008,-0.56113034,-0.13247326,-0.7895672,11.610502243041992,4.927196979522705,-1.049735188484192,-24.08827781677246,-117.73323059082031, -47.482452392578125
620,3493643688,0.20347527,-0.57107985,-0.13695675,-0.78339565,13.873504638671875,-6.4305572509765625,13.580245971679688,-10.592631340026855,-87.45709991455078, -34.68733215332031
621,3493660355,0.19640614,-0.5808156,-0.14136854,-0.7772342,16.1667537689209,-2.4029295444488525,3.2539806365966797,-12.103732109069824,-86.92851257324219, -36.89701843261719
622,3493677022,0.18811879,-0.5939698,-0.14941975,-0.7677792,17.428945541381836,-1.0667526721954346,-2.4777684211730957,1.0767816305160522,-124.49354553222656, -50.261051177978516
623,3493693689,0.18079425,-0.6080096,-0.16167714,-0.7559751,13.944445610046387,-1.2499752044677734,2.524090528488159,28.476760864257812,-143.0836181640625, -58.467506408691406
624,3493710356,0.171775,-0.62235016,-0.17263624,-0.74388874,10.856362342834473,0.4426780939102173,3.397972583770752,14.577994346618652,-146.1746063232422, -61.23448944091797
625,3493727023,0.16097778,-0.6359592,-0.17937705,-0.73312074,8.103374481201172,1.3509418964385986,2.3871963024139404,-15.308446884155273,-134.0552978515625, -54.70922088623047
626,3493743690,0.15070784,-0.6473312,-0.1831643,-0.7243622,7.541204929351807,3.764683723449707,0.6271275281906128,-27.874401092529297,-110.1962890625, -44.08795928955078
627,3493760357,0.14122187,-0.6566593,-0.18659246,-0.7169648,9.985825538635254,6.722181797027588,-2.264573097229004,-25.798246383666992,-92.67762756347656, -42.47574996948242
628,3493777024,0.13534045,-0.66548926,-0.19220957,-0.7084227,11.09402847290039,1.4710456132888794,-3.0376169681549072,3.223129987716675,-92.8736572265625, -33.95627212524414
629,3493793691,0.13503048,-0.67296475,-0.20130584,-0.6988285,10.519235610961914,-0.0662548691034317,-1.8289192914962769,48.3057975769043,-86.93306732177734, -23.57179832458496
630,3493810358,0.13493636,-0.6798556,-0.21001,-0.68955386,11.974584579467773,-0.6607625484466553,-2.195952892303467,47.53451919555664,-81.99220275878906, -21.90296745300293
631,3493827025,0.13498151,-0.6866161,-0.21938877,-0.67985827,12.260220527648926,-0.7468017935752869,-0.5644644498825073,52.103919982910156,-83.77921295166016, -24.289804458618164
632,3493843692,0.13339749,-0.6934809,-0.22744668,-0.6704906,12.720527648925781,-1.962677001953125,-1.3437811136245728,37.653533935546875,-84.01836395263672, -25.91054344177246
633,3493860359,0.13428535,-0.7002847,-0.23712032,-0.65980506,13.120083808898926,-1.8533892631530762,-0.7188646793365479,59.02732849121094,-87.693115234375, -21.233274459838867
634,3493877026,0.1379309,-0.70663774,-0.24853508,-0.6479728,12.591477394104004,-0.5801935791969299,0.8995678424835205,82.47834777832031,-88.36597442626953, -16.907960891723633
635,3493893693,0.1417857,-0.7128815,-0.25990832,-0.63572395,12.47335147857666,1.231518268585205,1.4624449014663696,84.11907196044922,-89.64167785644531, -15.650436401367188
636,3493910360,0.14474134,-0.71940786,-0.27037108,-0.62321895,12.424019813537598,1.183948040008545,1.7903542518615723,75.95105743408203,-92.99612426757812, -14.399177551269531
637,3493927027,0.14838034,-0.72587806,-0.2815582,-0.60976183,12.192790031433105,1.040652871131897,2.395437002182007,84.27592468261719,-97.07538604736328, -14.238746643066406
638,3493943694,0.15096451,-0.73233145,-0.29282963,-0.5959457,12.332927703857422,0.9874780178070068,3.0031850337982178,80.10432434082031,-101.09640502929688, -18.77683448791504
639,3493960361,0.152558,-0.73886603,-0.30379263,-0.58181894,12.309168815612793,0.3576962351799011,2.51092791557312,74.4146499633789,-104.85437774658203, -20.819683074951172
640,3493977028,0.1526463,-0.74579704,-0.31415197,-0.56726915,12.531047821044922,-0.006623514927923679,1.4038424491882324,64.84912109375,-111.27342224121094, -22.537281036376953
641,3493993695,0.15093212,-0.75328773,-0.32364354,-0.55229723,12.30317211151123,-0.7633995413780212,1.7016866207122803,52.549888610839844,-118.75244140625, -23.49940299987793
642,3494010362,0.14738652,-0.76126546,-0.33187777,-0.5372239,11.901045799255371,-0.9923394322395325,1.9373247623443604,38.00675964355469,-124.05254364013672, -22.79608154296875
643,3494027029,0.14263946,-0.7694211,-0.33864892,-0.5224579,11.663143157958984,-1.1095951795578003,2.183095932006836,25.437984466552734,-124.5134506225586, -19.529348373413086
644,3494043696,0.13833205,-0.7773445,-0.34433684,-0.50796854,11.307740211486816,-2.343754768371582,2.3520469665527344,23.451879501342773,-120.28666687011719, -13.073845863342285
645,3494060363,0.13610488,-0.7847142,-0.3498306,-0.4932725,10.257362365722656,-1.7183912992477417,1.9692625999450684,34.89624786376953,-114.5036849975586, -5.947916030883789
646,3494077030,0.13348852,-0.790691,-0.35260373,-0.4823475,10.5430269241333,0.12687954306602478,4.444069862365723,15.789130210876465,-87.9544448852539, 0.4906826615333557
647,3494093697,0.1286157,-0.7949864,-0.35314766,-0.47617394,7.603087425231934,2.3175673484802246,-1.172284483909607,-13.820963859558105,-60.15007400512695, -3.3235228061676025
648,3494110364,0.12188031,-0.801577,-0.35650095,-0.46424863,7.783118724822998,6.267442226409912,-6.813486099243164,-2.8422791957855225,-106.14254760742188, -14.079703330993652
649,3494127031,0.11254301,-0.8093426,-0.3592258,-0.450839,11.212626457214355,4.405119895935059,-8.540255546569824,-16.488712310791016,-123.85610961914062, -14.690190315246582
650,3494143698,0.10798781,-0.81626475,-0.36357105,-0.43573704,9.695164680480957,1.005138635635376,-4.101343154907227,20.00786781311035,-120.05304718017578, -9.606215476989746
651,3494160365,0.11146884,-0.82081056,-0.37012437,-0.4205388,9.242060661315918,1.6115467548370361,9.077143669128418,73.72030639648438,-95.052734375, -3.779679536819458
652,3494177032,0.1195814,-0.82375145,-0.37516898,-0.40789968,5.387282848358154,-2.0236356258392334,5.699200630187988,90.26676177978516,-63.27296829223633, 12.09935474395752
653,3494193699,0.13159539,-0.8258926,-0.37919083,-0.3959777,7.995767116546631,1.5239001512527466,2.5158731937408447,108.28903198242188,-46.19552230834961, 26.168149948120117
654,3494210366,0.14232884,-0.8271887,-0.38115305,-0.38758713,9.796551704406738,3.968859910964966,3.6500589847564697,86.98658752441406,-25.424028396606445, 29.018430709838867
655,3494227033,0.14718969,-0.8284959,-0.37841168,-0.385661,9.623091697692871,4.023594856262207,3.860653877258301,24.15300750732422,0.3811129033565521, 33.88854217529297
656,3494243700,0.14545098,-0.8300231,-0.37123078,-0.38999176,9.552031517028809,2.4965224266052246,2.905346393585205,-41.67279052734375,22.623422622680664, 35.96635818481445
657,3494260367,0.14128742,-0.8304509,-0.362625,-0.398613,9.516190528869629,3.6007072925567627,3.399580240249634,-69.14836120605469,45.17845916748047, 30.490631103515625
658,3494277034,0.13321371,-0.829228,-0.35294786,-0.41238678,8.963351249694824,6.320425987243652,2.0126101970672607,-105.63069152832031,70.30025482177734, 16.7829532623291
659,3494293701,0.123214915,-0.82587904,-0.34242797,-0.4306799,9.222912788391113,5.06581449508667,2.155240535736084,-127.94052124023438,98.12078094482422, 6.854401588439941
660,3494310368,0.11518463,-0.8200521,-0.33234227,-0.4514376,9.170513153076172,3.9696760177612305,2.372269868850708,-119.1232681274414,123.64561462402344, 2.2999582290649414
661,3494327035,0.11055258,-0.81119263,-0.32299948,-0.47478014,10.01191520690918,3.817906141281128,1.373671054840088,-101.12731170654297,154.74220275878906, -0.3187628388404846
662,3494343702,0.110808365,-0.7994091,-0.31473514,-0.49960828,10.979146003723145,1.759363055229187,1.2594355344772339,-71.38262939453125,182.5611114501953, 2.002537488937378
663,3494360369,0.11626153,-0.7847943,-0.3077574,-0.5252302,11.607145309448242,0.8662604689598083,0.5196489095687866,-37.947357177734375,206.87501525878906, 6.0438432693481445
664,3494377036,0.12592685,-0.7674532,-0.30163538,-0.55152005,12.359813690185547,0.26907339692115784,-0.43767380714416504,-11.363216400146484,228.53402709960938, 10.328778266906738
665,3494393703,0.13843888,-0.7475788,-0.29565033,-0.57840455,12.961817741394043,0.1189517006278038,-0.5306867957115173,5.112303733825684,247.0700225830078, 14.633241653442383
666,3494410370,0.15160224,-0.72562575,-0.28832793,-0.606095,13.576951026916504,-0.3404499590396881,-0.7201437950134277,3.4686570167541504,262.09808349609375, 19.10287094116211
667,3494427037,0.16558972,-0.70191485,-0.27968213,-0.6337774,14.483378410339355,-1.0381332635879517,-0.9294986128807068,3.9019663333892822,272.4340515136719, 25.652585983276367
668,3494443704,0.1794326,-0.67671335,-0.26910055,-0.66139865,15.504386901855469,-0.8326165676116943,-1.7233177423477173,-3.4648611545562744,280.61175537109375, 31.547786712646484
669,3494460371,0.19081113,-0.65070003,-0.25513345,-0.68926597,15.841383934020996,-0.4974330961704254,-2.0807242393493652,-29.81829833984375,285.14892578125, 34.258670806884766
670,3494477038,0.1988212,-0.6247928,-0.23601668,-0.7172171,16.586685180664062,-1.8048781156539917,-3.086761713027954,-69.62185668945312,285.9804382324219, 41.37470626831055
671,3494493705,0.20660403,-0.59976685,-0.21398573,-0.7428357,16.847219467163086,-3.1894724369049072,-4.343282222747803,-82.3964614868164,275.3736267089844, 57.329097747802734
672,3494510372,0.21467175,-0.57622564,-0.19100258,-0.76511335,16.521446228027344,-1.4648487567901611,-3.8167214393615723,-83.32380676269531,255.95787048339844, 69.54949188232422
673,3494527039,0.22027536,-0.5546274,-0.16570826,-0.78511673,15.962326049804688,0.7387446761131287,-2.976060390472412,-105.1211929321289,237.08843994140625, 71.60957336425781
674,3494543706,0.22252683,-0.5355915,-0.13863593,-0.8027476,15.186662673950195,1.9802485704421997,-3.22389817237854,-128.7221221923828,213.26422119140625, 66.79383850097656
675,3494560373,0.2225826,-0.51908875,-0.11165194,-0.8176417,14.225029945373535,1.7286300659179688,-4.70319128036499,-137.60076904296875,187.16419982910156, 60.97556686401367
676,3494577040,0.22543284,-0.50418824,-0.09116775,-0.8286514,12.890423774719238,0.23750990629196167,-6.881099700927734,-90.55553436279297,156.69256591796875, 60.69624328613281
677,3494593707,0.2310188,-0.49169177,-0.080271184,-0.8357189,11.371272087097168,2.8042585849761963,-8.060330390930176,-27.705175399780273,116.40654754638672, 50.681907653808594
678,3494610374,0.23709612,-0.4830644,-0.077534705,-0.83929896,9.93671703338623,4.410027980804443,-8.73334789276123,16.60114288330078,69.92340087890625, 33.65824890136719
679,3494627041,0.24184225,-0.4794567,-0.081016384,-0.8396846,9.26073169708252,5.420651912689209,-8.76276969909668,41.54932403564453,19.722442626953125, 13.291491508483887
680,3494643708,0.24412794,-0.48120964,-0.08754622,-0.8373619,9.021672248840332,4.850616931915283,-8.486414909362793,43.5828742980957,-26.383895874023438, -3.386516571044922
681,3494660375,0.24360174,-0.4873296,-0.0953547,-0.83311206,9.55781078338623,4.07011079788208,-7.63632869720459,35.43944549560547,-61.54735565185547, -17.864246368408203
682,3494677042,0.24076486,-0.49664417,-0.10476157,-0.82728606,10.009387016296387,4.015685081481934,-7.054572105407715,32.502376556396484,-89.14450073242188, -31.662216186523438
683,3494693709,0.23555069,-0.5085111,-0.11469033,-0.82023084,10.683465957641602,4.475425720214844,-6.422664642333984,23.972742080688477,-110.27400207519531, -43.040409088134766
684,3494710376,0.22740841,-0.52252275,-0.12326646,-0.81244135,11.226582527160645,4.362283706665039,-6.118472576141357,3.1702561378479004,-124.90674591064453, -51.879703521728516
685,3494727043,0.2173196,-0.5380463,-0.13108031,-0.8038014,11.481953620910645,4.080538272857666,-6.082918643951416,-9.753791809082031,-136.73193359375, -57.331207275390625
686,3494743710,0.20464222,-0.55474514,-0.1359257,-0.79492384,12.132034301757812,2.1189301013946533,-3.012453317642212,-37.32847213745117,-141.88003540039062, -59.177982330322266
