PacketCounter,SampleTimeFine,Quat_W,Quat_X,Quat_Y,Quat_Z,Acc_X,Acc_Y,Acc_Z,Gyr_X,Gyr_Y,Gyr_Z 
1,395864956,0.11342754,-0.16190803,0.004890568,0.98025304,0.1672842651605606,-0.18165548145771027,0.004591226577758789,-0.2160894274711609,-0.07132897526025772, -0.2305951863527298
2,395881623,0.113026366,-0.1624866,0.005599472,0.9802,-3.0538582801818848,-0.20986342430114746,9.067980766296387,-0.2683826982975006,0.8887928128242493, 1.4201667308807373
3,395898290,0.112470984,-0.16271517,0.006161382,0.9802225,-3.0501675605773926,-0.19925802946090698,9.052671432495117,0.024466531351208687,0.7840240597724915, 1.5451310873031616
4,395914957,0.1121559,-0.16283168,0.006676323,0.9802359,-3.018138885498047,-0.18210527300834656,9.028751373291016,0.364808052778244,0.9967886209487915, 1.681492805480957
5,395931624,0.111816406,-0.16283172,0.0070625385,0.98027194,-3.0093700885772705,-0.20956061780452728,9.05795955657959,0.10906527936458588,1.0561331510543823, 1.6000957489013672
6,395948291,0.11143812,-0.16279,0.007281636,0.9803204,-3.009026288986206,-0.20076626539230347,9.047056198120117,0.08901052922010422,1.222782015800476, 1.532503604888916
7,395964958,0.11106407,-0.16275842,0.0074137473,0.98036695,-3.022113084793091,-0.21980470418930054,9.048222541809082,-0.046269338577985764,1.3023991584777832, 1.5038560628890991
8,395981625,0.11084521,-0.16275087,0.007476833,0.9803926,-3.0664937496185303,-0.2219696193933487,9.078877449035645,-0.20628467202186584,1.2293647527694702, 1.4216008186340332
9,395998292,0.11073263,-0.16277614,0.0075550266,0.98040056,-3.092695474624634,-0.23669491708278656,9.066558837890625,0.04822231084108353,1.0692342519760132, 1.3980371952056885
10,396014959,0.11070572,-0.16283405,0.0076398603,0.98039323,-3.081831455230713,-0.30806592106819153,9.078195571899414,0.1940738409757614,0.8794440031051636, 1.5016406774520874
11,396031626,0.110627934,-0.16290498,0.007659167,0.98039013,-3.04386830329895,-0.2755477726459503,9.033823013305664,0.3544093072414398,0.7654675245285034, 1.363088607788086
12,396048293,0.11053172,-0.1629817,0.007624348,0.9803885,-3.027523994445801,-0.25423702597618103,9.0609712600708,0.17186762392520905,0.7649808526039124, 1.2585376501083374
13,396064960,0.11050702,-0.16305108,0.007570593,0.98038024,-3.030794620513916,-0.23927810788154602,9.096660614013672,-0.028955155983567238,0.7790422439575195, 1.1867709159851074
14,396081627,0.11035867,-0.16311914,0.0074931714,0.98038626,-3.0630574226379395,-0.26880449056625366,9.068222045898438,-0.15477755665779114,0.830984890460968, 1.2697943449020386
15,396098294,0.110337846,-0.16317692,0.007481784,0.98037905,-3.043281078338623,-0.2426602691411972,9.04328727722168,0.16583582758903503,0.7402006387710571, 1.3377962112426758
16,396114961,0.11028452,-0.16321373,0.0075032413,0.9803788,-3.0338833332061768,-0.21077217161655426,9.024518966674805,0.39769482612609863,0.60392826795578, 1.3216474056243896
17,396131628,0.110179484,-0.16325457,0.007546501,0.98038334,-3.0249829292297363,-0.220830038189888,9.06590747833252,0.46938470005989075,0.6403238773345947, 1.390174150466919
18,396148295,0.11009162,-0.16330762,0.0075889435,0.9803842,-3.053946018218994,-0.207101508975029,9.063060760498047,0.3434855341911316,0.7492291331291199, 1.442859411239624
19,396164962,0.10996955,-0.1633646,0.0076549924,0.98038775,-3.0755667686462402,-0.22990010678768158,9.059173583984375,0.4415309429168701,0.7684130072593689, 1.5305061340332031
20,396181629,0.109898515,-0.16341868,0.007773605,0.9803858,-3.0974221229553223,-0.23356936872005463,9.02734375,0.744324266910553,0.7339254021644592, 1.4944815635681152
21,396198296,0.11001042,-0.16345961,0.007904589,0.9803654,-3.119432210922241,-0.25927239656448364,9.042181968688965,0.6408105492591858,0.5616545081138611, 1.4055545330047607
22,396214963,0.11012672,-0.16350394,0.008002992,0.9803442,-3.1069345474243164,-0.24676547944545746,9.04393196105957,0.4205797612667084,0.48143553733825684, 1.4046196937561035
23,396231630,0.10997685,-0.16358274,0.008043819,0.9803475,-3.1121902465820312,-0.26293617486953735,9.031343460083008,0.2622932493686676,0.6457409262657166, 1.5183783769607544
24,396248297,0.10977943,-0.16369627,0.008038318,0.9803508,-3.094942331314087,-0.25358104705810547,9.037055969238281,-0.02831484004855156,0.808650553226471, 1.5350396633148193
25,396264964,0.10969359,-0.16382682,0.008060424,0.9803383,-3.0531394481658936,-0.23189350962638855,9.005955696105957,0.04245945066213608,0.9236388206481934, 1.477513313293457
26,396281631,0.109581105,-0.16396841,0.008052348,0.9803273,-3.0721395015716553,-0.21187448501586914,9.031203269958496,-0.1522931307554245,0.990795373916626, 1.4333059787750244
27,396298298,0.10957953,-0.16416155,0.008094439,0.98029476,-3.065748929977417,-0.24461768567562103,9.033499717712402,-0.009348634630441666,1.3823621273040771, 1.453578233718872
28,396314965,0.109410726,-0.1643583,0.008073172,0.98028076,-3.091705799102783,-0.2996409237384796,9.125219345092773,-0.26950961351394653,1.3797754049301147, 1.4583678245544434
29,396331632,0.10930652,-0.16450669,0.008160358,0.9802668,-3.116687536239624,-0.2873261868953705,9.107444763183594,0.4650305509567261,1.137030839920044, 1.550881028175354
30,396348299,0.1092258,-0.1645845,0.008217005,0.9802623,-3.1088924407958984,-0.3056188225746155,9.126317977905273,0.28458911180496216,0.6177207231521606, 1.5733177661895752
31,396364966,0.109102756,-0.1646184,0.008331928,0.9802694,-3.052826166152954,-0.29017648100852966,9.070503234863281,0.8501303791999817,0.36986660957336426, 1.4570872783660889
32,396381633,0.10886884,-0.16463429,0.008363178,0.9802924,-2.991394281387329,-0.23882298171520233,9.105627059936523,0.485866516828537,0.21460242569446564, 1.2485742568969727
33,396398300,0.1087559,-0.1646295,0.008397946,0.98030543,-3.004021167755127,-0.22210296988487244,9.124411582946777,0.4048919677734375,0.11997628957033157, 1.132587194442749
34,396414967,0.108635806,-0.1646274,0.008432537,0.98031896,-3.053504705429077,-0.269353449344635,9.07153606414795,0.36658817529678345,0.1786677986383438, 1.1943395137786865
35,396431634,0.108448274,-0.16461554,0.008497787,0.98034114,-3.105828285217285,-0.303474485874176,9.052804946899414,0.530099630355835,0.1385582983493805, 1.6149511337280273
36,396448301,0.10831776,-0.16461177,0.008633288,0.980355,-3.081028938293457,-0.29525265097618103,8.999366760253906,0.9293630123138428,0.22639702260494232, 1.7390187978744507
37,396464968,0.10815883,-0.16463256,0.008762055,0.9803679,-3.0579745769500732,-0.26393166184425354,9.001629829406738,0.9057354927062988,0.3812386393547058, 1.745511770248413
38,396481635,0.10797478,-0.16470304,0.008871823,0.9803753,-3.101240396499634,-0.19979846477508545,9.07024097442627,0.8545612692832947,0.7154843211174011, 1.4673322439193726
39,396498302,0.1078077,-0.16480261,0.008879429,0.9803769,-3.154214859008789,-0.20193028450012207,9.079160690307617,0.07223422080278397,0.8288334012031555, 1.4217417240142822
40,396514969,0.10775827,-0.16487718,0.008938509,0.9803693,-3.1931347846984863,-0.22169359028339386,9.034489631652832,0.29494941234588623,0.6651425361633301, 1.4256219863891602
41,396531636,0.10760275,-0.16492887,0.008952875,0.98037755,-3.141606330871582,-0.3030777871608734,9.015390396118164,0.09871774166822433,0.4437592029571533, 1.4581501483917236
42,396548303,0.10743488,-0.16498029,0.00906996,0.9803862,-3.094311237335205,-0.23934926092624664,9.041500091552734,0.8793929219245911,0.5052297115325928, 1.403748869895935
43,396564970,0.10722418,-0.16505173,0.009152428,0.98039657,-3.1057934761047363,-0.27760952711105347,9.060555458068848,0.61330246925354,0.6166065335273743, 1.5461939573287964
44,396581637,0.10695669,-0.1651303,0.009219992,0.9804119,-3.1583516597747803,-0.26022350788116455,9.04953384399414,0.5268596410751343,0.6542571187019348, 1.686640977859497
45,396598304,0.10675059,-0.16518793,0.009308032,0.98042375,-3.092209815979004,-0.3329941928386688,9.037837982177734,0.5794936418533325,0.5042563080787659, 1.7891427278518677
46,396614971,0.10670928,-0.16520655,0.009469379,0.9804236,-3.0843918323516846,-0.2159995436668396,9.039634704589844,1.0003039836883545,0.28441619873046875, 1.6562451124191284
47,396631638,0.106552,-0.16525586,0.009569801,0.98043144,-3.136323928833008,-0.2622026205062866,9.072444915771484,0.6726086139678955,0.461470365524292, 1.650283694267273
48,396648305,0.10640374,-0.16533554,0.009672806,0.98043305,-3.059516668319702,-0.24680718779563904,9.077548027038574,0.626633882522583,0.6667433977127075, 1.737930417060852
49,396664972,0.1062221,-0.1653828,0.009753453,0.980444,-3.0562307834625244,-0.21284140646457672,9.059741973876953,0.6739277839660645,0.44585949182510376, 1.327717661857605
50,396681639,0.106199116,-0.16543531,0.009861846,0.98043644,-3.0854592323303223,-0.2237354815006256,9.037812232971191,0.6627606153488159,0.5044741630554199, 1.3349275588989258
51,396698306,0.106142394,-0.16549204,0.009944242,0.9804323,-3.05230712890625,-0.26295071840286255,9.05916976928711,0.45043128728866577,0.5154107213020325, 1.5066605806350708
52,396714973,0.10611206,-0.16553955,0.010073254,0.98042625,-3.0471243858337402,-0.35477396845817566,9.081067085266113,0.7418141961097717,0.49481818079948425, 1.5626885890960693
53,396731640,0.106047355,-0.1655901,0.010244071,0.98042285,-3.0685577392578125,-0.3475889563560486,9.085593223571777,1.0478347539901733,0.5593365430831909, 1.7170048952102661
54,396748307,0.10596502,-0.16565725,0.010400748,0.9804188,-3.0477914810180664,-0.27558937668800354,9.069125175476074,0.9478172659873962,0.6710848212242126, 1.7912178039550781
55,396764974,0.105866775,-0.16573152,0.0104785925,0.9804161,-3.0091710090637207,-0.2165987193584442,9.078253746032715,0.5103522539138794,0.6760408282279968, 1.4824182987213135
56,396781641,0.105714634,-0.16580756,0.010549817,0.9804189,-3.0765504837036133,-0.21279504895210266,9.079710960388184,0.5678399205207825,0.7038818001747131, 1.3461841344833374
57,396798308,0.10559002,-0.1658518,0.010627745,0.9804239,-3.1592483520507812,-0.22777077555656433,9.046271324157715,0.5993052124977112,0.49133479595184326, 1.3517422676086426
58,396814975,0.105577245,-0.1658937,0.010693297,0.9804175,-3.105339765548706,-0.2785804569721222,9.112781524658203,0.34027111530303955,0.4482542872428894, 1.4478923082351685
59,396831642,0.10549783,-0.16595607,0.010912889,0.9804131,-2.9902617931365967,-0.3381485641002655,9.071348190307617,1.442449688911438,0.7096191048622131, 1.6421648263931274
60,396848309,0.105405204,-0.16589484,0.011007244,0.98043233,-3.1092891693115234,-0.11789558082818985,8.84797191619873,0.8778560757637024,-0.21581262350082397, 1.0647392272949219
61,396864976,0.10528148,-0.16589479,0.011069532,0.98044497,-3.1274449825286865,-0.34936124086380005,8.992915153503418,0.49612441658973694,0.16853797435760498, 1.4218697547912598
62,396881643,0.10510976,-0.1659509,0.011068003,0.9804539,-2.9613935947418213,-0.3557243347167969,9.269597053527832,-0.013946117833256721,0.501951277256012, 1.6722853183746338
63,396898310,0.1050201,-0.16599366,0.011345748,0.980453,-3.0872011184692383,-0.16314689815044403,9.084358215332031,2.047600746154785,0.6495316624641418, 1.2652608156204224
64,396914977,0.104936324,-0.16599683,0.011379972,0.9804612,-3.1312756538391113,-0.22837762534618378,9.042888641357422,0.33891361951828003,0.1948806345462799, 1.2183641195297241
65,396931644,0.10479567,-0.16602331,0.011405935,0.9804713,-2.9520347118377686,-0.2719907760620117,9.102036476135254,0.1741599589586258,0.3417310416698456, 1.6695959568023682
66,396948311,0.10472339,-0.16605003,0.0116061885,0.9804722,-2.92323637008667,-0.2551420331001282,9.033939361572266,1.469189167022705,0.4958297908306122, 1.2969950437545776
67,396964978,0.10464152,-0.16604578,0.011672796,0.98048097,-3.0875842571258545,-0.23001164197921753,8.997820854187012,0.6214473843574524,0.203358456492424, 1.1053608655929565
68,396981645,0.10448669,-0.16607319,0.011732256,0.98049206,-3.132173538208008,-0.35811662673950195,9.064203262329102,0.485392689704895,0.4129727780818939, 1.5371267795562744
69,396998312,0.10430428,-0.16611391,0.01182212,0.9805035,-3.0850653648376465,-0.3901577591896057,9.07969856262207,0.6410666108131409,0.5207765698432922, 1.8303794860839844
70,397014979,0.10418982,-0.16613284,0.011910534,0.98051137,-3.0333845615386963,-0.24158023297786713,9.085272789001465,0.6648864150047302,0.37046846747398376, 1.6024904251098633
71,397031646,0.10403811,-0.1662041,0.011954999,0.9805149,-3.011380672454834,-0.1598556488752365,9.124874114990234,0.42708534002304077,0.7119370102882385, 1.402890920639038
72,397048313,0.10390048,-0.1663002,0.012009652,0.9805126,-3.028132200241089,-0.15155500173568726,9.06966495513916,0.40217697620391846,0.9009202122688293, 1.5552862882614136
73,397064980,0.10376365,-0.16633186,0.012044672,0.98052126,-3.112412929534912,-0.20890381932258606,8.991430282592773,0.33446982502937317,0.4475114643573761, 1.463644027709961
74,397081647,0.10361302,-0.16628972,0.012119949,0.9805433,-3.234814405441284,-0.33867204189300537,8.985689163208008,0.6983622908592224,-0.038073278963565826, 1.4532710313796997
75,397098314,0.103456184,-0.16624655,0.012244318,0.9805657,-3.2021188735961914,-0.3158729076385498,9.063650131225586,1.047347903251648,-0.02620178833603859, 1.523321509361267
76,397114981,0.10329917,-0.16624822,0.012310631,0.98058116,-3.1062774658203125,-0.21536029875278473,9.05068302154541,0.6362771391868591,0.23244166374206543, 1.4484046697616577
77,397131648,0.10320141,-0.16631702,0.01234511,0.9805793,-3.0929365158081055,-0.21458052098751068,9.034029006958008,0.2892250418663025,0.6720964312553406, 1.4378905296325684
78,397148315,0.10308632,-0.16639033,0.012377833,0.9805786,-3.1150801181793213,-0.2817350924015045,8.988475799560547,0.2973698079586029,0.7027547955513, 1.4310005903244019
79,397164982,0.10296962,-0.1664218,0.012472417,0.9805844,-3.174056053161621,-0.28303205966949463,8.964509963989258,0.7650962471961975,0.4545550048351288, 1.4771804809570312
80,397181649,0.10286279,-0.16647762,0.012577212,0.98058474,-3.15627384185791,-0.3343198299407959,9.024559020996094,0.8069473505020142,0.6214216947555542, 1.5012692213058472
81,397198316,0.102744006,-0.1665748,0.012663448,0.9805796,-3.1061341762542725,-0.2614440321922302,9.069183349609375,0.6942257881164551,0.8905855417251587, 1.4353675842285156
82,397214983,0.10265721,-0.16669157,0.012687186,0.9805685,-3.0609254837036133,-0.25551924109458923,9.101798057556152,0.25939902663230896,0.9829705357551575, 1.2639546394348145
83,397231650,0.102632456,-0.16680129,0.01270031,0.98055226,-3.064063549041748,-0.23687756061553955,9.075151443481445,0.15898442268371582,0.9319629073143005, 1.1480443477630615
84,397248317,0.10257844,-0.1668826,0.012754779,0.9805434,-3.1028716564178467,-0.2882566750049591,9.05514907836914,0.48091042041778564,0.7713200449943542, 1.2455775737762451
85,397264984,0.10249651,-0.16693607,0.012856677,0.9805415,-3.1190943717956543,-0.29236841201782227,9.058395385742188,0.8714784383773804,0.6150569915771484, 1.2810640335083008
86,397281651,0.102409184,-0.16697979,0.012952511,0.98054194,-3.0882081985473633,-0.2537895441055298,9.049196243286133,0.8513341546058655,0.543917715549469, 1.2813199758529663
87,397298318,0.1022742,-0.16703539,0.01304345,0.9805454,-3.059649705886841,-0.28759872913360596,9.04342269897461,0.8621554970741272,0.6269540190696716, 1.3078804016113281
88,397314985,0.10216513,-0.16707502,0.013071711,0.9805496,-3.046422004699707,-0.2102116346359253,9.061030387878418,0.4249851405620575,0.4758519232273102, 1.2472552061080933
89,397331652,0.10202301,-0.16712609,0.013109548,0.9805552,-3.075782060623169,-0.23304499685764313,9.088568687438965,0.46002328395843506,0.5682497024536133, 1.4386974573135376
90,397348319,0.1019252,-0.16717698,0.013141762,0.9805563,-3.1025264263153076,-0.2490232288837433,9.095542907714844,0.37720462679862976,0.5673660635948181, 1.4173234701156616
91,397364986,0.10181038,-0.16719578,0.013215071,0.980564,-3.1504135131835938,-0.2622406482696533,9.038962364196777,0.7169187068939209,0.37833163142204285, 1.430283546447754
92,397381653,0.101683244,-0.16720095,0.013293601,0.98057526,-3.1524293422698975,-0.2943457365036011,9.017009735107422,0.7703340649604797,0.28551116585731506, 1.4773215055465698
93,397398320,0.101573415,-0.16720809,0.0133382585,0.9805848,-3.119062900543213,-0.28388774394989014,9.033674240112305,0.4839071035385132,0.27041247487068176, 1.5682847499847412
94,397414987,0.10144137,-0.16724068,0.013394745,0.98059225,-3.058417797088623,-0.2790732979774475,9.03446102142334,0.5976147651672363,0.45668086409568787, 1.5348732471466064
95,397431654,0.101333566,-0.16729376,0.0134459995,0.98059356,-3.03432035446167,-0.26326489448547363,9.065482139587402,0.5797370672225952,0.6014309525489807, 1.375126600265503
96,397448321,0.1011629,-0.16735934,0.013497671,0.9805992,-3.0472681522369385,-0.25614413619041443,9.049702644348145,0.6205637454986572,0.697184145450592, 1.4820213317871094
97,397464988,0.10105951,-0.16741638,0.013571343,0.98059916,-3.07259202003479,-0.24042674899101257,9.032136917114258,0.7362178564071655,0.6594181060791016, 1.4026474952697754
98,397481655,0.100934215,-0.16745692,0.013652092,0.98060405,-3.1143126487731934,-0.25747746229171753,9.059301376342773,0.8204708695411682,0.5546494126319885, 1.4349579811096191
99,397498322,0.1007759,-0.16749449,0.0137203345,0.98061293,-3.106844663619995,-0.2945895493030548,9.106012344360352,0.752353847026825,0.5271926522254944, 1.5175461769104004
100,397514989,0.10066282,-0.16751768,0.013806244,0.9806194,-3.1169517040252686,-0.2549807131290436,9.055811882019043,0.8362482786178589,0.44247862696647644, 1.5407768487930298
101,397531656,0.10055356,-0.16753517,0.013887276,0.98062646,-3.1015567779541016,-0.28580111265182495,9.030186653137207,0.7964845895767212,0.4009092152118683, 1.5745344161987305
102,397548323,0.100477755,-0.16756397,0.013938113,0.98062867,-3.1173641681671143,-0.24607300758361816,9.03128433227539,0.5968335866928101,0.46021541953086853, 1.4160429239273071
103,397564990,0.100387126,-0.16760233,0.01397765,0.98063064,-3.1122677326202393,-0.2658977508544922,9.035005569458008,0.5444939136505127,0.5203155279159546, 1.386127233505249
104,397581657,0.10028247,-0.16765592,0.013992054,0.9806321,-3.1264255046844482,-0.24187242984771729,9.039925575256348,0.42237260937690735,0.6103954315185547, 1.2645310163497925
105,397598324,0.10015556,-0.16773456,0.0140215615,0.9806312,-3.093806266784668,-0.2961750626564026,9.039505004882812,0.4667978584766388,0.7953832149505615, 1.488539695739746
106,397614991,0.10003942,-0.16780464,0.014075759,0.9806303,-3.083481550216675,-0.24370281398296356,9.02438735961914,0.6312954425811768,0.756272554397583, 1.5344631671905518
107,397631658,0.09991344,-0.16788165,0.014079052,0.98063,-3.072561264038086,-0.23748177289962769,9.060876846313477,0.28694552183151245,0.772114098072052, 1.5186346769332886
108,397648325,0.09975775,-0.16800122,0.014094769,0.98062503,-3.029543876647949,-0.22969481348991394,9.027156829833984,0.3566247522830963,1.0820915699005127, 1.6051796674728394
109,397664992,0.09962714,-0.16814719,0.014063446,0.98061365,-3.086185932159424,-0.29509079456329346,9.077037811279297,0.010392352007329464,1.24001944065094, 1.5065195560455322
110,397681659,0.09953065,-0.16824767,0.014096844,0.9806058,-3.1390581130981445,-0.25181251764297485,9.061376571655273,0.5232867002487183,0.9754276275634766, 1.3716176748275757
111,397698326,0.09940679,-0.16829397,0.014100979,0.9806104,-3.1351912021636963,-0.3385277986526489,9.074995040893555,0.3851701617240906,0.5802364945411682, 1.4021481275558472
112,397714993,0.099300824,-0.1683082,0.01412312,0.98061836,-3.129413604736328,-0.32404810190200806,9.083846092224121,0.5471961498260498,0.37237662076950073, 1.3533942699432373
113,397731660,0.09918855,-0.16832256,0.014155086,0.98062676,-3.1015589237213135,-0.30120328068733215,9.085509300231934,0.6389536261558533,0.3831724226474762, 1.3519599437713623
114,397748327,0.09908649,-0.1683388,0.014180708,0.98063403,-3.079375982284546,-0.2732197642326355,9.044689178466797,0.5909682512283325,0.39615803956985474, 1.352216124534607
115,397764994,0.09901485,-0.1683742,0.014201936,0.9806348,-3.0833568572998047,-0.2426283061504364,9.017186164855957,0.5285885334014893,0.5308296084403992, 1.3191757202148438
116,397781661,0.098940395,-0.16842592,0.014221333,0.9806331,-3.084341049194336,-0.23786361515522003,9.014102935791016,0.5475290417671204,0.6476107239723206, 1.22413969039917
117,397798328,0.098868035,-0.16847803,0.014242049,0.98063123,-3.093205690383911,-0.24363064765930176,9.02687931060791,0.5752676725387573,0.6557299494743347, 1.182877779006958
118,397814995,0.09879502,-0.16854705,0.014279568,0.98062617,-3.113403081893921,-0.28191253542900085,9.069225311279297,0.669842541217804,0.7884933948516846, 1.2421070337295532
119,397831662,0.09872989,-0.1686033,0.01431922,0.98062253,-3.1064388751983643,-0.27923861145973206,9.046051025390625,0.6888343691825867,0.7047654390335083, 1.258960247039795
120,397848329,0.09866657,-0.16863859,0.014376772,0.98062193,-3.1181840896606445,-0.29879629611968994,9.083916664123535,0.8137986660003662,0.5751011371612549, 1.3326736688613892
121,397864996,0.09856423,-0.16868497,0.014421296,0.9806236,-3.066761016845703,-0.32729649543762207,9.084362030029297,0.7534936666488647,0.6471497416496277, 1.3854870796203613
122,397881663,0.098494396,-0.16873078,0.014546469,0.9806209,-3.107598066329956,-0.3229236304759979,9.081957817077637,1.2300565242767334,0.7054570317268372, 1.5929628610610962
123,397898330,0.098399505,-0.1687222,0.014629156,0.9806307,-3.1300933361053467,-0.2623194456100464,9.048297882080078,1.0328514575958252,0.30342724919319153, 1.5303395986557007
124,397914997,0.098309785,-0.1686971,0.014755002,0.980642,-3.1047112941741943,-0.25636032223701477,9.038535118103027,1.3577611446380615,0.2215946614742279, 1.524935245513916
125,397931664,0.09824129,-0.16866727,0.014843728,0.9806527,-3.099806785583496,-0.2018265575170517,9.031693458557129,1.0554416179656982,0.16572053730487823, 1.5884674787521362
126,397948331,0.09812247,-0.16864519,0.014867165,0.98066807,-3.1070470809936523,-0.21790188550949097,9.048136711120605,0.65150386095047,0.17830923199653625, 1.5839728116989136
127,397964998,0.097985364,-0.16863751,0.014906635,0.9806825,-3.1274116039276123,-0.26440730690956116,9.02500057220459,0.7457713484764099,0.2928747832775116, 1.692531943321228
128,397981665,0.09783316,-0.16860747,0.014957473,0.98070216,-3.152073621749878,-0.32305410504341125,9.04397201538086,0.861476719379425,0.14720256626605988, 1.7209620475769043
129,397998332,0.09771987,-0.16858272,0.014993148,0.980717,-3.1572422981262207,-0.26461663842201233,9.057368278503418,0.7639052271842957,0.17428803443908691, 1.5810400247573853
130,398014999,0.097591266,-0.16857786,0.015000145,0.98073065,-3.1309642791748047,-0.2065548449754715,9.058914184570312,0.5446732640266418,0.2926699221134186, 1.6600680351257324
131,398031666,0.09748127,-0.1686229,0.014967696,0.9807344,-3.078338384628296,-0.2216467261314392,9.031119346618652,0.21296320855617523,0.6136482954025269, 1.6463909149169922
132,398048333,0.09735299,-0.1686694,0.014883116,0.98074037,-3.075731039047241,-0.2494480162858963,9.009906768798828,-0.09620130062103271,0.5932605862617493, 1.5454639196395874
133,398065000,0.09723095,-0.16868445,0.014905701,0.98074955,-3.100020408630371,-0.3016081154346466,9.078466415405273,0.6880788207054138,0.4533768594264984, 1.5612671375274658
134,398081667,0.09714872,-0.16861077,0.014993278,0.980769,-3.1486620903015137,-0.3106308579444885,9.128314971923828,1.167791724205017,-0.11356668919324875, 1.594844937324524
135,398098334,0.0970636,-0.16847005,0.015119396,0.9807996,-3.1438887119293213,-0.32631540298461914,9.13568115234375,1.5048292875289917,-0.5493412017822266, 1.6045396327972412
136,398115001,0.09697109,-0.16828072,0.015216336,0.98083985,-3.118715524673462,-0.3683852255344391,9.055543899536133,1.315794825553894,-0.9044229388237, 1.7140467166900635
137,398131668,0.09691459,-0.16811983,0.015336277,0.98087114,-3.0677804946899414,-0.3006669878959656,8.993938446044922,1.5409561395645142,-0.6876370310783386, 1.4050551652908325
138,398148335,0.09684664,-0.16801815,0.015330178,0.98089534,-3.0337111949920654,-0.22823703289031982,8.989097595214844,0.7188907861709595,-0.35828325152397156, 1.1331121921539307
139,398165002,0.09676539,-0.16796377,0.015263758,0.98091376,-3.06312894821167,-0.22516180574893951,9.003523826599121,0.2762777805328369,-0.06538921594619751, 1.1339573860168457
140,398181669,0.09668308,-0.16795895,0.0152207315,0.98092324,-3.0553622245788574,-0.31446507573127747,8.974139213562012,0.368150532245636,0.29866328835487366, 1.267937421798706
141,398198336,0.09667607,-0.16797046,0.015139151,0.98092335,-3.1256163120269775,-0.4436767101287842,9.008414268493652,0.15646156668663025,0.38994693756103516, 0.825311541557312
142,398215003,0.096748136,-0.16781561,0.015063911,0.9809438,-3.287914991378784,-0.4864983558654785,9.283774375915527,0.4344874620437622,-0.75908362865448, 0.290441632270813
143,398231670,0.09684589,-0.16722925,0.014936305,0.9810364,-3.3449628353118896,-0.4280764162540436,9.466978073120117,0.4373689293861389,-3.793458938598633, 0.0849253237247467
144,398248337,0.09688483,-0.16624826,0.014661063,0.9812033,-3.2588114738464355,-0.24436131119728088,9.44408130645752,-0.36806732416152954,-6.636673927307129, 0.45105892419815063
145,398265004,0.09685691,-0.16504319,0.01441255,0.9814132,-3.1054763793945312,-0.1906425803899765,9.262320518493652,-0.15030816197395325,-8.173206329345703, 1.0943732261657715
146,398281671,0.09687979,-0.16366547,0.014735229,0.9816369,-2.9226200580596924,-0.10444766283035278,8.946292877197266,3.8969030380249023,-8.97397518157959, 1.3737952709197998
147,398298338,0.097257696,-0.16240266,0.016390491,0.98178303,-2.919886350631714,-0.13531503081321716,8.901095390319824,13.22641372680664,-7.251037120819092, 0.39291828870773315
148,398315005,0.097691685,-0.16124965,0.01837544,0.98189485,-2.9119319915771484,-0.2876110076904297,9.050270080566406,15.346957206726074,-6.249427795410156, 0.6391975283622742
149,398331672,0.098273456,-0.16022812,0.020805039,0.9819556,-2.9246985912323,-0.27531877160072327,9.097123146057129,18.519319534301758,-5.015523433685303, -0.1374635398387909
150,398348339,0.098749004,-0.15916027,0.0225383,0.98204327,-2.9763402938842773,-0.16631194949150085,9.143234252929688,13.753883361816406,-5.804533004760742, -0.19332478940486908
151,398365006,0.09909894,-0.1581313,0.023473352,0.98215216,-2.9866366386413574,-0.03612910956144333,9.051820755004883,8.201194763183594,-6.082607746124268, -0.18888089060783386
152,398381673,0.09924635,-0.15720578,0.023546254,0.9822842,-2.9517924785614014,-0.14179599285125732,9.054425239562988,2.0488946437835693,-5.961946487426758, 0.360530823469162
153,398398340,0.09933444,-0.15630852,0.023605818,0.98241717,-2.9466989040374756,-0.29144465923309326,9.076397895812988,1.9305124282836914,-5.773435592651367, 0.6110742092132568
154,398415007,0.09941865,-0.15531886,0.023687795,0.98256356,-2.906430959701538,-0.08928079903125763,9.156490325927734,2.2723653316497803,-6.4020609855651855, 0.34160301089286804
155,398431674,0.099522315,-0.15434198,0.023809154,0.9827039,-2.8097047805786133,0.022672373801469803,9.159388542175293,2.4123003482818604,-6.27452278137207, 0.6998093724250793
156,398448341,0.09955269,-0.15346451,0.023791466,0.9828387,-2.6989569664001465,0.19032856822013855,9.054571151733398,1.3248745203018188,-5.672368049621582, 1.0406759977340698
157,398465008,0.09948706,-0.1527421,0.023622666,0.982962,-2.6285974979400635,0.1632138043642044,9.002425193786621,0.14950771629810333,-4.694167137145996, 1.302757978439331
158,398481675,0.099392116,-0.15224282,0.023405181,0.98305434,-2.6966185569763184,0.04763081669807434,8.988642692565918,-0.4609261453151703,-3.1637191772460938, 1.6921734809875488
159,398498342,0.09935788,-0.15189113,0.023589563,0.9831078,-2.8058900833129883,-0.11437272280454636,8.947758674621582,2.270418643951416,-1.8561137914657593, 1.5038049221038818
160,398515009,0.09972115,-0.15156531,0.024936682,0.983088,-2.88215708732605,-0.27739423513412476,9.178166389465332,10.530990600585938,-0.8731371760368347, 0.03166370838880539
161,398531676,0.10021177,-0.15106408,0.026822068,0.98306566,-2.935182571411133,-0.1722170114517212,9.206920623779297,14.516257286071777,-1.7137086391448975, -0.4754616916179657
162,398548343,0.10057308,-0.15070245,0.028050343,0.9830499,-2.7998831272125244,0.04951128363609314,9.281548500061035,9.81106948852539,-1.2025165557861328, -0.15079480409622192
163,398565010,0.1007675,-0.15043607,0.028597634,0.98305506,-2.7357375621795654,0.13499049842357635,9.171371459960938,4.886972904205322,-1.0039280652999878, 0.5316619873046875
164,398581677,0.100797966,-0.1502218,0.028655147,0.98308295,-2.711022138595581,0.1760951429605484,8.962385177612305,1.4435124397277832,-0.9853334426879883, 0.8806734681129456
165,398598344,0.10072497,-0.15005942,0.02845435,0.9831211,-2.735896110534668,0.07772117108106613,9.035507202148438,-0.4421520531177521,-0.7997053861618042, 1.2846242189407349
166,398615011,0.10058727,-0.14989586,0.028188067,0.98316777,-2.7241947650909424,0.04088074341416359,9.128995895385742,-0.9461202621459961,-0.8468069434165955, 1.6478248834609985
167,398631678,0.10041147,-0.14978193,0.027946703,0.9832101,-2.699519395828247,0.08229058235883713,9.16939640045166,-0.8320414423942566,-0.4766395688056946, 1.8805292844772339
168,398648345,0.100166775,-0.14981125,0.027507769,0.9832429,-2.704279899597168,0.08566532284021378,9.155481338500977,-2.347646713256836,0.3870014250278473, 2.154981851577759
169,398665012,0.09990081,-0.14994222,0.026924448,0.9832661,-2.7095160484313965,0.0631236582994461,9.044781684875488,-3.499117612838745,1.0010532140731812, 2.3989431858062744
170,398681679,0.09963317,-0.15013903,0.0263797,0.98327804,-2.7282378673553467,-0.01220051757991314,9.059568405151367,-3.242260694503784,1.4840319156646729, 2.3032541275024414
171,398698346,0.09956472,-0.15035862,0.026401907,0.9832509,-2.7626125812530518,-0.07921214401721954,9.196161270141602,0.805986762046814,2.0325276851654053, 1.4715454578399658
172,398715013,0.099878885,-0.1504656,0.027545918,0.9831713,-2.886925220489502,-0.08633805811405182,9.295356750488281,8.866087913513184,2.031298875808716, 0.0794186070561409
173,398731680,0.10032816,-0.15040666,0.029023368,0.9830921,-2.8786001205444336,-0.08882346749305725,9.334463119506836,11.395100593566895,1.1115082502365112, -0.497450053691864
174,398748347,0.10069263,-0.15023835,0.030154632,0.98304635,-2.81581449508667,0.042498938739299774,9.234707832336426,9.018086433410645,0.12278091162443161, -0.13724568486213684
175,398765014,0.10089819,-0.15003322,0.030667083,0.98304075,-2.7669200897216797,0.13846026360988617,9.170421600341797,4.735576629638672,-0.565118670463562, 0.19465014338493347
176,398781681,0.10109667,-0.14988315,0.031188365,0.983027,-2.7549428939819336,0.1643376499414444,9.093938827514648,4.7551069259643555,-0.17223262786865234, 0.22496280074119568
177,398798348,0.10161516,-0.14978155,0.03267459,0.9829407,-2.7321884632110596,0.1123347207903862,9.166378021240234,11.545154571533203,0.8413456678390503, -0.8705761432647705
178,398815015,0.10277944,-0.14950673,0.03635754,0.9827322,-2.855944871902466,-0.030029326677322388,9.311551094055176,27.25712776184082,1.1897450685501099, -3.1785829067230225
179,398831682,0.1046158,-0.14884968,0.042456232,0.9823935,-2.8075308799743652,0.026827163994312286,9.253677368164062,44.48108673095703,0.30670782923698425, -4.894006729125977
180,398848349,0.10653207,-0.14790969,0.04894746,0.9820274,-2.829836130142212,0.09896914660930634,9.656554222106934,47.561153411865234,-1.3289257287979126, -5.359923362731934
181,398865016,0.10771314,-0.14659707,0.054118987,0.98182416,-2.9977006912231445,0.16333159804344177,9.089151382446289,38.121986389160156,-4.706383228302002, -1.4285683631896973
182,398881683,0.10826231,-0.14523832,0.056414474,0.9818363,-2.904127836227417,0.7114893198013306,9.270516395568848,18.037389755249023,-7.133978366851807, 0.1414911299943924
183,398898350,0.108466744,-0.14381273,0.05722435,0.9819768,-2.876976728439331,0.5846465229988098,9.327581405639648,7.649280071258545,-8.685808181762695, 1.133791446685791
184,398915017,0.10852587,-0.14232743,0.057269655,0.98218393,-2.746350049972534,0.5386854410171509,9.26239013671875,2.4251201152801514,-9.682846069335938, 1.245078682899475
185,398931684,0.10855212,-0.14083828,0.056997035,0.9824115,-2.576688289642334,0.713227391242981,9.129121780395508,0.2752149701118469,-9.960705757141113, 1.0799918174743652
186,398948351,0.108690515,-0.13931169,0.056826312,0.9826238,-2.5968871116638184,0.7988330721855164,9.098814010620117,1.046388030052185,-10.141518592834473, 0.608846127986908
187,398965018,0.10878291,-0.13778263,0.056577068,0.9828436,-2.571852922439575,0.6994142532348633,9.086021423339844,0.504192590713501,-10.204819679260254, 0.720786452293396
188,398981685,0.108880416,-0.13644752,0.056239594,0.98303837,-2.5395309925079346,0.6451651453971863,9.022419929504395,-0.3696681559085846,-8.898122787475586, 0.9889897108078003
189,398998352,0.10880644,-0.13545816,0.05559207,0.9832202,-2.506265163421631,0.631902813911438,8.949228286743164,-2.8023247718811035,-6.745631694793701, 1.4352912902832031
190,399015019,0.10864154,-0.13489586,0.05465989,0.983368,-2.4448373317718506,0.7081177830696106,8.879659652709961,-5.1857523918151855,-3.9779345989227295, 1.837948203086853
191,399031686,0.108346574,-0.13472892,0.053523682,0.9834858,-2.378201961517334,0.626501739025116,8.918045043945312,-6.867610454559326,-1.410325050354004, 1.9802782535552979
192,399048353,0.10805478,-0.13496603,0.05227856,0.98355246,-2.384800434112549,0.5731151103973389,8.855339050292969,-7.8947954177856445,1.2945365905761719, 1.699934482574463
193,399065020,0.10770915,-0.13566485,0.050729975,0.9835754,-2.4261860847473145,0.6572102308273315,8.93481731414795,-10.320219039916992,4.248693466186523, 1.5594875812530518
194,399081687,0.10719322,-0.13682194,0.048702016,0.983574,-2.452554941177368,0.5322669148445129,8.891432762145996,-14.163116455078125,7.10407829284668, 2.446751117706299
195,399098354,0.106614076,-0.13836521,0.046803508,0.9835132,-2.457308053970337,0.4479125142097473,8.92237663269043,-13.594005584716797,9.879372596740723, 2.7441792488098145
196,399115021,0.106150895,-0.1400957,0.045311224,0.98338825,-2.586344003677368,0.41267865896224976,9.106830596923828,-10.900529861450195,11.484915733337402, 2.407268762588501
197,399131688,0.1056895,-0.14190207,0.044119768,0.9832331,-2.6378703117370605,0.32823696732521057,9.216540336608887,-8.85600757598877,12.22608470916748, 2.4426019191741943
198,399148355,0.1051583,-0.14367318,0.04289328,0.98308724,-2.721184492111206,0.29044461250305176,9.287321090698242,-9.139427185058594,11.975581169128418, 2.9118525981903076
199,399165022,0.10447109,-0.14533822,0.04140626,0.98297924,-2.7218868732452393,0.24374262988567352,9.274530410766602,-10.939937591552734,11.070862770080566, 3.6289196014404297
200,399181689,0.103713214,-0.14683144,0.03954948,0.98291415,-2.736691474914551,0.3341197669506073,9.224808692932129,-13.425895690917969,9.62396240234375, 3.918714761734009
201,399198356,0.10298767,-0.14818001,0.03740599,0.98287183,-2.7798454761505127,0.26231545209884644,9.252401351928711,-15.358505249023438,8.4332275390625, 3.873598337173462
202,399215023,0.1025184,-0.14932558,0.03609765,0.98279655,-2.9011266231536865,0.04505685716867447,9.355886459350586,-9.366171836853027,7.628752708435059, 3.2298333644866943
203,399231690,0.10212142,-0.15008168,0.035615902,0.98274016,-2.9805808067321777,-0.09178164601325989,9.421926498413086,-3.117257833480835,5.48354434967041, 2.698650360107422
204,399248357,0.1021491,-0.15025651,0.035829052,0.9827028,-2.996432065963745,-0.02497796341776848,9.476613998413086,2.0750319957733154,1.9771531820297241, 1.8716671466827393
205,399265024,0.10215674,-0.14999445,0.036116287,0.9827315,-2.986602306365967,0.07540584355592728,9.534272193908691,3.0438191890716553,-1.0174388885498047, 1.6495281457901
206,399281691,0.1021953,-0.14939702,0.03626926,0.982813,-2.90022873878479,0.15482266247272491,9.379180908203125,2.2923688888549805,-3.4197566509246826, 1.7773869037628174
207,399298358,0.10209929,-0.1486237,0.036171686,0.9829438,-2.8302032947540283,0.16462819278240204,9.250069618225098,0.7115144729614258,-4.829390525817871, 2.0671820640563965
208,399315025,0.10215058,-0.1477561,0.036283366,0.983065,-2.7802200317382812,0.17889854311943054,9.173564910888672,2.2062079906463623,-5.3200788497924805, 1.7727640867233276
209,399331692,0.10232869,-0.14682151,0.03677647,0.9831684,-2.775829553604126,0.17959217727184296,9.14562702178955,4.926468849182129,-5.512596607208252, 1.4404008388519287
210,399348359,0.10254344,-0.14584072,0.037517957,0.9832639,-2.761467456817627,0.14384211599826813,9.158313751220703,6.816405296325684,-5.673316478729248, 1.0062400102615356
211,399365026,0.10276919,-0.14489126,0.038197488,0.98335445,-2.7315568923950195,0.21212631464004517,9.142622947692871,6.383025169372559,-5.494924068450928, 0.9057996273040771
212,399381693,0.103094585,-0.14410758,0.038754486,0.9834137,-2.7298898696899414,0.2591394782066345,9.097057342529297,5.321968078613281,-4.423186302185059, 0.7776594161987305
213,399398360,0.10338616,-0.14345974,0.039044313,0.9834665,-2.66027569770813,0.259185791015625,9.056950569152832,3.412297010421753,-3.6829400062561035, 0.6245080828666687
214,399415027,0.1035041,-0.14302988,0.03904583,0.9835166,-2.5946667194366455,0.2834819257259369,9.053667068481445,1.333966851234436,-2.3971309661865234, 0.8058075308799744
215,399431694,0.10369999,-0.14286576,0.03921882,0.98351306,-2.5526838302612305,0.2782393991947174,9.035258293151855,2.304111957550049,-0.42965301871299744, 0.637173593044281
216,399448361,0.104169816,-0.14281332,0.03991175,0.98344296,-2.584972858428955,0.36082443594932556,9.138891220092773,5.817726135253906,0.7335028052330017, -0.0789511501789093
217,399465028,0.10459695,-0.14265037,0.041031376,0.9833753,-2.6781318187713623,0.3568333387374878,9.178190231323242,9.098433494567871,0.23534873127937317, -0.5683971643447876
218,399481695,0.10499137,-0.142494,0.041851673,0.9833213,-2.714491128921509,0.3435439467430115,9.24654769897461,6.880999565124512,0.09514477849006653, -0.1229153499007225
219,399498362,0.1051503,-0.14228387,0.042112265,0.98332363,-2.7313783168792725,0.28124698996543884,9.39744758605957,3.075540781021118,-0.69459068775177, 0.35066983103752136
220,399515029,0.105179824,-0.141786,0.042106066,0.9833927,-2.7809460163116455,0.13171787559986115,9.579144477844238,1.2191325426101685,-2.838322401046753, 1.4879635572433472
221,399531696,0.10524809,-0.14104486,0.041960888,0.98349816,-2.7812719345092773,0.3075549006462097,9.293380737304688,0.30262041091918945,-4.588348388671875, 1.8437620401382446
222,399548363,0.10525849,-0.14010507,0.041768566,0.98363954,-2.7008469104766846,0.40087205171585083,9.200360298156738,0.2296627163887024,-6.024273872375488, 1.7076947689056396
223,399565030,0.10522754,-0.13912873,0.04155697,0.98379046,-2.6563796997070312,0.4113393723964691,9.202407836914062,0.16834591329097748,-6.301685810089111, 1.6910595893859863
224,399581697,0.10527926,-0.13806602,0.041555952,0.9839347,-2.645427703857422,0.42169997096061707,9.209625244140625,1.6318813562393188,-6.728418827056885, 1.708924412727356
225,399598364,0.10539977,-0.13697042,0.041734572,0.98406726,-2.552407741546631,0.31683260202407837,9.183077812194824,2.831068277359009,-6.813222408294678, 1.7739423513412476
226,399615031,0.10544376,-0.1358879,0.04185306,0.98420763,-2.4896178245544434,0.3157501220703125,9.163166046142578,2.53334641456604,-6.788980960845947, 1.5757001638412476
227,399631698,0.1054364,-0.13496327,0.04168584,0.98434263,-2.5099782943725586,0.34118184447288513,9.114398956298828,0.46415969729423523,-5.908926486968994, 1.527266025543213
228,399648365,0.10538963,-0.13427363,0.04123544,0.98446095,-2.4721486568450928,0.34624573588371277,9.104360580444336,-1.7129902839660645,-4.481761455535889, 1.6702234745025635
229,399665032,0.10535681,-0.13390617,0.04070666,0.9845366,-2.421403646469116,0.3154188394546509,9.017779350280762,-2.581799030303955,-2.3006484508514404, 1.8307385444641113
230,399681699,0.10535185,-0.13383935,0.040684808,0.984547,-2.363856792449951,0.2788677513599396,8.97714900970459,0.8917636871337891,0.1170564517378807, 1.2211942672729492
231,399698366,0.10549237,-0.1339883,0.040949326,0.98450077,-2.4258649349212646,0.4207277297973633,8.98449420928955,2.7659857273101807,1.8047411441802979, 0.586946964263916
232,399715033,0.10565266,-0.13441199,0.0410811,0.98442024,-2.4493842124938965,0.4479014575481415,9.013087272644043,1.589594841003418,3.6185948848724365, 0.5971537828445435
233,399731700,0.10576903,-0.1350711,0.040948305,0.98432314,-2.487588405609131,0.41257044672966003,9.137065887451172,-0.498282253742218,5.061037540435791, 0.8535367846488953
234,399748367,0.10580943,-0.13581772,0.04071466,0.98422575,-2.5509982109069824,0.30116701126098633,9.197916030883789,-1.2450976371765137,5.591963768005371, 0.9943428039550781
235,399765034,0.10577232,-0.13664523,0.040336307,0.9841309,-2.5919675827026367,0.24278689920902252,9.187788009643555,-2.3159258365631104,6.043771266937256, 1.2175061702728271
236,399781701,0.10568516,-0.13750228,0.039881263,0.9840394,-2.6467204093933105,0.26762112975120544,9.225451469421387,-2.912792205810547,6.198422908782959, 1.5160737037658691
237,399798368,0.1056381,-0.13831033,0.039591145,0.98394287,-2.650258779525757,0.24718938767910004,9.241654396057129,-1.7521010637283325,5.985785007476807, 1.5297635793685913
238,399815035,0.1055868,-0.13890275,0.039532054,0.9838673,-2.636225461959839,0.29349052906036377,9.231206893920898,0.15035296976566315,4.635969638824463, 1.1763851642608643
239,399831702,0.10562591,-0.13943668,0.03951549,0.9837882,-2.6253528594970703,0.30413708090782166,9.25281047821045,0.39932119846343994,4.278018951416016, 1.197617769241333
240,399848369,0.10566918,-0.13990891,0.03933644,0.98372364,-2.6427953243255615,0.2704322636127472,9.29672908782959,-0.7293473482131958,3.741164445877075, 1.292077660560608
241,399865036,0.10561133,-0.14032318,0.038925316,0.9836871,-2.652554988861084,0.27476513385772705,9.289470672607422,-2.2879695892333984,3.1681692600250244, 1.537818431854248
242,399881703,0.105528116,-0.14070821,0.038369626,0.98366314,-2.646493673324585,0.2195541113615036,9.213857650756836,-3.3002734184265137,2.8597795963287354, 1.6672780513763428
243,399898370,0.105551235,-0.14107043,0.038141504,0.9836175,-2.6765060424804688,0.2280612587928772,9.189661026000977,-1.0260318517684937,2.9468369483947754, 1.4933676719665527
244,399915037,0.10557032,-0.14141783,0.038210776,0.9835629,-2.677114963531494,0.27388155460357666,9.140495300292969,1.1452269554138184,3.0501327514648438, 1.304640293121338
245,399931704,0.10558753,-0.14177422,0.038237818,0.98350865,-2.660670280456543,0.2928388714790344,9.197539329528809,0.8399876952171326,3.080317497253418, 1.308648943901062
246,399948371,0.10556726,-0.14215493,0.03811978,0.9834605,-2.664289951324463,0.28945857286453247,9.20345401763916,-0.21167613565921783,3.1463730335235596, 1.4642972946166992
247,399965038,0.105541356,-0.14259885,0.037828624,0.9834104,-2.6616997718811035,0.27693629264831543,9.168624877929688,-1.5188201665878296,3.4595391750335693, 1.5812959671020508
248,399981705,0.10544217,-0.14314036,0.037483957,0.9833555,-2.6633830070495605,0.21249336004257202,9.125373840332031,-1.872979998588562,4.084758281707764, 1.4997453689575195
249,399998372,0.10546825,-0.143738,0.03744032,0.9832671,-2.688108444213867,0.18856313824653625,9.13901424407959,0.13022136688232422,4.69843864440918, 1.3163838386535645
250,400015039,0.10561499,-0.14430615,0.037676595,0.98315907,-2.703651189804077,0.20356681942939758,9.138705253601074,2.143648624420166,4.693060398101807, 0.8520898818969727
251,400031706,0.105711676,-0.14484328,0.037952162,0.98305917,-2.701129198074341,0.2660764157772064,9.182930946350098,2.51222825050354,4.49741792678833, 0.8046294450759888
252,400048373,0.10578751,-0.14536515,0.038147263,0.9829665,-2.7302048206329346,0.330685555934906,9.167990684509277,1.9189226627349854,4.340974807739258, 0.9973137378692627
253,400065040,0.10577995,-0.14589365,0.03813808,0.98288924,-2.7440011501312256,0.31317028403282166,9.206338882446289,0.4838687479496002,4.236744403839111, 1.22657310962677
254,400081707,0.10569918,-0.14637661,0.03805002,0.9828296,-2.7641241550445557,0.2592226266860962,9.193439483642578,-0.04775488004088402,3.8661279678344727, 1.5040481090545654
255,400098374,0.105685644,-0.1467996,0.037917987,0.98277307,-2.7936367988586426,0.229902446269989,9.186726570129395,-0.41876769065856934,3.437141180038452, 1.6322909593582153
256,400115041,0.10569466,-0.14714392,0.0380225,0.9827166,-2.831364631652832,0.20003461837768555,9.218246459960938,1.320123553276062,3.05961012840271, 1.5352060794830322
257,400131708,0.10578923,-0.14735638,0.038217057,0.98266697,-2.852339744567871,0.2149956375360489,9.242084503173828,2.010923385620117,2.2134299278259277, 1.3983187675476074
258,400148375,0.105811045,-0.14750461,0.038382754,0.98263586,-2.8655686378479004,0.20192347466945648,9.177074432373047,1.9108673334121704,1.7427968978881836, 1.4979137182235718
259,400165042,0.105923876,-0.14755999,0.038584013,0.98260754,-2.841562509536743,0.2768736481666565,9.1314115524292,2.1522927284240723,1.1299234628677368, 1.4462018013000488
260,400181709,0.10593902,-0.1476117,0.038639404,0.98259604,-2.7826781272888184,0.27127310633659363,9.161210060119629,1.2556947469711304,0.9802941679954529, 1.3636651039123535
261,400198376,0.1060226,-0.14770094,0.0386229,0.9825742,-2.772555351257324,0.30136558413505554,9.156549453735352,0.6825591921806335,1.191445231437683, 1.2309783697128296
262,400215043,0.10603199,-0.14782232,0.03858722,0.9825564,-2.769151449203491,0.30349910259246826,9.139397621154785,0.5760359764099121,1.3936957120895386, 1.3082261085510254
263,400231710,0.10605286,-0.14797388,0.03852609,0.9825336,-2.7618157863616943,0.26417917013168335,9.079569816589355,0.29649901390075684,1.5953319072723389, 1.5032157897949219
264,400248377,0.106144436,-0.1481494,0.038388155,0.98250276,-2.7620837688446045,0.2550106942653656,9.144821166992188,-0.37071824073791504,1.7145715951919556, 1.5749696493148804
265,400265044,0.10612804,-0.14835387,0.038227174,0.9824799,-2.8120975494384766,0.2380029857158661,9.142359733581543,-0.44854235649108887,1.8856773376464844, 1.6049751043319702
266,400281711,0.106057666,-0.14860997,0.03801369,0.9824571,-2.8414344787597656,0.22516292333602905,9.174464225769043,-0.8161103129386902,2.1994330883026123, 1.6537415981292725
267,400298378,0.106048286,-0.14885893,0.037925396,0.9824238,-2.8386385440826416,0.22579634189605713,9.097664833068848,0.04744112119078636,2.2429232597351074, 1.5322731733322144
268,400315045,0.10618778,-0.1490763,0.0378848,0.98237735,-2.8328170776367188,0.26688438653945923,9.111501693725586,0.3162591755390167,2.0633528232574463, 1.2984037399291992
269,400331712,0.10625411,-0.14924276,0.037960816,0.98234195,-2.8248231410980225,0.2570875287055969,9.174593925476074,1.3025658130645752,1.781792402267456, 1.1784082651138306
270,400348379,0.1063229,-0.1493873,0.038006946,0.9823107,-2.8336195945739746,0.2762111723423004,9.212809562683105,1.1083320379257202,1.607574701309204, 1.1656277179718018
271,400365046,0.10644223,-0.1494945,0.038024567,0.98228085,-2.8469622135162354,0.23254473507404327,9.178647994995117,0.8424080610275269,1.3373349905014038, 1.2754673957824707
272,400381713,0.10658721,-0.14954013,0.038094085,0.9822555,-2.8819420337677,0.224481999874115,9.131901741027832,1.2151751518249512,0.9523376822471619, 1.322812557220459
273,400398380,0.10659943,-0.14952242,0.038147356,0.98225486,-2.8787596225738525,0.20798854529857635,9.139307975769043,1.2947924137115479,0.48580244183540344, 1.348604679107666
274,400415047,0.10664718,-0.14947066,0.03817709,0.98225635,-2.8766376972198486,0.24836465716362,9.163592338562012,1.129052758216858,0.23278747498989105, 1.309929609298706
275,400431714,0.10683395,-0.1493115,0.038477056,0.98224866,-2.879563808441162,0.24922017753124237,9.22395133972168,3.0607497692108154,-0.3099520802497864, 1.03361976146698
276,400448381,0.106985465,-0.1490613,0.03885472,0.9822552,-2.821227788925171,0.24076245725154877,9.243300437927246,3.6937808990478516,-0.8815892934799194, 1.1336759328842163
277,400465048,0.10709312,-0.14877148,0.039117668,0.9822769,-2.793958902359009,0.32047563791275024,9.199405670166016,2.9400112628936768,-1.2424464225769043, 1.2081445455551147
278,400481715,0.1071827,-0.14847118,0.03919098,0.98230964,-2.835564374923706,0.27132225036621094,9.18763256072998,1.5785170793533325,-1.4492433071136475, 1.3500902652740479
279,400498382,0.10720589,-0.14805351,0.039144285,0.9823721,-2.8775811195373535,0.21658067405223846,9.17005729675293,0.846224308013916,-2.3523213863372803, 1.518083930015564
280,400515049,0.1072042,-0.14762548,0.039007433,0.9824422,-2.8231754302978516,0.2543112337589264,9.135213851928711,0.21452556550502777,-2.4919490814208984, 1.619740605354309
281,400531716,0.107328214,-0.14727177,0.038862325,0.98248744,-2.7901194095611572,0.2549552619457245,9.110740661621094,-0.039763715118169785,-1.972946047782898, 1.5961129665374756
282,400548383,0.10752161,-0.1469917,0.038934812,0.9825054,-2.7609517574310303,0.33797600865364075,9.063250541687012,1.4873743057250977,-1.3116904497146606, 1.203047752380371
283,400565050,0.10762263,-0.14677384,0.03897531,0.9825252,-2.7089202404022217,0.29661858081817627,9.044622421264648,1.3056777715682983,-0.912926197052002, 1.2237939834594727
284,400581717,0.10770795,-0.14671308,0.03886632,0.9825293,-2.7314493656158447,0.358386367559433,9.07249927520752,0.0934799462556839,0.0673677995800972, 1.3537912368774414
285,400598384,0.10781311,-0.1467801,0.038574222,0.98251927,-2.724280834197998,0.3489859104156494,9.05222225189209,-1.3863259553909302,0.8231346011161804, 1.5195823907852173
286,400615051,0.107848175,-0.14698774,0.03822954,0.98249793,-2.7580363750457764,0.2819899916648865,9.020267486572266,-1.8923050165176392,1.7591253519058228, 1.8121179342269897
287,400631718,0.107852764,-0.14725894,0.038115844,0.98246115,-2.810689926147461,0.27904340624809265,9.043697357177734,-0.195514515042305,2.358577251434326, 1.5586670637130737
288,400648385,0.108015485,-0.14743577,0.03840569,0.9824054,-2.872527837753296,0.2751782536506653,9.1663818359375,2.669233798980713,2.005992889404297, 1.2045332193374634
289,400665052,0.10814355,-0.14751789,0.038727473,0.9823664,-2.8525853157043457,0.23315130174160004,9.240717887878418,2.9793264865875244,1.372667670249939, 1.3045251369476318
290,400681719,0.108239084,-0.1475438,0.038959704,0.9823428,-2.8858516216278076,0.26711300015449524,9.271309852600098,2.4228010177612305,0.9135986566543579, 1.3268979787826538
291,400698386,0.10832364,-0.14742486,0.03901592,0.9823491,-2.890352964401245,0.2377505600452423,9.291203498840332,1.2418253421783447,-0.21659378707408905, 1.534540057182312
292,400715053,0.10850298,-0.14714305,0.03903682,0.98237073,-2.8838353157043457,0.20339570939540863,9.260583877563477,1.0266915559768677,-1.3642990589141846, 1.5091068744659424
293,400731720,0.10865572,-0.1467209,0.03897023,0.98241955,-2.8092780113220215,0.22615964710712433,9.339999198913574,0.5760552287101746,-2.4070687294006348, 1.4517406225204468
294,400748387,0.1085163,-0.14608552,0.038473792,0.9825493,-2.803847074508667,-0.001944519579410553,9.544334411621094,-2.3616833686828613,-4.1852946281433105, 2.7342007160186768
295,400765054,0.10830401,-0.14526804,0.03794019,0.98271465,-2.8283309936523438,0.22986730933189392,9.42910385131836,-2.537809133529663,-5.459321975708008, 3.23161244392395
296,400781721,0.1080516,-0.14423363,0.037651844,0.9829058,-2.9189696311950684,0.060323841869831085,9.516916275024414,-0.8121147751808167,-6.753353118896484, 3.9809763431549072
297,400798388,0.10734061,-0.14322747,0.036997136,0.9831557,-2.920012950897217,-0.23186124861240387,9.740788459777832,-3.7198870182037354,-6.783371925354004, 6.593011856079102
298,400815055,0.10683299,-0.1414769,0.036651388,0.98347735,-2.9875600337982178,0.24544364213943481,9.505121231079102,-0.9395127892494202,-11.706099510192871, 5.959290504455566
299,400831722,0.106653735,-0.13879684,0.036352344,0.9838898,-3.0424110889434814,0.3236110210418701,9.487648963928223,0.27709776163101196,-18.12555503845215, 4.360279560089111
300,400848389,0.10668534,-0.13545594,0.036048617,0.9843631,-2.826397657394409,0.3604506552219391,9.507826805114746,1.0400246381759644,-22.73387336730957, 2.7401089668273926
301,400865056,0.10700012,-0.13151018,0.035946168,0.9848675,-2.6547179222106934,0.2701908349990845,9.441154479980469,2.957768201828003,-26.76685905456543, 1.6978892087936401
302,400881723,0.107458115,-0.12702219,0.036215607,0.9853968,-2.3925278186798096,0.18245866894721985,9.3716402053833,6.101023197174072,-30.233535766601562, 0.8924327492713928
303,400898390,0.108105056,-0.1221496,0.036805715,0.98592,-2.3424484729766846,0.26073259115219116,9.37053108215332,8.717093467712402,-32.635887145996094, 0.06157957762479782
304,400915057,0.10873784,-0.11705124,0.037312552,0.98644966,-2.282259702682495,0.23872317373752594,9.46307373046875,8.24519157409668,-34.21588134765625, 0.43405386805534363
305,400931724,0.10935356,-0.11169668,0.03783974,0.9869822,-2.117769241333008,0.3165503144264221,9.55085277557373,8.640120506286621,-35.940425872802734, 0.3886169195175171
306,400948391,0.10992382,-0.10614463,0.038353097,0.9875117,-1.953651785850525,0.39796364307403564,9.536934852600098,8.647258758544922,-37.265907287597656, 0.8467539548873901
307,400965058,0.11044376,-0.10044959,0.038861305,0.98802924,-1.8360539674758911,0.5206759572029114,9.370959281921387,8.683655738830566,-38.20682907104492, 1.2853868007659912
308,400981725,0.11096496,-0.09457154,0.039309483,0.98853326,-1.5783342123031616,0.5460576415061951,9.407066345214844,8.403120040893555,-39.47266387939453, 1.4067665338516235
309,400998392,0.11138432,-0.088393725,0.04001654,0.9890293,-1.5317275524139404,0.5230303406715393,9.439132690429688,10.474987030029297,-41.299137115478516, 1.6509603261947632
310,401015059,0.11169648,-0.081973165,0.040773027,0.989516,-1.344657063484192,0.6247264742851257,9.490800857543945,10.977914810180664,-42.87785720825195, 2.256833553314209
311,401031726,0.11170782,-0.075301185,0.041101076,0.9900313,-1.1879167556762695,0.6042529940605164,9.782578468322754,8.201610565185547,-44.87331771850586, 3.4614343643188477
312,401048393,0.11159488,-0.06807009,0.04120944,0.990563,-1.0865142345428467,0.6807848811149597,9.75732421875,7.061437606811523,-48.809452056884766, 4.364447593688965
313,401065060,0.11119274,-0.06040175,0.040519584,0.9911338,-0.7610318064689636,0.6531822085380554,10.102203369140625,1.8091963529586792,-52.32648849487305, 6.104475021362305
314,401081727,0.11059566,-0.05186383,0.039288793,0.9917335,-0.8406665921211243,0.7060171961784363,10.130969047546387,-1.3046499490737915,-58.60701370239258, 7.466391563415527
315,401098394,0.10986728,-0.042232443,0.03716325,0.9923532,-0.5055066347122192,0.7251065969467163,10.251930236816406,-6.631285190582275,-66.70690155029297, 8.343925476074219
316,401115061,0.10899432,-0.031537116,0.034825165,0.9929316,-0.07800496369600296,0.4645303189754486,10.480364799499512,-7.31482458114624,-74.06483459472656, 9.501046180725098
317,401131728,0.1079649,-0.019904269,0.033144835,0.99340266,0.2540754973888397,0.303189218044281,10.340246200561523,-2.127683162689209,-79.89189910888672, 10.846901893615723
318,401148395,0.106911115,-0.007580939,0.032202847,0.993718,0.39129459857940674,0.3614649772644043,9.523055076599121,3.4665298461914062,-84.01110076904297, 11.145219802856445
319,401165062,0.10597228,0.00521912,0.031307146,0.9938624,0.6895201206207275,0.44261112809181213,9.266600608825684,4.179780006408691,-87.2334213256836, 10.331707000732422
320,401181729,0.10495014,0.018210795,0.029883025,0.9938616,1.1590527296066284,0.3784217834472656,9.183595657348633,0.7424178123474121,-88.89624786376953, 10.844300270080566
321,401198396,0.1038795,0.03146563,0.02804054,0.99369663,1.5267179012298584,0.6746940016746521,9.150724411010742,-1.8853422403335571,-90.98149871826172, 11.152052879333496
322,401215063,0.102863245,0.04480207,0.024465343,0.9933849,1.8058351278305054,0.9643900990486145,9.51878547668457,-13.656888961791992,-92.7898178100586, 11.055575370788574
323,401231730,0.10193691,0.05807706,0.01924054,0.9929077,1.9315319061279297,0.4151182770729065,9.484793663024902,-24.984220504760742,-93.57403564453125, 10.813960075378418
324,401248397,0.100798436,0.07128435,0.01406983,0.99225026,2.2232844829559326,-0.5992059707641602,9.300040245056152,-24.555810928344727,-93.09339141845703, 12.099141120910645
325,401265064,0.09953486,0.08425204,0.009854885,0.9914118,2.73459792137146,0.2791004478931427,9.117749214172363,-18.096696853637695,-90.84740447998047, 12.323602676391602
326,401281731,0.09800596,0.09685393,0.005237279,0.9904478,3.148325204849243,0.6226086020469666,9.403902053833008,-20.932350158691406,-88.6510238647461, 14.247075080871582
327,401298398,0.09640425,0.10916014,0.0008234003,0.98933804,3.152899980545044,0.23014137148857117,9.413546562194824,-19.704641342163086,-86.55870819091797, 14.494582176208496
328,401315065,0.094630934,0.12131982,-0.0020700293,0.98809016,2.955390453338623,-0.48951154947280884,8.874611854553223,-9.33390998840332,-84.62911987304688, 14.421603202819824
329,401331732,0.09283458,0.13317679,-0.0038030383,0.98672765,3.2367725372314453,-0.44189968705177307,8.78778076171875,-1.6151888370513916,-81.89601135253906, 13.529206275939941
330,401348399,0.091137506,0.14419335,-0.005490108,0.98532844,3.4055092334747314,0.23190949857234955,8.908900260925293,-1.9198018312454224,-76.17691802978516, 12.801104545593262
331,401365066,0.08958172,0.15480302,-0.008511371,0.9838388,4.04674768447876,0.027928726747632027,9.22110366821289,-11.36479377746582,-74.32418823242188, 13.120369911193848
332,401381733,0.088332124,0.16537163,-0.011066276,0.9822053,4.957923412322998,0.7546893358230591,9.317758560180664,-8.572626113891602,-73.868896484375, 10.461620330810547
333,401398400,0.08734025,0.17585683,-0.014119065,0.9804319,5.314566612243652,0.20067022740840912,9.504982948303223,-12.313321113586426,-73.70423889160156, 9.21063232421875
334,401415067,0.08651003,0.1862839,-0.01696995,0.9785328,5.251506805419922,0.04800358787178993,9.350017547607422,-11.204608917236328,-73.28343963623047, 7.805231094360352
335,401431734,0.08568203,0.19646336,-0.019359235,0.9765685,5.137114524841309,-0.25375819206237793,8.987927436828613,-8.263294219970703,-71.38965606689453, 7.187214374542236
336,401448401,0.08483062,0.20619711,-0.021536577,0.97458863,4.747237205505371,-0.23870468139648438,8.790299415588379,-7.073052406311035,-68.2661361694336, 7.103071212768555
337,401465068,0.08397724,0.21531378,-0.023651095,0.97264,4.184931755065918,0.05575050786137581,8.628599166870117,-7.005061626434326,-64.03465270996094, 7.1330695152282715
338,401481735,0.08300009,0.22392039,-0.02562919,0.9707285,3.791764497756958,-0.15428103506565094,8.16305923461914,-6.20687198638916,-60.51279067993164, 7.862927436828613
339,401498402,0.081887774,0.23203006,-0.027543169,0.96886414,3.55735445022583,-0.1425071656703949,8.248546600341797,-5.849600791931152,-57.12307357788086, 8.779351234436035
340,401515069,0.08056765,0.23953353,-0.029382024,0.96709317,3.621379852294922,-0.07673855125904083,8.259964942932129,-5.345694541931152,-52.956390380859375, 10.20946216583252
341,401531736,0.07904226,0.24642849,-0.031221759,0.96542764,3.916184425354004,-0.09987403452396393,7.972006320953369,-5.335237503051758,-48.80459976196289, 11.757390975952148
342,401548403,0.077460155,0.252797,-0.033141993,0.963844,4.233466625213623,0.025559328496456146,8.167933464050293,-6.0475897789001465,-45.245723724365234, 12.428576469421387
343,401565070,0.075891905,0.25867367,-0.035154954,0.962337,4.457851409912109,0.0019195200875401497,8.319622039794922,-6.939975261688232,-41.915504455566406, 12.654007911682129
344,401581737,0.074362196,0.2641601,-0.03675968,0.9609051,4.270403861999512,-0.47412148118019104,8.463217735290527,-4.502277851104736,-38.993927001953125, 11.810078620910645
345,401598404,0.072888255,0.26924378,-0.037525985,0.9595765,3.7268383502960205,-0.8883946537971497,8.284754753112793,0.7567499279975891,-35.72792434692383, 10.071004867553711
346,401615071,0.07155203,0.27398562,-0.037975565,0.9583164,3.560997247695923,-1.064028024673462,8.075543403625488,2.4479498863220215,-33.18983459472656, 8.690045356750488
347,401631738,0.07020935,0.27829644,-0.03831063,0.9571594,3.7952425479888916,-1.0221493244171143,8.131643295288086,3.0432281494140625,-30.141908645629883, 8.669357299804688
348,401648405,0.06888102,0.28214023,-0.038972083,0.9561033,4.07761812210083,-0.7259908318519592,8.066093444824219,0.6812164783477783,-27.066795349121094, 9.361551284790039
349,401665072,0.06765915,0.28554636,-0.039945327,0.95513874,4.391078948974609,-0.37028801441192627,8.024657249450684,-1.7527196407318115,-24.16325569152832, 9.422325134277344
350,401681739,0.066496834,0.2884788,-0.040904753,0.95429814,4.63927698135376,-0.3586652874946594,8.119080543518066,-1.9686214923858643,-20.812009811401367, 9.192817687988281
351,401698406,0.06541777,0.2911337,-0.041559257,0.9535379,4.746409893035889,-0.3237670660018921,8.258543968200684,-0.2415664792060852,-18.691059112548828, 8.158084869384766
352,401715073,0.06451796,0.29351658,-0.041691367,0.9528626,4.5769362449646,-0.5659066438674927,8.217369079589844,2.720564603805542,-16.475004196166992, 6.055341720581055
353,401731740,0.06372267,0.29563892,-0.041265078,0.95227855,4.533804416656494,-0.9087467789649963,8.248872756958008,6.07800817489624,-14.333481788635254, 4.357537269592285
354,401748407,0.062834196,0.29746133,-0.039869647,0.9518293,4.523815631866455,-1.1351076364517212,8.544705390930176,12.526268005371094,-11.727259635925293, 3.135938882827759
355,401765074,0.06204458,0.29905918,-0.038617004,0.95143205,4.017983913421631,-0.9458039402961731,8.46703052520752,11.319059371948242,-10.220370292663574, 2.8561315536499023
356,401781741,0.06145857,0.30046266,-0.038330693,0.9510394,3.611534833908081,-0.8122289180755615,8.5961332321167,4.505461692810059,-9.342658996582031, 3.558098554611206
357,401798408,0.060986016,0.301505,-0.03920712,0.95070416,3.015979051589966,-1.186886191368103,8.90750789642334,-3.463465690612793,-7.378418445587158, 5.333673477172852
358,401815075,0.060491227,0.30210558,-0.04149694,0.9504479,2.365385055541992,-1.6213524341583252,8.900174140930176,-12.806580543518066,-4.997708320617676, 8.55240249633789
359,401831742,0.059533764,0.30217367,-0.04448201,0.9503518,1.9858086109161377,-1.9505999088287354,8.808623313903809,-16.54303550720215,-1.6911320686340332, 13.224157333374023
360,401848409,0.058615606,0.30161417,-0.04793322,0.9504187,1.6392561197280884,-0.7948277592658997,8.848029136657715,-19.850011825561523,2.4801790714263916, 14.176589012145996
361,401865076,0.05811175,0.30028528,-0.05259371,0.95062387,1.5621496438980103,0.39986473321914673,8.549308776855469,-28.87494659423828,7.34731912612915, 14.28321361541748
362,401881743,0.05812995,0.2982136,-0.057332247,0.951001,2.786699056625366,1.068343162536621,9.119894981384277,-30.723037719726562,12.62358570098877, 11.381288528442383
363,401898410,0.058282178,0.29545152,-0.05993755,0.9516928,3.4116055965423584,0.6759406924247742,9.243487358093262,-17.243436813354492,18.617002487182617, 6.550650119781494
364,401915077,0.05889798,0.29165027,-0.05995403,0.9528258,3.655592441558838,0.5419827103614807,8.914861679077148,-1.514329195022583,27.482275009155273, -1.1164733171463013
365,401931744,0.060457163,0.28657606,-0.05922997,0.95431185,2.9530985355377197,0.7966389656066895,9.834912300109863,1.0459190607070923,37.1715202331543, -8.094524383544922
366,401948411,0.062416103,0.2804187,-0.056846008,0.9561581,1.6343597173690796,-0.3319763243198395,9.539124488830566,10.811057090759277,45.76994323730469, -13.375537872314453
367,401965078,0.06474217,0.27281848,-0.053072535,0.9584163,1.2880297899246216,-0.2891506850719452,9.028573989868164,18.77186393737793,56.69883346557617, -17.71935272216797
368,401981745,0.06724995,0.263671,-0.048322495,0.96105164,1.011021375656128,-0.12722325325012207,9.168130874633789,24.31051254272461,68.01703643798828, -20.00634765625
369,401998412,0.06962022,0.2531601,-0.04160429,0.9640187,0.2227957546710968,0.13893595337867737,9.123061180114746,37.039878845214844,78.40320587158203, -22.044898986816406
370,402015079,0.07182455,0.24050502,-0.03375052,0.96739835,1.902156949043274,0.7717203497886658,8.341899871826172,43.940494537353516,93.7303466796875, -22.09104347229004
371,402031746,0.07386189,0.22582358,-0.025502594,0.9710292,5.655707359313965,-0.13791032135486603,10.15567684173584,45.8788948059082,107.73343658447266, -21.009801864624023
372,402048413,0.0763767,0.2067027,-0.01701045,0.9752699,10.934536933898926,-0.2800479531288147,9.85763168334961,44.624969482421875,138.55194091796875, -23.469470977783203
373,402065080,0.07966479,0.18151812,-0.009251788,0.9801118,16.170730590820312,1.7668843269348145,11.31425666809082,35.503883361816406,179.93136596679688, -26.5739688873291
374,402081747,0.08385842,0.15119356,-0.011092069,0.98487836,19.179248809814453,3.5030088424682617,14.2828369140625,-33.17581558227539,209.5511932373047, -20.396455764770508
375,402098414,0.08877729,0.11715917,-0.020316798,0.98892856,18.422143936157227,2.6496336460113525,13.637906074523926,-86.21630096435547,230.0682830810547, -17.748414993286133
376,402115081,0.09358349,0.07737102,-0.03551757,0.9919651,14.36560344696045,0.6697434186935425,14.331562042236328,-130.4978790283203,265.0805969238281, -11.968687057495117
377,402131748,0.09685081,0.031212335,-0.048914183,0.9936062,5.777771949768066,-1.4180272817611694,14.896943092346191,-121.85234069824219,308.87384033203125, -1.748913049697876
378,402148415,0.09996147,-0.016097287,-0.063226625,0.99285,-0.753520667552948,1.1518970727920532,15.018183708190918,-129.65025329589844,315.6569519042969, -1.6688910722732544
379,402165082,0.09949842,-0.054790776,-0.08930057,0.98950684,7.247409820556641,-5.598167896270752,-0.010731786489486694,-205.6231689453125,247.41650390625, 15.919760704040527
380,402181749,0.09741233,-0.07696604,-0.098438606,0.9873689,13.393522262573242,-8.675288200378418,-14.866328239440918,-78.78665924072266,145.2563018798828, 24.089786529541016
381,402198416,0.09722048,-0.09046189,-0.063772336,0.98908955,2.9984493255615234,-14.547537803649902,-0.6123793721199036,228.3185272216797,115.18795776367188, 31.20926856994629
382,402215083,0.09957939,-0.10253664,-0.038508985,0.988983,-5.492049217224121,8.549495697021484,14.343475341796875,166.38812255859375,101.54800415039062, 6.2039265632629395
383,402231750,0.10138091,-0.11587321,-0.03366956,0.98750275,-3.435049057006836,1.4211558103561401,9.921439170837402,25.640161514282227,96.88479614257812, -5.0955963134765625
384,402248417,0.10170807,-0.12788153,-0.031586003,0.98605484,-3.950594663619995,0.24465928971767426,7.16422176361084,6.628885746002197,85.53846740722656, 2.41849684715271
385,402265084,0.10235031,-0.13758351,-0.028798787,0.9847669,-6.203472137451172,2.7831406593322754,7.718020915985107,13.298653602600098,70.2624282836914, 0.5034842491149902
386,402281751,0.10272134,-0.14432572,-0.031347033,0.98368484,-6.748264789581299,1.1904795169830322,7.031013011932373,-21.037029266357422,46.11785888671875, -3.1773481369018555
387,402298418,0.103328936,-0.14835651,-0.034319457,0.9829222,-6.736693859100342,-0.9399651885032654,7.357745170593262,-21.729419708251953,27.101318359375, -5.574090480804443
388,402315085,0.10378445,-0.15034793,-0.035587564,0.9825263,-7.527547359466553,-1.556573748588562,8.241989135742188,-8.830536842346191,14.013482093811035, -3.0337626934051514
389,402331752,0.10428717,-0.15116464,-0.035133112,0.9823642,-7.147180080413818,-1.8146873712539673,8.038046836853027,3.761359930038452,6.9623332023620605, -1.697225570678711
390,402348419,0.105016336,-0.15124893,-0.033018585,0.98234695,-7.214291572570801,-1.1720328330993652,8.179852485656738,15.785974502563477,3.005070447921753, -1.5778717994689941
391,402365086,0.10576532,-0.15123735,-0.031278804,0.98232526,-7.5597758293151855,-0.16154229640960693,8.502433776855469,13.347804069519043,1.9922786951065063, -2.134397268295288
392,402381753,0.106088,-0.15121406,-0.031167397,0.9822974,-7.63849401473999,-0.36914706230163574,8.284699440002441,1.897523283958435,0.5360033512115479, -0.9698889851570129
393,402398420,0.10623941,-0.15092751,-0.032871563,0.9822696,-7.272958755493164,-0.47229886054992676,7.531020164489746,-10.361428260803223,-2.7122321128845215, -1.7696844339370728
394,402415087,0.10602904,-0.15017058,-0.03606514,0.98229635,-7.055178165435791,-1.1234729290008545,7.126293182373047,-20.44725227355957,-7.220218658447266, -0.9503095149993896
395,402431754,0.1052969,-0.14849581,-0.040132716,0.98247194,-6.557295322418213,-1.7096773386001587,6.51938533782959,-26.177234649658203,-14.441011428833008, 1.5441370010375977
396,402448421,0.10392115,-0.1451796,-0.04475298,0.9829144,-6.075713157653809,-2.532370090484619,6.119567394256592,-29.288541793823242,-26.47334098815918, 5.061385154724121
397,402465088,0.10212252,-0.13929437,-0.048091047,0.9837964,-5.704552173614502,-2.6742684841156006,5.762218475341797,-19.042137145996094,-43.573429107666016, 8.720780372619629
398,402481755,0.10030707,-0.13022257,-0.049678467,0.9851461,-4.803995132446289,-2.0445375442504883,5.371103763580322,-4.789865016937256,-64.43292999267578, 9.783858299255371
399,402498422,0.098028794,-0.11705487,-0.05164059,0.9869254,-3.0091183185577393,-2.4397177696228027,5.760984897613525,-4.748012065887451,-93.04405212402344, 11.474839210510254
400,402515089,0.09489811,-0.0981501,-0.055995256,0.98905283,-0.33471566438674927,-2.9258995056152344,4.435093879699707,-17.649898529052734,-134.20228576660156, 13.525530815124512
401,402531756,0.09201538,-0.07503347,-0.060490824,0.99108225,0.9803721308708191,-2.1265220642089844,6.489741325378418,-15.687981605529785,-162.76205444335938, 10.054850578308105
402,402548423,0.08952511,-0.04979388,-0.065440446,0.99258417,-0.2900613844394684,-1.7142236232757568,10.245803833007812,-17.434885025024414,-177.0355224609375, 5.919058322906494
403,402565090,0.08493333,-0.019142564,-0.071740605,0.9936162,-0.6597579121589661,-1.2923457622528076,-1.7971303462982178,-24.253189086914062,-215.57595825195312, 17.0560302734375
404,402581757,0.07494473,0.028540317,-0.069242485,0.99437135,15.91707992553711,-16.536338806152344,-12.727560997009277,44.99211502075195,-329.52264404296875, 46.50859069824219
405,402598424,0.073517166,0.06668467,-0.05144277,0.9937314,19.98188591003418,8.204995155334473,33.51062774658203,142.7311553955078,-252.22537231445312, -11.239548683166504
406,402615091,0.06856579,0.101463914,-0.0668653,0.9902186,13.656210899353027,-2.909968614578247,27.76915168762207,-85.66844177246094,-248.23419189453125, 27.828754425048828
407,402631758,0.06349902,0.13603742,-0.061282936,0.9867655,18.67333984375,-10.462538719177246,15.89037036895752,57.370201110839844,-236.7570037841797, 14.063125610351562
408,402648425,0.058449384,0.16671745,-0.050306164,0.98298436,25.42136001586914,-0.8807632327079773,17.173826217651367,92.27517700195312,-207.98558044433594, 10.330957412719727
409,402665092,0.05644202,0.192003,-0.0494155,0.9785231,13.624545097351074,5.618057727813721,14.77151870727539,18.174083709716797,-174.90664672851562, 2.9042012691497803
410,402681759,0.055913396,0.2095291,-0.05109166,0.9748647,3.74139404296875,0.8297306299209595,4.143887996673584,-3.927900552749634,-121.98348999023438, -0.673188328742981
411,402698426,0.057316042,0.2268324,-0.053935375,0.9707486,-0.5957525968551636,4.686519622802734,3.1341826915740967,-14.816574096679688,-120.894775390625, -12.033493041992188
412,402715093,0.05958335,0.24406603,-0.05712725,0.96623915,1.5536916255950928,3.2420239448547363,4.260636329650879,-18.763734817504883,-120.91011047363281, -17.3563175201416
413,402731760,0.06260318,0.25984946,-0.058151077,0.9618616,2.528857707977295,2.5449347496032715,7.388741493225098,-6.241787433624268,-109.892578125, -25.342073440551758
414,402748427,0.06483843,0.27350196,-0.056645617,0.9580105,1.4398001432418823,0.6254571080207825,6.1578474044799805,11.11410140991211,-94.12351989746094, -23.569534301757812
415,402765094,0.06612009,0.28459966,-0.054338455,0.9548186,0.7539883852005005,-0.45586010813713074,8.375895500183105,17.27750587463379,-76.11995697021484, -17.504653930664062
416,402781761,0.06640471,0.29336163,-0.052524656,0.95224506,-0.6004015803337097,-2.030027389526367,10.160642623901367,15.149706840515137,-60.26150894165039, -8.84763240814209
417,402798428,0.0658002,0.29991916,-0.05232792,0.950253,-1.085836410522461,-2.5346083641052246,9.413081169128418,5.5783796310424805,-45.848297119140625, 1.274017333984375
418,402815095,0.064441666,0.30475757,-0.05324567,0.94875443,-0.36123520135879517,-0.9462406635284424,10.11755084991455,-0.7187211513519287,-34.508079528808594, 9.314016342163086
419,402831762,0.062353306,0.3084304,-0.05459624,0.9476297,0.8103387951850891,-0.2048562914133072,10.971795082092285,-2.3883025646209717,-26.710948944091797, 15.56616497039795
420,402848429,0.060299523,0.31162503,-0.055648588,0.9466558,2.216418981552124,-0.24562019109725952,10.766077995300293,-0.6762283444404602,-23.255714416503906, 14.954710960388184
421,402865096,0.05854766,0.31417066,-0.05649291,0.9458741,3.264549493789673,-1.252896785736084,10.89227294921875,-0.1744484007358551,-18.514263153076172, 12.874405860900879
422,402881763,0.057057537,0.31563923,-0.057651553,0.9454062,3.6106009483337402,-2.360870599746704,10.471625328063965,-3.09067440032959,-10.937541007995605, 12.389098167419434
423,402898430,0.05580604,0.31522042,-0.059278905,0.94552,3.1783039569854736,-1.892791748046875,10.131918907165527,-7.143476963043213,2.4342007637023926, 12.813331604003906
424,402915097,0.054968324,0.31298116,-0.062211975,0.9461244,2.34661602973938,-0.4470583498477936,9.35399055480957,-17.01302146911621,14.927571296691895, 13.871071815490723
425,402931764,0.05440593,0.309407,-0.066167906,0.94706345,1.544461727142334,0.5173875689506531,9.084253311157227,-24.62782096862793,23.989362716674805, 14.981513023376465
426,402948431,0.05367223,0.3052686,-0.06946139,0.9482117,0.5649707317352295,0.06968076527118683,9.558942794799805,-20.088539123535156,28.197118759155273, 15.03508186340332
427,402965098,0.052994695,0.30070844,-0.071806274,0.9495314,0.7194215655326843,-0.2660616636276245,9.683088302612305,-14.113688468933105,31.58371353149414, 12.948478698730469
428,402981765,0.052648064,0.29600435,-0.074071094,0.95085394,1.436667561531067,-0.4591257572174072,9.396742820739746,-14.3401460647583,32.62662124633789, 10.697088241577148
429,402998432,0.052662805,0.2919564,-0.0760323,0.95194924,1.9156943559646606,-0.7334932088851929,9.738890647888184,-12.980280876159668,28.089927673339844, 7.301265716552734
430,403015099,0.05281579,0.287745,-0.07696601,0.95314735,2.6806650161743164,-0.8994170427322388,10.148990631103516,-6.547049522399902,29.738786697387695, 4.455861568450928
431,403031766,0.053491883,0.27993223,-0.07477414,0.9556074,1.4235702753067017,-0.6001474261283875,10.620643615722656,12.254730224609375,57.18638229370117, -2.7908577919006348
432,403048433,0.05421686,0.26957557,-0.072277084,0.9587313,0.8465009927749634,-0.23177239298820496,9.27700424194336,13.561697006225586,75.23206329345703, -2.142866373062134
433,403065100,0.055053923,0.256993,-0.0674847,0.96248096,-0.03446012735366821,0.8813056945800781,8.84443187713623,27.95444107055664,91.90241241455078, -5.788352012634277
434,403081767,0.056575198,0.24164905,-0.06092434,0.9667954,0.5575678944587708,2.457021713256836,8.075779914855957,37.637386322021484,112.08216857910156, -11.926071166992188
435,403098434,0.058314495,0.22381096,-0.052512594,0.97146827,3.657949447631836,1.3403339385986328,8.267935752868652,48.71604537963867,130.01283264160156, -15.233304023742676
436,403115101,0.061774828,0.19850835,-0.04571713,0.97708166,10.787787437438965,3.2195889949798584,8.540000915527344,32.59195327758789,181.30003356933594, -21.146190643310547
437,403131768,0.066974096,0.16491736,-0.050136607,0.98275286,18.084897994995117,1.5452344417572021,12.500849723815918,-48.69782638549805,232.98818969726562, -14.86578369140625
438,403148435,0.07278357,0.12389399,-0.061773993,0.9876927,20.315940856933594,-0.8270837068557739,13.280917167663574,-101.8988037109375,279.5371398925781, -8.573005676269531
439,403165102,0.07912325,0.07609687,-0.075858355,0.9910571,19.20469856262207,0.693071722984314,14.064306259155273,-123.05612182617188,323.5317077636719, -7.998818397521973
440,403181769,0.08575723,0.020328298,-0.08926599,0.9921009,11.359567642211914,0.863162636756897,18.094398498535156,-124.20983123779297,377.5157470703125, -7.442481517791748
441,403198436,0.09127601,-0.03827385,-0.10513515,0.9895205,1.1045488119125366,-1.1848877668380737,19.500329971313477,-144.82994079589844,394.3990478515625, 0.12643252313137054
442,403215103,0.09494079,-0.08844426,-0.115507044,0.9847955,16.284866333007812,-6.423760890960693,1.8814258575439453,-104.18081665039062,339.6301574707031, 6.731163501739502
443,403231770,0.09388144,-0.11657752,-0.10114273,0.9835478,26.948694229125977,-23.966957092285156,-24.569110870361328,77.73657989501953,200.87408447265625, 38.58835983276367
444,403248437,0.10546956,-0.14016537,-0.042122494,0.9835933,-0.036802828311920166,3.5595784187316895,9.76900577545166,394.4311218261719,207.23497009277344, -13.367409706115723
445,403265104,0.111286774,-0.15912683,-0.047537625,0.9798134,-4.582552909851074,6.992453575134277,7.42322301864624,-45.01311111450195,131.1446990966797, -40.605674743652344
446,403281771,0.11385497,-0.17119263,-0.050196856,0.97734874,-3.4598934650421143,-4.20447301864624,1.0346776247024536,-24.43782615661621,84.23822784423828, -16.98023796081543
447,403298438,0.113104455,-0.17657267,-0.055059258,0.9762163,-8.836347579956055,1.0606695413589478,6.674639701843262,-37.39402770996094,34.8099479675293, 1.4861969947814941
448,403315105,0.11050329,-0.17395206,-0.067355245,0.97621363,-8.297853469848633,-3.9353489875793457,4.208475112915039,-82.9214859008789,-26.862844467163086, 2.721953868865967
449,403331772,0.10959998,-0.16535096,-0.06996327,0.9776258,-7.9198126792907715,-6.926746845245361,6.199660301208496,-10.614120483398438,-60.67012405395508, 1.226397156715393
450,403348439,0.11056515,-0.15425152,-0.06224572,0.97985077,-8.119918823242188,-3.865161895751953,10.479899406433105,63.28296661376953,-69.80905151367188, -0.17921766638755798
451,403365106,0.111067705,-0.1447537,-0.05353697,0.98175573,-7.717318058013916,-1.8977028131484985,13.097169876098633,68.14830017089844,-58.20608139038086, 4.412840843200684
452,403381773,0.11093046,-0.13940531,-0.046326183,0.9829113,-7.710431098937988,-0.6892148852348328,13.923004150390625,53.952274322509766,-30.897668838500977, 8.174860954284668
453,403398440,0.11074973,-0.13854054,-0.04206487,0.9832456,-8.120973587036133,0.8259065747261047,13.635531425476074,30.27596092224121,-2.1412160396575928, 6.424846172332764
454,403415107,0.110735126,-0.14109114,-0.040717237,0.9829411,-8.447208404541016,1.248342752456665,12.715694427490234,7.9091057777404785,19.308374404907227, 3.0089144706726074
455,403431774,0.1110367,-0.14514478,-0.041731823,0.9822741,-8.175825119018555,0.2328629493713379,10.967658042907715,-9.040669441223145,28.02242088317871, -1.2913448810577393
456,403448441,0.11122346,-0.14905074,-0.04359607,0.98158705,-8.071181297302246,-0.9543259739875793,9.526504516601562,-14.813115119934082,26.277812957763672, -1.4341237545013428
457,403465108,0.11098266,-0.152127,-0.046144504,0.9810255,-7.999337196350098,-1.1354273557662964,8.660120964050293,-19.20178985595703,19.810291290283203, 0.5899196863174438
458,403481775,0.11042866,-0.15419526,-0.048810367,0.98063606,-7.367772579193115,-1.5662657022476196,7.25960636138916,-19.4986629486084,12.554363250732422, 2.3824400901794434
459,403498442,0.10988121,-0.1550371,-0.049983267,0.98050565,-6.985261917114258,-1.4665617942810059,6.5825114250183105,-8.399879455566406,5.063702583312988, 3.699979782104492
460,403515109,0.10939956,-0.15431912,-0.049766682,0.9806838,-6.819230556488037,-1.3700206279754639,5.809537410736084,2.3287010192871094,-4.786362171173096, 4.428033828735352
461,403531776,0.1089575,-0.15139331,-0.048299253,0.9812623,-6.336045742034912,-0.6426476836204529,4.837462425231934,12.609292984008789,-19.22154998779297, 5.0280327796936035
462,403548443,0.10825981,-0.14557871,-0.04798197,0.9822344,-5.925185203552246,-0.39915162324905396,4.483874797821045,6.875916957855225,-40.14216232299805, 4.8829426765441895
463,403565110,0.10719883,-0.13607661,-0.04934214,0.9836448,-5.075907230377197,-0.6689385175704956,4.1306471824646,-1.932214617729187,-66.92265319824219, 4.758474349975586
464,403581777,0.10577313,-0.12250293,-0.05172335,0.98545927,-3.9151358604431152,-1.1555986404418945,4.641117095947266,-6.041232585906982,-95.7732925415039, 5.177435874938965
465,403598444,0.10368592,-0.104747735,-0.05533974,0.9875297,-2.9014742374420166,-2.0323522090911865,5.709433078765869,-11.830349922180176,-125.49652099609375, 7.310780048370361
466,403615111,0.10066591,-0.08227723,-0.060367867,0.98967296,-0.30734193325042725,-3.6129980087280273,5.615043640136719,-18.683109283447266,-158.9537353515625, 10.878859519958496
467,403631778,0.09755491,-0.05510906,-0.06631099,0.9914883,4.355928897857666,-3.8329122066497803,4.661571025848389,-21.805898666381836,-191.39707946777344, 8.797520637512207
468,403648445,0.09616632,-0.026363868,-0.069724895,0.9925701,4.344820976257324,-2.3576278686523438,9.681160926818848,-3.1397624015808105,-199.30389404296875, -3.2015490531921387
469,403665112,0.09226214,0.006614996,-0.07414013,0.9929488,2.0885586738586426,-4.409490585327148,-4.934205532073975,-7.958085536956787,-229.86532592773438, 11.286700248718262
470,403681779,0.0832929,0.06257666,-0.058240097,0.9928517,15.808895111083984,-18.58956527709961,-28.338634490966797,145.45419311523438,-376.62188720703125, 32.91837692260742
471,403698446,0.07874444,0.10695818,-0.04590399,0.99007684,29.22093391418457,13.211529731750488,49.544960021972656,111.80457305908203,-298.5923156738281, 7.272009372711182
472,403715113,0.07190043,0.15031318,-0.051820647,0.9846578,8.72728443145752,-5.610047817230225,25.46307373046875,-12.475573539733887,-303.83502197265625, 35.28278350830078
473,403731780,0.066391885,0.18271342,-0.051545836,0.9795669,37.65319061279297,-9.526756286621094,17.877239227294922,22.811006546020508,-225.71461486816406, 23.854555130004883
474,403748447,0.059792053,0.2131156,-0.042405404,0.97427344,17.707956314086914,6.121638298034668,15.853893280029297,83.01615905761719,-208.3824920654297, 20.61602783203125
475,403765114,0.059290934,0.23043293,-0.049727395,0.9700065,15.073758125305176,4.310981750488281,13.809587478637695,-41.40169143676758,-124.04061889648438, 8.160744667053223
476,403781781,0.061571933,0.25099,-0.054692563,0.96448004,5.5035929679870605,3.4987895488739014,4.367659568786621,-29.28316307067871,-145.6232147216797, -15.699551582336426
477,403798448,0.06503635,0.27084038,-0.05750663,0.95870167,-0.9545831084251404,-0.42500460147857666,3.3991050720214844,-17.518259048461914,-139.979736328125, -27.065982818603516
478,403815115,0.06770999,0.28729728,-0.05717501,0.9537331,-3.7918334007263184,1.3652347326278687,2.7771830558776855,3.481813430786133,-115.05394744873047, -26.014467239379883
479,403831782,0.07102302,0.30129525,-0.0570765,0.94916767,-3.369673728942871,3.1410531997680664,5.441690921783447,-0.32669559121131897,-98.07113647460938, -28.5853271484375
480,403848449,0.074108526,0.31355792,-0.05610593,0.94500875,-2.3724312782287598,1.9418206214904785,6.538869380950928,5.097029209136963,-85.66758728027344, -27.99938201904297
481,403865116,0.07635599,0.3241408,-0.052366782,0.9414671,-1.6634669303894043,0.11327844113111496,6.770975112915039,24.239734649658203,-72.43283081054688, -27.544828414916992
482,403881783,0.07745931,0.33315703,-0.04741893,0.9384871,0.15362806618213654,-1.0192362070083618,10.154979705810547,33.98167037963867,-60.90891647338867, -21.977508544921875
483,403898450,0.076830134,0.34029597,-0.044855878,0.93610036,-0.1178460419178009,-3.230443000793457,10.396527290344238,21.758209228515625,-49.374168395996094, -4.421015739440918
484,403915117,0.07452058,0.34505767,-0.04484065,0.9345434,-0.7177677154541016,-2.690620183944702,10.29430866241455,8.32222843170166,-34.10537338256836, 13.492382049560547
485,403931784,0.07162184,0.34776694,-0.049006697,0.9335561,0.44595572352409363,0.37211620807647705,11.349820137023926,-17.996416091918945,-22.005197525024414, 28.095632553100586
486,403948451,0.06913298,0.34913912,-0.055792592,0.93285036,2.776305913925171,1.5127601623535156,11.576751708984375,-36.363826751708984,-14.013422012329102, 32.32700729370117
487,403965118,0.067325525,0.35051712,-0.062121302,0.9320655,6.142916679382324,0.15600398182868958,10.988409042358398,-35.117671966552734,-13.848751068115234, 26.84183120727539
488,403981785,0.0653253,0.351545,-0.06611585,0.93154573,6.926578998565674,-0.7019075155258179,11.695883750915527,-19.7545166015625,-10.009478569030762, 22.734481811523438
489,403998452,0.06389392,0.3516607,-0.06885363,0.931403,6.330331325531006,-0.7153030037879944,10.62860107421875,-13.3231840133667,-2.4726409912109375, 16.639951705932617
490,404015119,0.06325662,0.35061517,-0.071651384,0.9316296,4.352624893188477,-0.4726842939853668,9.642276763916016,-15.96701717376709,6.170639514923096, 12.414154052734375
491,404031786,0.06284955,0.3479597,-0.073931314,0.93247426,1.4408793449401855,-0.2575187087059021,9.108545303344727,-13.60732650756836,18.264129638671875, 10.755596160888672
492,404048453,0.06215814,0.34372526,-0.07466673,0.93403125,0.2077772617340088,-0.04099974408745766,8.860146522521973,-3.353508472442627,30.540157318115234, 9.995992660522461
493,404065120,0.061450537,0.33771294,-0.074155174,0.93630916,0.2538427710533142,0.07018522173166275,9.11838436126709,4.293045520782471,44.10236740112305, 8.37695598602295
494,404081787,0.061038777,0.32978183,-0.073216826,0.9392325,1.0290510654449463,-0.6828243732452393,9.498913764953613,5.860264301300049,58.20100021362305, 6.737305164337158
495,404098454,0.060673237,0.3202582,-0.07239918,0.9426092,1.8684823513031006,-1.2606828212738037,9.548369407653809,4.531790733337402,69.41069793701172, 7.702454566955566
496,404115121,0.06054073,0.30925012,-0.07253592,0.9462759,2.011382579803467,-0.5571200251579285,9.6392822265625,-2.639512062072754,79.32575988769531, 9.146917343139648
497,404131788,0.060356766,0.29826808,-0.07367758,0.9497183,1.9840093851089478,-0.24623163044452667,9.08222770690918,-9.175236701965332,78.17736053466797, 11.511443138122559
498,404148455,0.059492566,0.28790852,-0.0730473,0.9530129,2.461233377456665,-0.31813961267471313,9.438617706298828,3.9642269611358643,74.14986419677734, 11.945623397827148
499,404165122,0.05940849,0.27521083,-0.06863878,0.95708865,3.8928680419921875,1.1485968828201294,8.518083572387695,26.604528427124023,92.91087341308594, 0.8544998168945312
500,404181789,0.0606939,0.25962204,-0.061141342,0.96185994,5.739029884338379,1.6213079690933228,8.48717212677002,43.467315673828125,115.1461410522461, -12.32946491241455
501,404198456,0.063388586,0.23985764,-0.050947312,0.9673958,7.529527187347412,1.9845290184020996,9.088089942932129,57.34202194213867,145.85968017578125, -24.358352661132812
502,404215123,0.068235874,0.21265793,-0.04359357,0.97376585,14.561546325683594,2.829737901687622,8.410820960998535,31.923341751098633,196.2557830810547, -30.99726676940918
503,404231790,0.07564651,0.17864756,-0.04722211,0.9798637,20.85862159729004,2.219444513320923,14.728179931640625,-48.68270492553711,237.22946166992188, -30.16230010986328
504,404248457,0.08381767,0.13861813,-0.05568265,0.9852203,22.523212432861328,-3.266782522201538,15.548555374145508,-85.59941864013672,274.8277587890625, -27.766929626464844
505,404265124,0.09255935,0.09158424,-0.061993234,0.98954636,16.125635147094727,-0.9750001430511475,15.29063892364502,-75.99545288085938,323.0284729003906, -31.605491638183594
506,404281791,0.100270875,0.039509784,-0.07440563,0.99138725,6.300844669342041,0.16684210300445557,17.684524536132812,-121.17182159423828,351.6477966308594, -20.177165985107422
507,404298458,0.1041159,-0.016042447,-0.08256893,0.9910021,-0.9255248308181763,-5.475114822387695,14.751022338867188,-94.72535705566406,375.7731018066406, 5.283501625061035
508,404315125,0.10623667,-0.060996942,-0.079816684,0.9892535,19.56236457824707,-5.436318874359131,-6.087993144989014,-13.64332389831543,310.4356689453125, 11.222795486450195
509,404331792,0.10386254,-0.08763868,-0.031769965,0.9902137,22.490022659301758,-29.870023727416992,-19.155052185058594,307.6520080566406,215.6383819580078, 52.74997329711914
510,404348459,0.111431025,-0.11040317,0.010515491,0.98756456,-2.6792500019073486,20.534517288208008,11.387824058532715,276.80853271484375,189.72630310058594, -21.887699127197266
511,404365126,0.113989815,-0.12774779,0.0017469522,0.98523295,-1.9518743753433228,-3.1051533222198486,0.8706592321395874,-69.932373046875,113.8501968383789, -26.01565933227539
512,404381793,0.115332514,-0.13559642,0.014370903,0.9839237,-5.136419773101807,-1.924315333366394,2.200030565261841,81.38574981689453,65.3742446899414, 1.9351587295532227
513,404398460,0.114678465,-0.13894829,0.0146354735,0.98352844,-8.148789405822754,4.320801258087158,8.144649505615234,-0.5866601467132568,24.429540634155273, 5.0868916511535645
514,404415127,0.11260892,-0.14010717,0.004081657,0.9837035,-7.115218162536621,-2.603739023208618,7.519044876098633,-73.48506164550781,0.5838078260421753, 4.995640754699707
515,404431794,0.11064274,-0.14001516,0.0026112483,0.9839447,-7.651932239532471,-3.3992254734039307,10.761065483093262,-10.948543548583984,-0.981364369392395, 13.142817497253418
516,404448461,0.10944833,-0.14035629,0.004628056,0.9840223,-8.23674488067627,0.1579095721244812,12.532886505126953,13.102350234985352,4.680540084838867, 11.151211738586426
517,404465128,0.10856319,-0.14185989,0.005302702,0.9839014,-7.730950832366943,0.8483958840370178,12.34951400756836,3.444981098175049,11.651962280273438, 7.574942111968994
518,404481795,0.10798681,-0.14450063,0.005997933,0.98357636,-8.114225387573242,2.2321696281433105,12.949506759643555,3.0276622772216797,19.489376068115234, 5.310550689697266
519,404498462,0.107565396,-0.14835496,0.006841247,0.98304313,-8.306402206420898,2.0709218978881836,12.729426383972168,3.2550950050354004,27.947357177734375, 4.201601982116699
520,404515129,0.107661046,-0.15375428,0.007525375,0.98219776,-7.712127208709717,1.9267715215682983,11.27970027923584,1.5455870628356934,38.50572204589844, 0.23844905197620392
521,404531796,0.107993715,-0.16048391,0.0052654934,0.9810987,-7.389472484588623,1.8149631023406982,9.911561012268066,-19.08658218383789,45.51041030883789, -4.734048843383789
522,404548463,0.10788367,-0.16741191,-0.0007693789,0.9799663,-7.685514450073242,0.919550895690918,8.017148971557617,-45.214111328125,44.04396057128906, -5.947251319885254
523,404565130,0.10698897,-0.17299588,-0.008308216,0.97905934,-8.188482284545898,0.024808719754219055,5.715786457061768,-55.26886749267578,33.54543685913086, -2.2346384525299072
524,404581797,0.10573549,-0.17526765,-0.015453078,0.9787045,-8.321887016296387,-0.8404414653778076,4.145356178283691,-50.579627990722656,10.784039497375488, 0.8616896867752075
525,404598464,0.10465519,-0.17256352,-0.021865295,0.9791788,-7.5259222984313965,-1.4137704372406006,2.719644546508789,-41.72787094116211,-23.231597900390625, 0.6484867930412292
526,404615131,0.10328285,-0.16407846,-0.027521364,0.9806394,-6.46929407119751,-2.0691213607788086,2.5750112533569336,-32.66013717651367,-62.90103530883789, 3.346198320388794
527,404631798,0.10159122,-0.15034531,-0.031168446,0.982906,-5.2688446044921875,-2.243779420852661,2.6273117065429688,-15.572319030761719,-97.89725494384766, 7.339426040649414
528,404648465,0.09993873,-0.13253435,-0.03374392,0.98554987,-3.7535665035247803,-1.1073896884918213,3.148545265197754,-5.335613250732422,-125.1431884765625, 7.567416191101074
529,404665132,0.098219484,-0.111385286,-0.038832888,0.988149,-1.9490752220153809,-0.23194164037704468,3.8288509845733643,-20.13739585876465,-149.50167846679688, 4.916258811950684
530,404681799,0.096064106,-0.086190015,-0.0502603,0.99036205,1.513597011566162,-0.624637246131897,3.5965397357940674,-60.91555404663086,-181.1128692626953, 1.6742935180664062
531,404698466,0.09370748,-0.05633658,-0.060749274,0.99214655,2.4562828540802,-3.113724946975708,5.655807971954346,-51.71742630004883,-212.00601196289062, 1.6991050243377686
532,404715133,0.09237215,-0.023230609,-0.06649755,0.99323004,2.9639596939086914,-3.3529560565948486,9.058700561523438,-17.147653579711914,-230.4019317626953, -5.251579761505127
533,404731800,0.09162744,0.010914739,-0.06767851,0.993431,2.713243007659912,-2.678203582763672,12.75947380065918,14.421964645385742,-234.13978576660156, -9.600251197814941
534,404748467,0.08621396,0.050497316,-0.070007496,0.99253017,5.472878932952881,-6.988321304321289,-12.109418869018555,9.849166870117188,-274.24560546875, 19.149478912353516
535,404765134,0.078995176,0.10200515,-0.0409447,0.9907968,21.149314880371094,-7.414048671722412,-2.9798781871795654,231.59228515625,-338.2187805175781, 14.299065589904785
536,404781801,0.07616518,0.13899,-0.04473793,0.9863464,14.062060356140137,12.823556900024414,35.452335357666016,-4.015255928039551,-257.3901672363281, 10.008000373840332
537,404798468,0.069860674,0.17760794,-0.057257745,0.9799472,9.982454299926758,-8.233277320861816,16.168367385864258,-59.82044982910156,-275.9269104003906, 40.48967742919922
538,404815135,0.06371926,0.20932679,-0.045315158,0.97471476,27.622512817382812,-4.54611873626709,15.121131896972656,102.04820251464844,-216.1168670654297, 12.726094245910645
539,404831802,0.056363966,0.23848455,-0.035952304,0.9688425,21.034513473510742,3.320739507675171,16.004974365234375,85.20648956298828,-201.13034057617188, 25.065025329589844
540,404848469,0.052464098,0.25914764,-0.03805091,0.96366096,18.489416122436523,2.3777220249176025,11.037784576416016,0.011686704121530056,-146.8360137939453, 23.23822021484375
541,404865136,0.05273911,0.2750117,-0.040083904,0.95915616,7.748362064361572,2.5466742515563965,9.573107719421387,-8.576887130737305,-112.58113861083984, -3.0070276260375977
542,404881803,0.054589506,0.2911339,-0.047197342,0.9539568,3.4346508979797363,1.8419443368911743,6.263590335845947,-45.191471099853516,-116.99197387695312, -4.079727649688721
543,404898470,0.0560051,0.30795452,-0.05197888,0.94832796,2.686037540435791,2.6385183334350586,7.0932745933532715,-28.926149368286133,-121.71134948730469, -6.256030082702637
544,404915137,0.05712475,0.3234006,-0.053975508,0.942993,1.0322973728179932,1.6033753156661987,5.879549503326416,-10.593793869018555,-111.189453125, -9.586235046386719
545,404931804,0.057626884,0.3355575,-0.053893823,0.93870974,-1.1193182468414307,0.2561973035335541,6.27191162109375,3.3336141109466553,-86.97666931152344, -8.552578926086426
546,404948471,0.057374563,0.3452695,-0.053962022,0.9351927,-1.0221508741378784,-1.016546607017517,7.633507251739502,3.4151594638824463,-69.83272552490234, -2.126697301864624
547,404965138,0.056511946,0.3529745,-0.05367939,0.9323809,-1.5314480066299438,-2.0856833457946777,9.251296997070312,6.591583728790283,-55.41709899902344, 1.974408745765686
548,404981805,0.054717004,0.35910228,-0.05507675,0.93006355,-0.726464569568634,-2.7633371353149414,9.1464204788208,-2.336472749710083,-45.19675064086914, 12.777717590332031
549,404998472,0.052212197,0.36354524,-0.05832112,0.928282,0.2842347025871277,-0.9293954372406006,10.50811767578125,-12.811375617980957,-34.14887619018555, 22.686368942260742
550,405015139,0.049483053,0.36693737,-0.063392036,0.92676324,1.0205423831939697,0.18872013688087463,10.83944320678711,-24.180418014526367,-27.618680953979492, 29.190900802612305
551,405031806,0.047174174,0.3695103,-0.068007745,0.9255334,1.9688541889190674,0.5577069520950317,10.504264831542969,-22.50253677368164,-21.41533660888672, 25.824377059936523
552,405048473,0.045364395,0.3712734,-0.07114714,0.92468184,3.9331626892089844,-0.37259986996650696,10.452770233154297,-14.475363731384277,-14.661709785461426, 19.40854263305664
553,405065140,0.04442964,0.37210876,-0.07304676,0.9242431,5.58294677734375,-1.357128620147705,10.352334976196289,-8.922294616699219,-6.949679374694824, 11.265328407287598
554,405081807,0.04414308,0.37169647,-0.074171945,0.92433316,5.914228916168213,-2.1997270584106445,10.341236114501953,-5.776356220245361,2.8549649715423584, 5.94794225692749
555,405098474,0.044201035,0.3698485,-0.076586604,0.92487466,5.048830986022949,-1.5886013507843018,9.873985290527344,-15.053670883178711,12.881742477416992, 7.9084906578063965
556,405115141,0.04450966,0.3664139,-0.07999546,0.92593765,2.604443311691284,-0.5982121229171753,8.83115005493164,-22.220645904541016,24.089054107666016, 9.828164100646973
557,405131808,0.044893958,0.36118954,-0.08201904,0.9277929,1.1692155599594116,-0.2803056538105011,9.083413124084473,-13.710570335388184,37.89443588256836, 7.081664562225342
558,405148475,0.045118082,0.3542282,-0.082328,0.9304349,0.5021073818206787,-0.3949175179004669,8.775443077087402,-2.476489543914795,51.30458068847656, 5.0676164627075195
559,405165142,0.045872893,0.3444505,-0.080815874,0.9341939,0.6421937942504883,-0.2237781137228012,8.711316108703613,7.632004737854004,72.8436508178711, -0.8239632248878479
560,405181809,0.04744803,0.3321501,-0.078741506,0.9387357,1.2019721269607544,-0.590535044670105,9.062838554382324,8.932856559753418,91.47370910644531, -5.775234222412109
561,405198476,0.048992123,0.31884772,-0.07510792,0.9435544,1.1323020458221436,-1.3739454746246338,10.252704620361328,18.886592864990234,99.01033782958984, -8.504989624023438
562,405215143,0.050433584,0.30486652,-0.0702935,0.94845766,2.086359739303589,-0.2527185082435608,9.080192565917969,26.58942985534668,103.88298034667969, -10.05671215057373
563,405231810,0.052881975,0.2893006,-0.065239914,0.9535474,3.197551727294922,2.163503885269165,9.110946655273438,25.575651168823242,115.13732147216797, -16.28921890258789
564,405248477,0.056825425,0.2703463,-0.0569998,0.95939296,4.833919048309326,2.6967999935150146,8.040477752685547,42.581321716308594,140.6612091064453, -30.604944229125977
565,405265144,0.06111263,0.24906434,-0.04632041,0.9654464,6.540811538696289,1.9475092887878418,9.318882942199707,57.18379211425781,157.49261474609375, -36.37609100341797
566,405281811,0.06498033,0.22607535,-0.037412915,0.97121996,11.930604934692383,2.081939220428467,9.848959922790527,45.314666748046875,167.4819793701172, -30.101009368896484
567,405298478,0.069654256,0.20006664,-0.041229323,0.9764333,19.70198631286621,1.6212743520736694,13.750334739685059,-42.42850875854492,181.37399291992188, -15.154325485229492
568,405315145,0.07613035,0.16776194,-0.055231616,0.9813306,23.26515769958496,-1.9874752759933472,14.022321701049805,-116.43841552734375,219.0048828125, -11.590958595275879
569,405331812,0.08403838,0.12747408,-0.06787578,0.9859417,19.0579891204834,-0.9807218313217163,13.835680961608887,-113.21961212158203,274.017822265625, -19.93989372253418
570,405348479,0.09214599,0.07886671,-0.08521564,0.98895276,11.231745719909668,-0.18489336967468262,16.69194793701172,-150.82571411132812,326.61083984375, -14.203339576721191
571,405365146,0.097552314,0.025550595,-0.10360097,0.9894936,-1.5960984230041504,-1.6837151050567627,17.29003143310547,-160.95095825195312,355.1595764160156, 5.951644420623779
572,405381813,0.10022995,-0.025534833,-0.114933275,0.98797387,7.757944107055664,-5.101846218109131,8.594465255737305,-112.44973754882812,342.3283996582031, 20.296541213989258
573,405398480,0.10112786,-0.06566002,-0.11347686,0.98619723,22.489057540893555,-6.723044395446777,-14.782148361206055,-18.466135025024414,275.33306884765625, 25.787837982177734
574,405415147,0.09881295,-0.09523473,-0.07312092,0.9878358,14.370914459228516,-25.438199996948242,-6.884320259094238,254.0673828125,227.062744140625, 59.30324935913086
575,405431814,0.1007751,-0.11772864,-0.047785874,0.98676294,-3.2688798904418945,16.92654800415039,10.995354652404785,158.54592895507812,172.7961883544922, 14.946504592895508
576,405448481,0.103441626,-0.13496529,-0.04820969,0.9842562,-3.3904740810394287,-2.4369544982910156,1.0316886901855469,-12.73163890838623,120.62149810791016, -13.389715194702148
577,405465148,0.104115784,-0.14433765,-0.040651,0.98319596,-5.349194526672363,-0.3886248767375946,0.6119116544723511,45.53835678100586,71.03587341308594, 5.915818691253662
578,405481815,0.10332253,-0.1481923,-0.041884746,0.9826542,-7.971677780151367,2.6573238372802734,6.217770576477051,-11.255701065063477,26.457260131835938, 5.930234909057617
579,405498482,0.101426005,-0.14812455,-0.05064046,0.98244995,-7.800668239593506,-0.9005741477012634,6.875367641448975,-60.3574333190918,-6.11958122253418, 4.829004287719727
580,405515149,0.099748634,-0.14573064,-0.053915385,0.98280525,-7.192270278930664,-3.566575288772583,7.736759662628174,-21.29375648498535,-18.5687255859375, 8.506560325622559
581,405531816,0.098913655,-0.14190204,-0.0516954,0.9835689,-7.996811866760254,-1.592352271080017,9.990118026733398,17.847213745117188,-24.645082473754883, 8.058019638061523
582,405548483,0.09833442,-0.13721377,-0.050257687,0.9843663,-7.836116790771484,0.15705187618732452,10.33167552947998,13.406413078308105,-30.98927879333496, 5.272991180419922
583,405565150,0.09796426,-0.13256432,-0.048212346,0.9851423,-7.7920451164245605,0.29556745290756226,10.820097923278809,17.664302825927734,-30.278297424316406, 4.422966957092285
584,405581817,0.09830437,-0.12941656,-0.04268546,0.9857818,-7.848845481872559,0.26493775844573975,12.023597717285156,40.81644058227539,-17.45627784729004, 3.1848654747009277
585,405598484,0.09953733,-0.12882136,-0.035037745,0.9860375,-7.333661079406738,0.5495741367340088,11.936822891235352,54.126983642578125,1.8295658826828003, -0.4940612018108368
586,405615151,0.10107913,-0.13087232,-0.030517599,0.9857607,-7.107107162475586,0.16888955235481262,11.314685821533203,31.236555099487305,18.128463745117188, -5.087985992431641
587,405631818,0.10211922,-0.13433734,-0.02986661,0.98520726,-7.2965240478515625,-0.456577330827713,10.070109367370605,3.5069053173065186,25.12226676940918, -5.066741466522217
588,405648485,0.102321744,-0.13773298,-0.03297691,0.984618,-7.3304009437561035,-0.6457037925720215,8.484580993652344,-22.70754051208496,21.824420928955078, -2.910637140274048
589,405665152,0.10181748,-0.13945447,-0.03694432,0.98428696,-7.064646244049072,-2.2696452140808105,6.889499664306641,-27.943370819091797,9.43161678314209, 0.8584313988685608
590,405681819,0.100952126,-0.13812849,-0.03816907,0.9845165,-6.29045295715332,-3.064912796020508,6.330315589904785,-7.433629512786865,-9.952423095703125, 5.541202068328857
591,405698486,0.099693075,-0.1337177,-0.037788726,0.985268,-5.927008628845215,-2.4340083599090576,6.507123947143555,5.364400386810303,-30.362709045410156, 9.274872779846191
592,405715153,0.098000675,-0.1268292,-0.038162094,0.9863336,-5.211960792541504,-1.728906512260437,6.810085296630859,1.6607352495193481,-48.10540008544922, 11.08117961883545
593,405731820,0.095829785,-0.11737791,-0.039395954,0.9876676,-4.258004665374756,-1.3112683296203613,6.743317127227783,-2.7838380336761475,-66.45801544189453, 13.077433586120605
594,405748487,0.093145974,-0.10482343,-0.04260582,0.9892021,-2.9979007244110107,-1.7808146476745605,7.009227275848389,-14.512224197387695,-89.15904235839844, 14.250627517700195
595,405765154,0.08942523,-0.08722903,-0.048586186,0.99097615,-1.2092981338500977,-2.9217734336853027,5.932692050933838,-30.796281814575195,-125.70392608642578, 17.974721908569336
596,405781821,0.08553398,-0.06548862,-0.05551825,0.99262935,-1.3165082931518555,-2.92512583732605,9.067442893981934,-34.85344314575195,-154.5250244140625, 17.093656539916992
597,405798488,0.082343414,-0.03979343,-0.062881775,0.993822,0.033990830183029175,-1.8793545961380005,9.64159870147705,-35.31816864013672,-181.29812622070312, 10.322426795959473
598,405815155,0.07962271,-0.01116449,-0.06855477,0.9944023,3.7792251110076904,-2.087712287902832,12.327665328979492,-22.240249633789062,-200.00965881347656, 5.948630332946777
599,405831822,0.069580086,0.030562583,-0.0671884,0.9948419,1.054689645767212,-16.05214500427246,-29.92276954650879,32.436309814453125,-289.1608581542969, 50.310646057128906
600,405848489,0.06327196,0.080780596,-0.0500624,0.99346113,38.68592071533203,1.3945775032043457,15.560197830200195,142.91981506347656,-338.40313720703125, 16.532405853271484
601,405865156,0.05839089,0.12156794,-0.056460485,0.9892543,21.443023681640625,2.225682258605957,41.31850814819336,-23.753835678100586,-284.8465881347656, 21.923477172851562
602,405881823,0.051790185,0.15941659,-0.04577992,0.98478854,19.079011917114258,-3.620849132537842,12.871143341064453,92.525390625,-258.7503967285156, 20.429563522338867
603,405898490,0.046896756,0.18916863,-0.040773597,0.9799764,15.638084411621094,5.0015950202941895,8.219491004943848,49.2415771484375,-205.6094207763672, 17.49658966064453
604,405915157,0.04370476,0.2158283,-0.044058934,0.9744573,11.518030166625977,2.783175468444824,12.882387161254883,-10.092721939086914,-187.7640380859375, 17.51129150390625
605,405931824,0.04298151,0.23666294,-0.04020718,0.96980757,2.754995107650757,2.8857367038726807,5.272887706756592,32.54664993286133,-144.4923553466797, -7.559444427490234
606,405948491,0.044435587,0.25456172,-0.04160887,0.9651388,-2.0223805904388428,0.775521993637085,3.878844738006592,-6.928576946258545,-125.89761352539062, -12.697766304016113
607,405965158,0.045843445,0.2691982,-0.04441167,0.9609675,0.5408798456192017,2.3767292499542236,7.098933219909668,-17.010534286499023,-103.85963439941406, -8.849305152893066
608,405981825,0.046585675,0.28221834,-0.047466468,0.9570421,5.315052032470703,1.1090055704116821,8.426958084106445,-17.89895248413086,-93.04378509521484, -3.3885655403137207
609,405998492,0.047422674,0.29366568,-0.0492318,0.953461,6.308316707611084,0.7746008634567261,8.069026947021484,-10.000998497009277,-81.58651733398438, -5.871659278869629
610,406015159,0.048232812,0.30413002,-0.04923479,0.950134,6.075199127197266,0.10220305621623993,10.07104778289795,1.362897515296936,-74.05934143066406, -8.822134017944336
611,406031826,0.04840349,0.3124139,-0.049802717,0.94740397,3.295464038848877,-1.8616114854812622,9.378140449523926,-1.5169179439544678,-58.98265838623047, -2.5195651054382324
612,406048493,0.048278566,0.31851166,-0.052695148,0.945221,0.2907719910144806,-1.924888253211975,9.938552856445312,-16.557628631591797,-44.475608825683594, 5.313313961029053
613,406065160,0.047547486,0.3226146,-0.05657796,0.94364095,-3.1437366008758545,-2.0349225997924805,9.775296211242676,-22.105215072631836,-30.80213165283203, 12.323600769042969
614,406081827,0.045966838,0.32581025,-0.059263073,0.9424557,-3.10632061958313,-0.7297461628913879,9.743463516235352,-12.589324951171875,-24.068105697631836, 15.633488655090332
615,406098494,0.044103123,0.32823643,-0.061077137,0.9415868,-1.5489771366119385,0.9376649856567383,9.931679725646973,-6.429851531982422,-18.302196502685547, 15.915785789489746
616,406115161,0.042451132,0.3298144,-0.062255476,0.9410339,-0.5299133062362671,0.6993266940116882,9.913141250610352,-2.930096387863159,-11.89382266998291, 13.569015502929688
617,406131828,0.041367378,0.33028528,-0.06409082,0.94079375,1.3375345468521118,-0.5583695769309998,10.085609436035156,-8.671159744262695,-4.038946628570557, 11.952667236328125
618,406148495,0.040795162,0.3300036,-0.06662397,0.94074166,3.207348346710205,-1.3388080596923828,10.809925079345703,-14.483382225036621,1.2283670902252197, 10.608235359191895
619,406165162,0.04029059,0.32867146,-0.06874708,0.9410769,4.151464462280273,-1.6342720985412598,9.41262149810791,-12.104331970214844,9.004288673400879, 9.819605827331543
620,406181829,0.03998666,0.32579017,-0.06994645,0.94200295,3.5355443954467773,-0.7248513698577881,9.762531280517578,-6.730210304260254,20.687231063842773, 7.318273067474365
621,406198496,0.03989793,0.32245815,-0.07129266,0.94305164,2.2015860080718994,0.06964533776044846,9.627589225769043,-8.232837677001953,23.910709381103516, 6.501741409301758
622,406215163,0.039486095,0.32032582,-0.07364671,0.94361466,1.54682195186615,-0.21870717406272888,10.04322338104248,-13.969408988952637,14.578627586364746, 10.113762855529785
623,406231830,0.038830504,0.31768584,-0.07639635,0.94431543,1.9984012842178345,-0.9151231646537781,10.485626220703125,-16.076414108276367,17.895965576171875, 12.859880447387695
624,406248497,0.03774926,0.31305674,-0.07635954,0.94590694,1.6488755941390991,-2.14455509185791,10.584057807922363,2.8750569820404053,33.22911834716797, 10.812479019165039
625,406265164,0.03646762,0.3056282,-0.07408338,0.9485637,1.0441765785217285,-1.808495283126831,10.417263984680176,17.703392028808594,54.15632629394531, 9.022967338562012
626,406281831,0.035583634,0.2960009,-0.071914904,0.9518117,1.1876049041748047,0.33739975094795227,9.341581344604492,15.914632797241211,69.86353302001953, 7.906752586364746
627,406298498,0.03510319,0.2848121,-0.06892026,0.9554579,0.9374050498008728,1.8220443725585938,9.519697189331055,20.30484962463379,81.25204467773438, 4.4619646072387695
628,406315165,0.035389606,0.27128267,-0.06309651,0.9597772,2.3490238189697266,3.7981107234954834,7.880040645599365,37.12358093261719,98.94926452636719, -4.821678638458252
629,406331832,0.037058745,0.2544427,-0.05543791,0.9647862,3.8290212154388428,4.2018656730651855,7.7064924240112305,46.11897277832031,123.10971069335938, -15.717484474182129
630,406348499,0.040138472,0.23238662,-0.046283603,0.9706922,8.092589378356934,3.4219582080841064,7.1999664306640625,52.556190490722656,160.20094299316406, -25.42371940612793
631,406365166,0.04599576,0.20322323,-0.041582927,0.97716725,14.283417701721191,3.1638033390045166,10.183035850524902,16.58427619934082,208.25332641601562, -34.38309097290039
632,406381833,0.053923488,0.16569369,-0.048582055,0.9835028,19.73018455505371,-0.04156036674976349,13.053359031677246,-67.6520004272461,261.2768859863281, -29.56036949157715
633,406398500,0.06144285,0.12186576,-0.06127194,0.98874646,19.5189208984375,-3.3467092514038086,15.032851219177246,-108.40619659423828,300.5481262207031, -18.602624893188477
634,406415167,0.069016024,0.070439205,-0.07481019,0.9923098,16.15290641784668,1.4348193407058716,16.291683197021484,-118.15161895751953,350.6583251953125, -15.774396896362305
635,406431834,0.076571174,0.014105867,-0.092703804,0.99264497,3.6285572052001953,0.10725328326225281,19.088973999023438,-151.9331512451172,380.66424560546875, -12.518043518066406
636,406448501,0.080551855,-0.042579968,-0.10791051,0.9899767,3.933607816696167,-6.018704414367676,15.520551681518555,-135.39010620117188,381.91595458984375, 10.270461082458496
637,406465168,0.082609355,-0.08630659,-0.107334875,0.9870189,25.6259708404541,-8.378633499145508,-14.918521881103516,-21.481950759887695,301.0238952636719, 18.17676544189453
638,406481835,0.08499576,-0.11666671,-0.059674677,0.9877266,21.825117111206055,-27.798297882080078,-15.043120384216309,308.8192138671875,235.4051513671875, 36.10187530517578
639,406498502,0.094596535,-0.13921992,-0.03213403,0.98520905,-4.346944332122803,22.168903350830078,11.930219650268555,181.4395751953125,176.30364990234375, -34.24330139160156
640,406515169,0.09792726,-0.15172711,-0.043309946,0.98260546,-1.5018112659454346,-4.116848468780518,-5.8665289878845215,-80.638916015625,81.70552062988281, -31.038312911987305
641,406531836,0.09835182,-0.15437134,-0.04178154,0.9822173,-7.265514850616455,-1.2105457782745361,0.4647563397884369,9.517601013183594,20.41407012939453, 0.3899860978126526
642,406548503,0.095256336,-0.14987643,-0.054893922,0.98257315,-9.584709167480469,-1.481130838394165,8.448404312133789,-88.0333023071289,-39.570030212402344, 7.065860748291016
643,406565170,0.09267516,-0.14224948,-0.06265395,0.9834892,-7.2205071449279785,-7.551986217498779,7.219022750854492,-49.07168960571289,-57.67621612548828, 8.286855697631836
644,406581837,0.092476405,-0.13409685,-0.051917125,0.9852772,-7.051617622375488,-5.224102973937988,10.290580749511719,79.12686920166016,-49.31730651855469, 10.565942764282227
645,406598504,0.093088225,-0.12759721,-0.042034242,0.986553,-8.230966567993164,0.9337749481201172,13.652961730957031,72.90202331542969,-37.939693450927734, 4.524533748626709
646,406615171,0.093324095,-0.123318635,-0.036623366,0.98729026,-8.104653358459473,0.8587067723274231,13.11520767211914,40.6302375793457,-25.419876098632812, 3.4460697174072266
647,406631838,0.0936364,-0.121515624,-0.029838914,0.98771244,-8.397228240966797,1.1286406517028809,13.3945894241333,48.32569885253906,-7.4967217445373535, 4.511542320251465
648,406648505,0.093697466,-0.12230317,-0.02615447,0.9877139,-8.364750862121582,1.516342282295227,13.335143089294434,25.28316307067871,8.348884582519531, 3.8890998363494873
649,406665172,0.09386817,-0.12515794,-0.027824722,0.9872944,-7.569289207458496,0.798089861869812,11.77742862701416,-12.424908638000488,19.260753631591797, -1.2540640830993652
650,406681839,0.09412307,-0.12924008,-0.032063663,0.98661536,-7.681736469268799,0.20249667763710022,10.768012046813965,-30.64957618713379,26.128684997558594, -3.968864679336548
651,406698506,0.09389458,-0.13344736,-0.037043553,0.98590237,-7.997008800506592,-0.5686661005020142,9.415989875793457,-36.20548629760742,26.374116897583008, -1.3443561792373657
652,406715173,0.09342935,-0.1366943,-0.041250627,0.9853345,-7.652836799621582,-1.3248978853225708,8.390365600585938,-30.528852462768555,20.117938995361328, 0.8109338879585266
653,406731840,0.09307692,-0.13811292,-0.043950222,0.98505336,-7.247078895568848,-1.3749948740005493,7.59318733215332,-18.946870803833008,8.413086891174316, 1.1188093423843384
654,406748507,0.09286696,-0.1372214,-0.045626257,0.9851214,-6.777506351470947,-1.0308924913406372,7.230175971984863,-10.286949157714844,-6.912972927093506, 0.6407340168952942
655,406765174,0.09242755,-0.13385536,-0.046669554,0.985577,-6.33030366897583,-0.9786434769630432,6.856154441833496,-4.512569904327393,-23.74965476989746, 2.255093812942505
656,406781841,0.09166075,-0.12751675,-0.047628388,0.9864428,-5.851195335388184,-0.9865115284919739,6.318830966949463,-2.2176146507263184,-44.361549377441406, 3.8505191802978516
657,406798508,0.09052983,-0.11734951,-0.04920712,0.9877308,-4.920323848724365,-1.7013075351715088,6.006849765777588,-4.186471462249756,-71.24610137939453, 4.780588150024414
658,406815175,0.088911474,-0.10252925,-0.05064761,0.98945314,-3.7728540897369385,-2.352693796157837,6.245364189147949,-0.5864761471748352,-103.30620574951172, 6.889275550842285
659,406831842,0.08661589,-0.0832166,-0.053697664,0.9913069,-1.6458297967910767,-2.2297630310058594,6.329374313354492,-9.204816818237305,-135.20370483398438, 8.864556312561035
660,406848509,0.08448163,-0.060574755,-0.05861399,0.99285346,1.0427201986312866,-1.6758190393447876,6.1100592613220215,-19.95090675354004,-158.7770538330078, 5.275866508483887
661,406865176,0.08291664,-0.0356249,-0.0655761,0.9937584,2.290609359741211,-1.7329506874084473,7.635801315307617,-32.592926025390625,-175.20724487304688, -0.7717457413673401
662,406881843,0.08123608,-0.009097054,-0.0730514,0.9939727,1.3324685096740723,-2.785045623779297,12.458160400390625,-35.537574768066406,-186.13650512695312, -1.2158478498458862
663,406898510,0.07942972,0.017907621,-0.076661855,0.9937271,1.5538661479949951,-2.5290346145629883,15.090795516967773,-9.089280128479004,-187.2502899169922, -0.6174449324607849
664,406915177,0.07046068,0.057444405,-0.07596916,0.99295735,1.4080240726470947,-14.106832504272461,-31.7403507232666,27.76384162902832,-274.4008483886719, 40.90902328491211
665,406931844,0.065059945,0.10886918,-0.05450832,0.99042606,39.98257827758789,4.714313507080078,11.416457176208496,173.22264099121094,-344.386474609375, 1.117984414100647
666,406948511,0.061054938,0.14870623,-0.06689123,0.98472553,13.10024642944336,-0.3347148001194,33.404788970947266,-64.83490753173828,-282.0212097167969, 20.009960174560547
667,406965178,0.053498205,0.18784124,-0.06465912,0.97860765,22.53807830810547,-6.6495184898376465,14.99361801147461,37.255245208740234,-273.1505126953125, 29.299793243408203
668,406981845,0.045736622,0.21926278,-0.052212056,0.9731938,20.23666763305664,1.5132453441619873,16.322301864624023,103.76974487304688,-216.49578857421875, 21.145099639892578
669,406998512,0.03981252,0.24834962,-0.054618258,0.9663096,19.26400375366211,0.25802507996559143,10.73710823059082,0.313631147146225,-206.9816131591797, 31.672109603881836
670,407015179,0.03919327,0.26805213,-0.05014475,0.96129996,15.862083435058594,6.975924968719482,8.868249893188477,35.09832000732422,-137.4247283935547, -11.247182846069336
671,407031846,0.044033896,0.2838588,-0.05460047,0.95629704,6.010922908782959,1.1383334398269653,10.350714683532715,-35.07120895385742,-112.10163879394531, -29.41971778869629
672,407048513,0.04921441,0.30287758,-0.053712327,0.95024115,3.145277500152588,-0.23636458814144135,6.268830299377441,-0.0333116315305233,-133.5441436767578, -43.583717346191406
673,407065180,0.05313111,0.31806067,-0.053455222,0.94507,-0.24860940873622894,-0.3324510455131531,6.295488357543945,-2.500627040863037,-107.33113098144531, -32.296287536621094
674,407081847,0.056330252,0.3302078,-0.054529674,0.9406469,-3.5083882808685303,-0.16821669042110443,5.349753379821777,-10.422172546386719,-86.7582015991211, -23.338350296020508
675,407098514,0.058742393,0.33966815,-0.054656915,0.9371167,-4.491058349609375,-0.2550596296787262,4.71262788772583,-3.221646308898926,-67.3434829711914, -19.057022094726562
676,407115181,0.059875313,0.3473077,-0.053891886,0.93428475,-3.6737780570983887,0.02454395964741707,6.851742744445801,5.036607265472412,-54.16607666015625, -11.946136474609375
677,407131848,0.059436526,0.35376495,-0.05263036,0.93195915,-2.7445578575134277,-0.5058447122573853,9.068556785583496,11.67334270477295,-45.811851501464844, -2.3992116451263428
678,407148515,0.057379477,0.35960314,-0.0529801,0.9298314,-2.097269296646118,-1.5188137292861938,10.132182121276855,5.098799705505371,-42.68681716918945, 12.177660942077637
679,407165182,0.053466268,0.36466676,-0.054788113,0.92798597,-1.5386537313461304,-0.747728705406189,9.888250350952148,0.15985651314258575,-38.369869232177734, 28.014270782470703
680,407181849,0.04884418,0.36798552,-0.057603028,0.9267594,0.7437812685966492,1.339111566543579,10.770222663879395,-4.900730133056641,-26.398147583007812, 35.92863082885742
681,407198516,0.04506661,0.37053487,-0.062732205,0.92560124,4.090301513671875,0.43208983540534973,11.32457160949707,-22.02604103088379,-21.831459045410156, 36.74402618408203
682,407215183,0.04260317,0.3727456,-0.066213764,0.9245873,6.234620094299316,-0.8616358041763306,11.995972633361816,-14.939680099487305,-18.278898239135742, 24.381704330444336
683,407231850,0.041339,0.3741013,-0.06866618,0.9239179,6.656607627868652,-1.2109013795852661,11.07166862487793,-11.56985092163086,-11.149200439453125, 14.606877326965332
684,407248517,0.040838342,0.3742154,-0.07086205,0.92372805,5.1283087730407715,-1.0737712383270264,10.47225284576416,-12.034367561340332,-1.6229884624481201, 9.812481880187988
685,407265184,0.04050509,0.37290144,-0.074117765,0.9240187,2.82706880569458,-0.5649997591972351,9.772196769714355,-19.368118286132812,8.432197570800781, 12.299134254455566
686,407281851,0.040248703,0.37015298,-0.076394126,0.9249491,2.070214033126831,-0.44142258167266846,9.200311660766602,-13.42440128326416,19.453466415405273, 10.203469276428223
687,407298518,0.039817393,0.3658443,-0.07704308,0.92662674,1.069281816482544,-0.32544997334480286,8.619254112243652,-2.6771903038024902,31.590421676635742, 8.195486068725586
688,407315185,0.03962545,0.35979006,-0.07632493,0.92906165,1.0946857929229736,-0.4785930812358856,9.413030624389648,5.344519138336182,45.07069778442383, 4.3578596115112305
689,407331852,0.039566506,0.35213912,-0.07466769,0.9321253,2.19647216796875,-1.3929797410964966,8.848328590393066,10.900811195373535,57.09983444213867, 2.1871776580810547
