PacketCounter,SampleTimeFine,Quat_W,Quat_X,Quat_Y,Quat_Z,Acc_X,Acc_Y,Acc_Z,Gyr_X,Gyr_Y,Gyr_Z 
1,365065684,0.35494548,-0.20384166,-0.028600352,0.91194534,0.2024535834789276,0.04955599457025528,0.014844929799437523,0.23226261138916016,0.023109184578061104, -0.031044431030750275
2,365082351,0.3548707,-0.20421115,-0.02783963,0.91191536,-3.5346384048461914,-1.9033703804016113,9.121625900268555,-1.8275940418243408,0.08445146679878235, -0.42412069439888
3,365099018,0.35469544,-0.20441608,-0.027377546,0.9119517,-3.4732203483581543,-1.9526318311691284,8.996663093566895,-2.021738290786743,-0.14847680926322937, -0.37813305854797363
4,365115685,0.35482854,-0.20459211,-0.027377203,0.9118604,-3.4236538410186768,-1.9921364784240723,8.968096733093262,-1.4316730499267578,-0.056091807782649994, -0.24506230652332306
5,365132352,0.35483953,-0.2047054,-0.02775218,0.9118194,-3.3820273876190186,-1.9881397485733032,8.931209564208984,-1.1481789350509644,0.3125838041305542, -0.1091485247015953
6,365149019,0.35495797,-0.20475535,-0.028217174,0.91174775,-3.3936963081359863,-1.9795937538146973,8.953978538513184,-1.1617408990859985,0.4991339147090912, 0.09896106272935867
7,365165686,0.3548887,-0.20477138,-0.028684914,0.91175646,-3.434735059738159,-1.9654070138931274,8.966169357299805,-1.0711103677749634,0.5805182456970215, 0.16966493427753448
8,365182353,0.35478267,-0.20481886,-0.0290656,0.91177505,-3.4551761150360107,-1.975423812866211,9.03981876373291,-1.0140964984893799,0.6412715911865234, 0.14133727550506592
9,365199020,0.3546472,-0.2048627,-0.029350638,0.91180885,-3.4751391410827637,-2.000582695007324,9.036953926086426,-0.7544988989830017,0.6690868735313416, 0.1851862072944641
10,365215687,0.35460046,-0.2049213,-0.029586388,0.9118061,-3.4760262966156006,-2.010552406311035,8.992084503173828,-0.7180905342102051,0.5590035915374756, 0.14042803645133972
11,365232354,0.35454568,-0.20498884,-0.029843502,0.9118039,-3.494182586669922,-1.921239972114563,9.045209884643555,-0.8498677611351013,0.3443050980567932, -0.04539850726723671
12,365249021,0.35452846,-0.20504004,-0.030073278,0.91179156,-3.4571475982666016,-1.9859542846679688,9.027636528015137,-1.1759814023971558,0.10189371556043625, -0.1075093001127243
13,365265688,0.3544583,-0.20507169,-0.030299049,0.91180426,-3.465474843978882,-1.967199683189392,9.0424165725708,-1.0714305639266968,0.03888648375868797, -0.17522931098937988
14,365282355,0.3544822,-0.20510341,-0.03048506,0.9117816,-3.4316389560699463,-1.9758225679397583,9.03460693359375,-1.0929194688796997,0.034570734947919846, -0.13734808564186096
15,365299022,0.35445535,-0.20512253,-0.030656466,0.911782,-3.4313743114471436,-1.9674803018569946,8.980148315429688,-0.9518063068389893,0.0920584425330162, -0.15418843924999237
16,365315689,0.3544202,-0.2051407,-0.030802052,0.9117867,-3.403815984725952,-1.9605568647384644,9.009684562683105,-0.8442969918251038,0.13034942746162415, -0.0816020593047142
17,365332356,0.35429573,-0.2051851,-0.0308935,0.91182196,-3.4163830280303955,-1.981837511062622,8.997809410095215,-0.541042685508728,0.54348224401474, 0.07418077439069748
18,365349023,0.3542305,-0.20529717,-0.030980935,0.91181916,-3.4602277278900146,-1.9162875413894653,8.988463401794434,-0.7498757839202881,0.9707789421081543, -0.014496786519885063
19,365365690,0.35419306,-0.20548853,-0.031101873,0.91178644,-3.4706056118011475,-1.9123265743255615,8.969792366027832,-1.3305028676986694,1.3058698177337646, -0.05967758595943451
20,365382357,0.35397694,-0.20569879,-0.031244498,0.911818,-3.4637291431427,-1.9754607677459717,8.95297908782959,-1.4615631103515625,1.3805692195892334, 0.200489804148674
21,365399024,0.3538645,-0.20586072,-0.03128522,0.91182375,-3.4889416694641113,-1.9713873863220215,8.983392715454102,-0.8604714274406433,1.1540378332138062, 0.43143948912620544
22,365415691,0.35371453,-0.20598228,-0.031253368,0.9118556,-3.5151617527008057,-2.031081199645996,8.99672794342041,-0.3486400842666626,0.9860184788703918, 0.7994171977043152
23,365432358,0.35354337,-0.20605582,-0.031156985,0.9119087,-3.5402629375457764,-1.9095898866653442,9.045390129089355,0.3897036015987396,0.8573786616325378, 0.5904046893119812
24,365449025,0.35345742,-0.20613685,-0.031078363,0.9119263,-3.516197443008423,-1.902967929840088,9.065569877624512,0.08446427434682846,0.7572458386421204, 0.4720996916294098
25,365465692,0.35331434,-0.20621678,-0.031083424,0.9119635,-3.5236942768096924,-1.9428858757019043,8.99007797241211,-0.44863200187683105,0.5705420970916748, 0.40298378467559814
26,365482359,0.35321218,-0.20629749,-0.031126114,0.9119834,-3.4984242916107178,-1.9932911396026611,8.993603706359863,-0.6934894323348999,0.4509947896003723, 0.1830219328403473
27,365499026,0.3531719,-0.20638117,-0.031193348,0.91197777,-3.4965124130249023,-1.9897547960281372,9.016655921936035,-0.8242934942245483,0.40595486760139465, -0.08313880860805511
28,365515693,0.35313922,-0.2064494,-0.031261712,0.9119727,-3.487971782684326,-1.9331475496292114,9.034069061279297,-0.737287163734436,0.3248010575771332, -0.1983959674835205
29,365532360,0.35306278,-0.2065319,-0.031396497,0.911979,-3.4970591068267822,-1.9536151885986328,9.021181106567383,-1.1657236814498901,0.2961660325527191, -0.25689536333084106
30,365549027,0.35294986,-0.20658426,-0.03149285,0.9120076,-3.4899230003356934,-1.948477864265442,9.041130065917969,-0.7964524030685425,0.22350281476974487, -0.20159754157066345
31,365565694,0.35285535,-0.20661195,-0.03159384,0.9120343,-3.4226982593536377,-1.925086498260498,9.026636123657227,-0.7710703015327454,0.06086217612028122, -0.27841004729270935
32,365582361,0.35283867,-0.20662847,-0.031677954,0.91203415,-3.411372661590576,-1.9414156675338745,9.066547393798828,-0.779612123966217,-0.007696615997701883, -0.21779757738113403
33,365599028,0.35279587,-0.20664795,-0.03178561,0.9120425,-3.444002866744995,-1.9511358737945557,9.079360961914062,-0.9361697435379028,0.0030030887573957443, -0.17496034502983093
34,365615695,0.35274786,-0.20668012,-0.031932168,0.9120487,-3.502009630203247,-1.9815040826797485,9.059274673461914,-1.2246968746185303,0.015309992246329784, -0.2002401053905487
35,365632362,0.35272133,-0.20667554,-0.032047488,0.91205597,-3.5244646072387695,-1.919026494026184,9.03928279876709,-0.8462435603141785,-0.11068528145551682, -0.4348011910915375
36,365649029,0.35263827,-0.20671824,-0.032274235,0.91207033,-3.472013473510742,-1.9446545839309692,8.965968132019043,-1.6785794496536255,-0.0801677480340004, -0.4136834740638733
37,365665696,0.35252535,-0.20674926,-0.032484405,0.9120995,-3.461338758468628,-2.0238466262817383,8.918082237243652,-1.5675997734069824,-0.13715600967407227, -0.2140965461730957
38,365682363,0.35245132,-0.20677109,-0.03263452,0.91211784,-3.5390427112579346,-1.9800506830215454,8.984090805053711,-1.1483709812164307,-0.0699738934636116, -0.23125705122947693
39,365699030,0.35245517,-0.20684971,-0.032840945,0.9120911,-3.575681209564209,-1.85553777217865,9.020707130432129,-1.588909387588501,0.17514604330062866, -0.7504392266273499
40,365715697,0.35240424,-0.20694733,-0.033174388,0.9120766,-3.617213487625122,-1.7954262495040894,9.03747272491455,-2.4589600563049316,-0.023294750601053238, -0.7850163578987122
41,365732364,0.35234547,-0.20705006,-0.033515327,0.9120635,-3.5298166275024414,-1.8944737911224365,9.034022331237793,-2.646239995956421,-0.08653250336647034, -0.591896653175354
42,365749031,0.35227942,-0.20711233,-0.033741266,0.9120666,-3.491180181503296,-2.02419376373291,8.997925758361816,-1.9096314907073975,-0.1268853098154068, -0.2118426263332367
43,365765698,0.35223475,-0.20716277,-0.033847902,0.9120684,-3.533637523651123,-2.006927967071533,9.011064529418945,-1.0619152784347534,0.10804076492786407, -0.23167967796325684
44,365782365,0.35221657,-0.20725359,-0.03401955,0.91204834,-3.505279779434204,-1.9958698749542236,8.976472854614258,-1.5668697357177734,0.20703384280204773, -0.41915181279182434
45,365799032,0.3521692,-0.20731992,-0.034270763,0.9120422,-3.4677047729492188,-1.9886834621429443,8.939739227294922,-1.9693219661712646,-0.1306503713130951, -0.49218642711639404
46,365815699,0.35201883,-0.20735334,-0.034594618,0.91208047,-3.5092110633850098,-1.993706464767456,8.98668384552002,-2.18430233001709,-0.42714300751686096, -0.5941762924194336
47,365832366,0.35196078,-0.2074047,-0.034886885,0.91208,-3.5597734451293945,-1.9551538228988647,9.0466947555542,-2.0660102367401123,-0.26048117876052856, -0.7966062426567078
48,365849033,0.35186118,-0.20753832,-0.03526338,0.9120736,-3.4620845317840576,-1.8855494260787964,9.024310111999512,-2.7535829544067383,0.10569722205400467, -0.9345049858093262
49,365865700,0.351816,-0.20762886,-0.035538014,0.9120597,-3.473221778869629,-1.925325632095337,9.005905151367188,-2.1154041290283203,0.020586209371685982, -0.753141462802887
50,365882367,0.35165864,-0.20773044,-0.03584772,0.9120852,-3.460397481918335,-1.9403702020645142,8.99563217163086,-2.2654945850372314,0.081659696996212, -0.6736908555030823
51,365899034,0.35151413,-0.20779686,-0.036060568,0.9121174,-3.3998355865478516,-2.0892770290374756,8.971222877502441,-1.6931147575378418,0.016680270433425903, -0.2698169946670532
52,365915701,0.35139358,-0.20785657,-0.036233608,0.9121433,-3.4476287364959717,-2.046947956085205,9.025650024414062,-1.4363858699798584,0.06516511738300323, -0.21289274096488953
53,365932368,0.3512106,-0.20793578,-0.036430016,0.91218793,-3.452075481414795,-2.0046770572662354,9.00996208190918,-1.5177189111709595,0.21076050400733948, -0.2867469787597656
54,365949035,0.35110262,-0.20805898,-0.03666224,0.91219217,-3.4297454357147217,-1.9882601499557495,8.982893943786621,-2.0230190753936768,0.32088229060173035, -0.1938881278038025
55,365965702,0.35093355,-0.20814483,-0.036850244,0.91223,-3.4078140258789062,-2.02862811088562,8.955622673034668,-1.5619263648986816,0.2432245910167694, -0.12397825717926025
56,365982369,0.35085616,-0.2081967,-0.036937725,0.9122443,-3.470327138900757,-2.022275686264038,8.983349800109863,-0.9547517895698547,0.19685280323028564, -0.011769035831093788
57,365999036,0.35077432,-0.20823252,-0.037015248,0.91226447,-3.585183620452881,-1.971205472946167,9.043859481811523,-0.7667673230171204,0.16643770039081573, -0.1904176026582718
58,366015703,0.35071793,-0.20827892,-0.037081342,0.9122729,-3.4586219787597656,-1.953897476196289,9.15746784210205,-0.6783139109611511,0.2807728052139282, -0.407869428396225
59,366032370,0.35059723,-0.20840374,-0.037357617,0.9122796,-3.4369070529937744,-1.9661113023757935,8.927663803100586,-2.2716798782348633,0.27805787324905396, -0.34716734290122986
60,366049037,0.35050043,-0.20833819,-0.037451264,0.912328,-3.494515895843506,-2.0450470447540283,8.818161964416504,-0.5950598120689392,-0.5077717900276184, -0.2639516592025757
61,366065704,0.35045007,-0.20828393,-0.037539992,0.912356,-3.4636199474334717,-2.013812780380249,8.976601600646973,-0.6282154321670532,-0.4600296914577484, -0.3177255094051361
62,366082371,0.35036445,-0.20830126,-0.037551057,0.91238445,-3.348478078842163,-2.0190980434417725,9.223238945007324,-0.326497882604599,0.19076979160308838, -0.0627254992723465
63,366099038,0.35027146,-0.20839286,-0.03771072,0.9123927,-3.5363059043884277,-1.9686574935913086,9.003806114196777,-1.5018646717071533,0.329046368598938, -0.14650465548038483
64,366115705,0.35020486,-0.2084365,-0.037846584,0.9124025,-3.5513672828674316,-1.933451771736145,9.005374908447266,-1.1837676763534546,0.09558019042015076, -0.3471672832965851
65,366132372,0.35011807,-0.20847546,-0.03800397,0.9124205,-3.3152647018432617,-1.9896433353424072,9.10713005065918,-1.2571353912353516,0.04229297116398811, -0.4665481448173523
66,366149039,0.35001543,-0.20852584,-0.038218,0.91243947,-3.3570244312286377,-2.0440149307250977,8.916101455688477,-1.7553536891937256,-0.0550801120698452, -0.218092143535614
67,366165706,0.34991056,-0.2085333,-0.038341273,0.9124727,-3.460397958755493,-2.070882797241211,8.903670310974121,-1.0912290811538696,-0.1255662590265274, -0.012166032567620277
68,366182373,0.349813,-0.20852433,-0.03836914,0.91251105,-3.4655094146728516,-2.027991771697998,9.02530574798584,-0.37569987773895264,0.02819317765533924, -0.06189308688044548
69,366199040,0.34974188,-0.20856337,-0.03844969,0.9125261,-3.4478766918182373,-1.930367350578308,9.047197341918945,-0.7816099524497986,0.25069066882133484, -0.37110239267349243
70,366215707,0.3496703,-0.20860052,-0.03861102,0.9125382,-3.464390993118286,-1.9389102458953857,9.059965133666992,-1.3354077339172363,0.030370259657502174, -0.39980146288871765
71,366232374,0.3495909,-0.20862742,-0.03877586,0.91255546,-3.480048179626465,-1.9671190977096558,9.079691886901855,-1.4126042127609253,-0.08490608632564545, -0.19926679134368896
72,366249041,0.34951788,-0.20864898,-0.03893924,0.9125716,-3.4775540828704834,-1.9577970504760742,9.05032730102539,-1.381343960762024,-0.10324478894472122, -0.26921504735946655
73,366265708,0.34936202,-0.20860465,-0.039106246,0.9126342,-3.528791666030884,-1.9822478294372559,8.928312301635742,-1.1922072172164917,-0.5086682438850403, -0.09876257181167603
74,366282375,0.3492788,-0.2085007,-0.039180804,0.9126865,-3.5985240936279297,-2.001612663269043,8.930214881896973,-0.5394930839538574,-0.7389519810676575, -0.033988047391176224
75,366299042,0.34921873,-0.2084658,-0.0392868,0.912713,-3.5464601516723633,-1.944683313369751,8.984493255615234,-0.8682705760002136,-0.34718015789985657, -0.2989642322063446
76,366315709,0.34916866,-0.20853443,-0.03947618,0.9127082,-3.4601521492004395,-1.9964344501495361,8.950916290283203,-1.7488737106323242,0.07640908658504486, -0.2603018879890442
77,366332376,0.34905016,-0.20863332,-0.039679334,0.9127222,-3.486994743347168,-2.055224657058716,8.933192253112793,-1.8990793228149414,0.2526244819164276, -0.07031966745853424
78,366349043,0.34894627,-0.20872618,-0.039814148,0.9127348,-3.520580530166626,-2.0818030834198,8.942906379699707,-1.436193585395813,0.3789718747138977, -0.06008739024400711
79,366365710,0.3488794,-0.20876093,-0.039871924,0.91274995,-3.563122034072876,-2.029862403869629,8.95190143585205,-0.7707757353782654,0.1903727799654007, -0.15274132788181305
80,366382377,0.34880453,-0.2087822,-0.039923985,0.91277134,-3.5437817573547363,-1.9469659328460693,9.026951789855957,-0.6620370745658875,0.13109220564365387, -0.21782322227954865
81,366399044,0.34872335,-0.20886694,-0.04009823,0.9127754,-3.483522891998291,-1.9427157640457153,9.042962074279785,-1.6126524209976196,0.2511645555496216, -0.364955335855484
82,366415711,0.34864172,-0.20894046,-0.04027803,0.91278183,-3.475379228591919,-2.005861282348633,9.055497169494629,-1.6501110792160034,0.15384909510612488, -0.3242567777633667
83,366432378,0.34857893,-0.20898315,-0.040432375,0.9127892,-3.4492197036743164,-2.0614237785339355,8.976456642150879,-1.3640940189361572,0.04773566871881485, -0.4938640892505646
84,366449045,0.348541,-0.20900898,-0.04051996,0.9127939,-3.4431910514831543,-2.0347578525543213,8.986359596252441,-0.9026299715042114,0.09456850588321686, -0.47955942153930664
85,366465712,0.34847382,-0.20905523,-0.040593967,0.9128057,-3.46500825881958,-1.9934254884719849,8.95106029510498,-0.8807694315910339,0.2576957643032074, -0.32695892453193665
86,366482379,0.34839252,-0.20911391,-0.04066418,0.91282016,-3.444840431213379,-1.9915764331817627,8.981535911560059,-0.9827080965042114,0.2931950092315674, -0.0440666526556015
87,366499046,0.34826782,-0.20918211,-0.040744647,0.91284853,-3.4692740440368652,-2.000203847885132,8.98323917388916,-1.0277223587036133,0.3666265904903412, -0.028033098205924034
88,366515713,0.34817287,-0.20923662,-0.0407901,0.9128702,-3.4780712127685547,-1.9746860265731812,9.062662124633789,-0.8096557855606079,0.3394898772239685, -0.007069104816764593
89,366532380,0.34805223,-0.20929906,-0.04088946,0.91289747,-3.4716172218322754,-1.9833240509033203,9.011025428771973,-1.1666969060897827,0.2760600745677948, -0.027444005012512207
90,366549047,0.34796703,-0.20933856,-0.04101978,0.91291505,-3.4943039417266846,-1.9843612909317017,9.07099723815918,-1.3109476566314697,0.05535544455051422, -0.2102162390947342
91,366565714,0.34788194,-0.20936726,-0.041172463,0.9129339,-3.529564619064331,-2.005598545074463,8.99831485748291,-1.4433653354644775,-0.0718052089214325, -0.2220364809036255
92,366582381,0.34780425,-0.20933907,-0.041295044,0.91296446,-3.521662712097168,-2.009005069732666,8.973489761352539,-1.097273588180542,-0.36641526222229004, -0.25004395842552185
93,366599048,0.34772202,-0.20934242,-0.04142056,0.9129894,-3.475745677947998,-2.0105574131011963,8.968082427978516,-1.2112244367599487,-0.1758567988872528, -0.21728533506393433
94,366615715,0.34762198,-0.20936717,-0.041496687,0.91301835,-3.4325199127197266,-2.0167691707611084,8.984130859375,-0.9841040372848511,0.06438392400741577, -0.015201138332486153
95,366632382,0.34751144,-0.20944726,-0.041574985,0.91303843,-3.423698663711548,-2.023730516433716,8.993871688842773,-1.1538009643554688,0.42006751894950867, 0.0425875186920166
96,366649049,0.3474183,-0.20953573,-0.041613456,0.9130518,-3.428367853164673,-2.0009992122650146,9.001840591430664,-0.9378474354743958,0.566482424736023, 0.05926138162612915
97,366665716,0.34730554,-0.20961443,-0.04166555,0.9130744,-3.463780403137207,-2.021437168121338,8.981868743896484,-0.9622434377670288,0.5031166672706604, -0.0004482222138904035
98,366682383,0.3471964,-0.20966801,-0.041707937,0.9131016,-3.486103057861328,-2.019557237625122,9.031684875488281,-0.8025227189064026,0.38788512349128723, -0.10292463004589081
99,366699050,0.34713188,-0.20970617,-0.041734178,0.9131162,-3.485975980758667,-2.009174108505249,9.05551815032959,-0.642392098903656,0.34189751744270325, -0.31408852338790894
100,366715717,0.34705526,-0.2097477,-0.041803543,0.9131325,-3.5036115646362305,-1.984449028968811,9.007506370544434,-0.9831818342208862,0.23210866749286652, -0.20107249915599823
101,366732384,0.34698257,-0.20975468,-0.041854154,0.9131563,-3.496886968612671,-1.9941790103912354,8.989154815673828,-0.7890377044677734,0.04668555036187172, -0.18092811107635498
102,366749051,0.3469174,-0.20976807,-0.041936725,0.9131741,-3.498642921447754,-1.996944546699524,8.994349479675293,-1.0445499420166016,-0.005237796809524298, -0.18323323130607605
103,366765718,0.3468339,-0.20978653,-0.042010467,0.91319823,-3.5132272243499756,-1.979984998703003,9.001978874206543,-0.9989720582962036,0.054574254900217056, -0.13049669563770294
104,366782385,0.34674197,-0.20983343,-0.042085886,0.913219,-3.5133087635040283,-1.98196280002594,8.982867240905762,-1.0920228958129883,0.23501572012901306, -0.10196415334939957
105,366799052,0.3466421,-0.20990737,-0.04218672,0.91323525,-3.4900190830230713,-1.9840900897979736,8.989752769470215,-1.3653618097305298,0.3289887309074402, -0.02315388061106205
106,366815719,0.34651354,-0.20998245,-0.04225963,0.9132634,-3.4594171047210693,-2.020446300506592,8.954045295715332,-1.2252476215362549,0.3862074911594391, 0.18705596029758453
107,366832386,0.34638137,-0.21005623,-0.042300936,0.91329455,-3.4529218673706055,-2.0266144275665283,8.996122360229492,-0.9842705130577087,0.4804750382900238, 0.13483165204524994
108,366849053,0.3462811,-0.21012244,-0.04235049,0.913315,-3.4454681873321533,-2.024055004119873,9.021225929260254,-1.0148135423660278,0.4195424020290375, -0.019465649500489235
109,366865720,0.3461933,-0.21018331,-0.04240558,0.9133318,-3.47843599319458,-1.9821430444717407,9.025382995605469,-1.0528355836868286,0.3695271909236908, -0.050239305943250656
110,366882387,0.34610894,-0.21020922,-0.04249351,0.9133538,-3.5214028358459473,-1.9872630834579468,9.048226356506348,-1.1534550189971924,0.0836830884218216, -0.18452666699886322
111,366899054,0.3460176,-0.21022426,-0.042615052,0.9133793,-3.510915756225586,-1.9967213869094849,9.016759872436523,-1.3480348587036133,-0.06597831100225449, -0.2112535685300827
112,366915721,0.34591317,-0.21019955,-0.042677067,0.91342163,-3.4682421684265137,-2.017134428024292,8.975523948669434,-0.8819860816001892,-0.18946993350982666, -0.06952567398548126
113,366932388,0.34581155,-0.21019009,-0.042720187,0.91346025,-3.459293842315674,-2.025381326675415,8.998416900634766,-0.8279048800468445,-0.05706509202718735, -0.0026381080970168114
114,366949055,0.34570703,-0.21018456,-0.042714853,0.91350126,-3.453343152999878,-2.0258069038391113,8.96557331085205,-0.5333971977233887,0.08751218765974045, 0.06694519519805908
115,366965722,0.345616,-0.21020831,-0.04276587,0.91352785,-3.474442720413208,-1.9888209104537964,9.007240295410156,-0.9455695748329163,0.16523393988609314, -0.1305479258298874
116,366982389,0.34555176,-0.2102302,-0.042818997,0.9135446,-3.478013753890991,-1.982155203819275,8.961657524108887,-0.9655090570449829,0.14811182022094727, -0.23065514862537384
117,366999056,0.34546605,-0.21028428,-0.042914767,0.9135601,-3.492182493209839,-1.9624853134155273,9.011621475219727,-1.2963355779647827,0.27938973903656006, -0.2911011576652527
118,367015723,0.34538335,-0.21033947,-0.04297664,0.91357577,-3.4905877113342285,-1.985567569732666,9.019807815551758,-1.108325481414795,0.35822561383247375, -0.2231762409210205
119,367032390,0.34528717,-0.21036065,-0.04301348,0.9136055,-3.4964144229888916,-2.005220651626587,9.007355690002441,-0.9157437682151794,0.16747504472732544, -0.028801484033465385
120,367049057,0.34519747,-0.21034798,-0.04303769,0.9136413,-3.4355621337890625,-2.0280277729034424,8.9959135055542,-0.7666776776313782,-0.030043695122003555, -0.01406137365847826
121,367065724,0.3450844,-0.2103308,-0.043069728,0.9136864,-3.4320147037506104,-2.0360851287841797,9.022838592529297,-0.8168785572052002,-0.07742718607187271, 0.07646031677722931
122,367082391,0.34497285,-0.2103136,-0.04315216,0.91372854,-3.4908950328826904,-1.975358486175537,9.034944534301758,-1.087246298789978,-0.1546494960784912, -0.14428915083408356
123,367099058,0.34493485,-0.21031767,-0.043331183,0.9137335,-3.4993436336517334,-1.959768533706665,9.100460052490234,-1.7530226707458496,-0.2328578531742096, -0.591896653175354
124,367115725,0.3448535,-0.21037574,-0.043703128,0.9137332,-3.5084786415100098,-1.8986294269561768,9.099323272705078,-3.102402687072754,-0.3105924129486084, -0.7700586318969727
125,367132392,0.34477746,-0.21045299,-0.04416027,0.9137221,-3.515709638595581,-1.9907951354980469,9.000816345214844,-3.7806906700134277,-0.42775774002075195, -0.7331252098083496
126,367149059,0.34474313,-0.21049102,-0.04467249,0.91370153,-3.4952244758605957,-2.0689070224761963,8.958578109741211,-3.967355966567993,-0.7678688168525696, -1.1593462228775024
127,367165726,0.34476507,-0.2104782,-0.045218866,0.91366917,-3.5594425201416016,-1.9789117574691772,9.083669662475586,-3.9618618488311768,-1.117891788482666, -1.67398202419281
128,367182393,0.3447221,-0.21031126,-0.045749135,0.9136974,-3.565290689468384,-1.9710302352905273,9.035772323608398,-3.580399513244629,-2.155359983444214, -1.1589618921279907
129,367199060,0.34464428,-0.21016672,-0.04640562,0.91372705,-3.511849880218506,-2.090292453765869,8.994623184204102,-4.430075645446777,-2.2921574115753174, -1.2700058221817017
130,367215727,0.3446745,-0.20983966,-0.046777,0.9137718,-3.4337902069091797,-2.1621816158294678,8.930215835571289,-2.105966091156006,-2.7885570526123047, -1.4192253351211548
131,367232394,0.344694,-0.20955975,-0.04720825,0.91380656,-3.4384148120880127,-1.9764305353164673,8.991069793701172,-2.6575229167938232,-2.651811361312866, -1.3309640884399414
132,367249061,0.3446672,-0.2093023,-0.047688123,0.9138506,-3.413508415222168,-1.9768675565719604,8.982714653015137,-3.008326768875122,-2.596487283706665, -1.3037889003753662
133,367265728,0.34461495,-0.20911956,-0.048228458,0.9138838,-3.4065113067626953,-2.0324435234069824,8.939970970153809,-3.6502063274383545,-2.2819249629974365, -1.1538904905319214
134,367282395,0.34456372,-0.20896338,-0.048687525,0.91391456,-3.4137918949127197,-2.112229824066162,8.957072257995605,-3.2505722045898438,-1.943619728088379, -0.9408570528030396
135,367299062,0.34450853,-0.20882808,-0.04899268,0.9139501,-3.3741252422332764,-2.1395323276519775,8.970471382141113,-2.294142007827759,-1.4223244190216064, -0.8034446835517883
136,367315729,0.3444208,-0.20869781,-0.04917286,0.9140031,-3.3753745555877686,-2.2106337547302246,8.942694664001465,-1.5875518321990967,-1.1427489519119263, -0.31877562403678894
137,367332396,0.3443549,-0.20857051,-0.049206518,0.9140552,-3.3460373878479004,-2.1115341186523438,8.968725204467773,-0.6423537731170654,-0.7666906118392944, -0.24507513642311096
138,367349063,0.34429538,-0.208499,-0.049226224,0.9140928,-3.3735151290893555,-2.116109848022461,8.959142684936523,-0.7199345231056213,-0.37723660469055176, -0.1987929493188858
139,367365730,0.34422347,-0.20848694,-0.04925543,0.9141211,-3.414604425430298,-2.0991857051849365,8.947705268859863,-0.8916292190551758,0.022737672552466393, -0.281304270029068
140,367382397,0.3441746,-0.20848761,-0.049272377,0.91413844,-3.4261958599090576,-2.0605275630950928,9.003639221191406,-0.8465765118598938,0.13770028948783875, -0.3663640320301056
141,367399064,0.34411362,-0.20840725,-0.049326543,0.91417676,-3.4829294681549072,-2.0731217861175537,9.031582832336426,-0.897161602973938,-0.4867181181907654, -0.35337841510772705
142,367415731,0.3440695,-0.20815188,-0.049403034,0.91424745,-3.510784149169922,-2.040408134460449,9.15487003326416,-0.6183160543441772,-1.6973021030426025, -0.42259666323661804
143,367432398,0.34398666,-0.20781375,-0.049534835,0.91434836,-3.485363483428955,-1.9963772296905518,9.223262786865234,-0.8435798287391663,-2.416750192642212, -0.17907118797302246
144,367449065,0.34389967,-0.20732388,-0.049614076,0.914488,-3.381544828414917,-1.8829498291015625,9.25141716003418,-0.15502086281776428,-3.297161102294922, -0.06413420289754868
145,367465732,0.3437891,-0.20674959,-0.04977809,0.9146507,-3.371407985687256,-1.983114242553711,9.319647789001465,-0.511972188949585,-4.0450005531311035, -0.08447067439556122
146,367482399,0.34368774,-0.20606712,-0.050182346,0.91482073,-3.4400856494903564,-1.974467158317566,9.235686302185059,-1.8436533212661743,-5.343193054199219, -0.3096831440925598
147,367499066,0.34365052,-0.2052246,-0.05088272,0.9149855,-3.4649453163146973,-1.9432692527770996,9.2649507522583,-3.2368955612182617,-7.00489616394043, -1.255611777305603
148,367515733,0.34365734,-0.20428474,-0.05202099,0.91512924,-3.519268751144409,-2.0799121856689453,9.195161819458008,-5.691656112670898,-8.582767486572266, -2.3333816528320312
149,367532400,0.34377006,-0.2032685,-0.053357206,0.9152362,-3.389037609100342,-2.198655843734741,9.121705055236816,-6.636919021606445,-9.451372146606445, -3.3825042247772217
150,367549067,0.34395444,-0.20227298,-0.054861214,0.9152984,-3.2403314113616943,-2.330188274383545,8.89840030670166,-7.691536903381348,-9.65208911895752, -4.084011554718018
151,367565734,0.3441926,-0.20130683,-0.056280363,0.9153359,-3.12457013130188,-2.349414348602295,8.75862979888916,-7.165272235870361,-9.21934700012207, -4.3193278312683105
152,367582401,0.34442177,-0.2004281,-0.05747781,0.915368,-3.0499672889709473,-2.311643600463867,8.786569595336914,-5.983397960662842,-8.138757705688477, -3.9283363819122314
153,367599068,0.34461567,-0.19959669,-0.058317777,0.9154236,-3.118406057357788,-2.252528190612793,8.781983375549316,-3.8669040203094482,-7.025538921356201, -3.171198606491089
154,367615735,0.34474936,-0.198924,-0.05887748,0.91548383,-3.1488800048828125,-2.1049938201904297,8.976149559020996,-2.564587116241455,-5.397428512573242, -2.315183639526367
155,367632402,0.34480405,-0.19846687,-0.05923465,0.91553944,-3.0892961025238037,-2.138603448867798,8.993968963623047,-1.925562858581543,-3.5888516902923584, -1.4553008079528809
156,367649069,0.34484217,-0.19814704,-0.05927696,0.9155916,-3.076673746109009,-2.1469531059265137,8.951990127563477,-0.3366149067878723,-2.0022215843200684, -0.7777296304702759
157,367665736,0.3448302,-0.19801939,-0.05916797,0.9156308,-3.0358030796051025,-2.1413042545318604,8.852364540100098,0.12490672618150711,-0.3980982005596161, -0.3411739468574524
158,367682403,0.34481037,-0.19801654,-0.058983102,0.91565084,-3.0607292652130127,-2.2253594398498535,8.864834785461426,0.24469728767871857,0.565534770488739, -0.07836204767227173
159,367699070,0.34483656,-0.19803004,-0.058758188,0.91565245,-3.1841957569122314,-2.2637999057769775,9.024134635925293,0.5197905898094177,0.8151562213897705, -0.3730105757713318
160,367715737,0.34485433,-0.19804755,-0.0586281,0.9156503,-3.30826473236084,-2.1321609020233154,9.124147415161133,-0.061931513249874115,0.6455873250961304, -0.5687812566757202
161,367732404,0.34485567,-0.19804226,-0.058622636,0.9156513,-3.207540512084961,-2.1954214572906494,9.271106719970703,-0.8472936749458313,0.1712016761302948, -0.5749281644821167
162,367749071,0.34485528,-0.19794497,-0.05859511,0.91567427,-3.205751657485962,-2.2509329319000244,9.219247817993164,-0.498256653547287,-0.38826286792755127, -0.5053001046180725
163,367765738,0.34486085,-0.19778101,-0.058499575,0.9157137,-3.182638645172119,-2.142620325088501,9.142534255981445,0.07343801110982895,-0.6847171187400818, -0.3684258759021759
164,367782405,0.3448745,-0.19757344,-0.058516987,0.9157523,-3.1750741004943848,-2.118027448654175,8.96045970916748,-0.5192719101905823,-1.211173176765442, -0.6347082853317261
165,367799072,0.34493172,-0.19724004,-0.058618955,0.91579604,-3.176042079925537,-2.091878652572632,9.03233814239502,-0.70121169090271,-2.197390079498291, -1.0609933137893677
166,367815739,0.34498638,-0.19683592,-0.058784164,0.91585195,-3.1932389736175537,-2.147552490234375,9.161200523376465,-0.9272820949554443,-2.8013246059417725, -1.1721010208129883
167,367832406,0.34504247,-0.19643196,-0.05901672,0.9159027,-3.1546459197998047,-2.177922010421753,9.196981430053711,-1.3699594736099243,-2.9600727558135986, -1.260567545890808
168,367849073,0.3451075,-0.19602409,-0.059178017,0.9159551,-3.094970226287842,-2.209589958190918,9.118659019470215,-0.92967689037323,-2.830369710922241, -1.1534807682037354
169,367865740,0.34518266,-0.19569127,-0.05932914,0.915988,-3.066477060317993,-2.136125326156616,9.004822731018066,-1.0414764881134033,-2.299060106277466, -1.2232497930526733
170,367882407,0.34519628,-0.19540608,-0.059531007,0.9160307,-3.0758514404296875,-2.189783811569214,8.861530303955078,-1.5507466793060303,-2.1486623287200928, -0.8890552520751953
171,367899074,0.3452242,-0.19507028,-0.059638802,0.9160846,-3.1257073879241943,-2.2817468643188477,9.048469543457031,-0.8448348641395569,-2.277160882949829, -0.7641932964324951
172,367915741,0.34523878,-0.19474426,-0.059740223,0.916142,-3.125098943710327,-2.230895519256592,9.161092758178711,-0.8621106743812561,-2.2259230613708496, -0.6061373949050903
173,367932408,0.34523612,-0.19436695,-0.05977154,0.916221,-3.106327533721924,-2.1960372924804688,9.184831619262695,-0.3080695569515228,-2.4110002517700195, -0.3997246026992798
174,367949075,0.34524304,-0.19389418,-0.059804242,0.9163165,-3.1257479190826416,-2.174015760421753,9.143280982971191,-0.05306951701641083,-3.013782262802124, -0.5317068696022034
175,367965742,0.34520662,-0.1932886,-0.059805382,0.916458,-3.0719399452209473,-2.210402727127075,9.16339111328125,0.4161616265773773,-3.8549296855926514, -0.16506105661392212
176,367982409,0.3448991,-0.19292893,-0.060469456,0.91660607,-3.054755449295044,-2.232041597366333,9.346391677856445,-4.692681789398193,-3.9862842559814453, 0.7382668852806091
177,367999076,0.34445766,-0.19275497,-0.061694995,0.9167269,-3.1597819328308105,-2.2194247245788574,9.273632049560547,-8.864391326904297,-4.159106254577637, 0.8450592160224915
178,368015743,0.3441939,-0.19220917,-0.06260112,0.9168792,-3.138282299041748,-2.202575445175171,9.157048225402832,-5.7512688636779785,-5.732609748840332, 0.1329747587442398
179,368032410,0.34411868,-0.19136916,-0.06321356,0.91704124,-3.0915253162384033,-2.2013237476348877,9.104838371276855,-2.9544641971588135,-6.825786113739014, -0.7791000604629517
180,368049077,0.34421444,-0.19042225,-0.06373386,0.91716623,-3.0008225440979004,-2.146902084350586,9.061838150024414,-1.9364229440689087,-7.177396774291992, -1.8140709400177002
181,368065744,0.34436747,-0.18956876,-0.064313054,0.91724527,-2.9289402961730957,-2.2134909629821777,9.011552810668945,-2.5042824745178223,-6.660725116729736, -2.254596710205078
182,368082411,0.34456766,-0.18877268,-0.06465712,0.91731006,-2.8628885746002197,-2.246471643447876,8.960132598876953,-1.0974273681640625,-5.694011211395264, -2.2794535160064697
183,368099078,0.34474248,-0.18807673,-0.06468071,0.91738546,-2.839960813522339,-2.2180511951446533,9.039810180664062,0.6731466054916382,-4.311936855316162, -1.682191014289856
184,368115745,0.34482086,-0.18763271,-0.06455185,0.91745603,-2.8624789714813232,-2.1627659797668457,9.05253791809082,0.9195792078971863,-2.3826980590820312, -0.8150345087051392
185,368132412,0.34486786,-0.18738073,-0.064245924,0.9175114,-2.843663215637207,-2.118459701538086,8.983838081359863,1.476527452468872,-0.7846450805664062, -0.18386077880859375
186,368149079,0.34483048,-0.18730241,-0.06381811,0.9175713,-2.826766014099121,-2.1303088665008545,8.98326587677002,1.7407732009887695,0.5774190425872803, 0.5253996253013611
187,368165746,0.3447423,-0.18738778,-0.0632979,0.9176231,-2.876796245574951,-2.1987671852111816,8.999764442443848,1.8712704181671143,1.8301490545272827, 0.9822277426719666
188,368182413,0.34464467,-0.18757436,-0.06266616,0.9176648,-2.918876886367798,-2.2393367290496826,9.045279502868652,2.30361270904541,2.7330477237701416, 1.243886947631836
189,368199080,0.34457114,-0.18784374,-0.061968077,0.917685,-2.968867063522339,-2.1947600841522217,9.109442710876465,2.530963659286499,3.438523769378662, 1.2108211517333984
190,368215747,0.344465,-0.18816493,-0.06141221,0.91769624,-2.973295211791992,-2.159041404724121,9.17676830291748,1.4643230438232422,3.4278059005737305, 1.2250491380691528
191,368232414,0.34430113,-0.18847597,-0.061055176,0.9177177,-3.018724203109741,-2.1956348419189453,9.237326622009277,0.18585218489170074,2.878323554992676, 1.2654532194137573
192,368249081,0.34418944,-0.18872146,-0.06081283,0.9177253,-3.077583074569702,-2.162360191345215,9.242000579833984,-0.36074206233024597,2.20449161529541, 0.8354670405387878
193,368265748,0.34415343,-0.18882558,-0.060600974,0.9177314,-3.068143606185913,-2.1331803798675537,9.272133827209473,-0.12419597059488297,1.2734313011169434, 0.24599075317382812
194,368282415,0.34416366,-0.1887737,-0.060496714,0.9177451,-3.039154052734375,-2.163616180419922,9.270612716674805,-0.3516879677772522,0.06303925067186356, -0.31370431184768677
195,368299082,0.34410548,-0.1887017,-0.060684975,0.91776943,-3.047478437423706,-2.1708950996398926,9.230828285217285,-2.2426352500915527,-0.8006657958030701, -0.2363155633211136
196,368315749,0.34397689,-0.18862988,-0.061207984,0.91779757,-3.06514310836792,-2.1658577919006348,9.267485618591309,-4.461258888244629,-1.6362035274505615, -0.18201667070388794
197,368332416,0.34389117,-0.18841758,-0.061766792,0.9178359,-3.008016586303711,-2.136496067047119,9.267082214355469,-4.276167869567871,-2.5848846435546875, -0.6084167957305908
198,368349083,0.34323144,-0.18885611,-0.06400511,0.9178392,-3.0071980953216553,-2.1836745738983154,9.506243705749512,-17.2109317779541,-2.6717658042907715, 1.1288102865219116
199,368365750,0.34248233,-0.18942563,-0.067040965,0.91778505,-3.154665946960449,-2.1790592670440674,9.230408668518066,-22.668498992919922,-3.6582558155059814, 0.47221580147743225
200,368382417,0.34204012,-0.18958242,-0.06927546,0.9177516,-3.0045948028564453,-2.19431734085083,9.080229759216309,-16.28890037536621,-4.310659885406494, -0.4115452766418457
201,368399084,0.34186134,-0.189265,-0.07055421,0.91778624,-2.8741037845611572,-2.4016172885894775,9.013616561889648,-8.7517728805542,-5.001765251159668, -0.9660345315933228
202,368415751,0.3418712,-0.18870662,-0.071275435,0.917842,-2.8062026500701904,-2.311596632003784,9.097970008850098,-4.449913501739502,-5.180656433105469, -1.3717782497406006
203,368432418,0.3418464,-0.18814392,-0.07192738,0.91791594,-2.8752224445343018,-2.3584184646606445,9.065403938293457,-4.025280475616455,-5.064630508422852, -1.074965238571167
204,368449085,0.34187746,-0.18750386,-0.072410285,0.9179972,-2.9078338146209717,-2.3484675884246826,9.108925819396973,-2.720632314682007,-5.15255880355835, -1.1715762615203857
205,368465752,0.3419768,-0.1867906,-0.0726691,0.9180853,-2.8673722743988037,-2.3510897159576416,9.050178527832031,-1.0460611581802368,-5.063183307647705, -1.3331412076950073
206,368482419,0.34214115,-0.18601596,-0.07258074,0.9181882,-2.8265371322631836,-2.4697651863098145,9.015230178833008,1.4016486406326294,-4.601001739501953, -1.3649648427963257
207,368499086,0.34240115,-0.18524177,-0.07221196,0.91827697,-2.7835943698883057,-2.4328269958496094,9.00415325164795,3.2547407150268555,-3.9035935401916504, -1.5281307697296143
208,368515753,0.3427001,-0.18451703,-0.07165961,0.9183546,-2.773818254470825,-2.324333429336548,8.98609447479248,4.335711479187012,-3.131946563720703, -1.5113543272018433
209,368532420,0.34297746,-0.18387647,-0.071101055,0.918423,-2.7955541610717773,-2.3006932735443115,9.036126136779785,4.158305644989014,-2.570042371749878, -1.3942146301269531
210,368549087,0.34318376,-0.18339601,-0.07065711,0.91847616,-2.8473198413848877,-2.2716307640075684,9.070191383361816,2.961333751678467,-1.8407974243164062, -1.060058355331421
211,368565754,0.34336656,-0.18301791,-0.07011105,0.9185252,-2.817861318588257,-2.3101210594177246,9.128748893737793,3.303365707397461,-0.9846546053886414, -0.6598855257034302
212,368582421,0.34355643,-0.18269429,-0.0693976,0.91857266,-2.8040101528167725,-2.273393154144287,9.075642585754395,4.259693145751953,-0.22049975395202637, -0.5405688881874084
213,368599088,0.34375533,-0.18241231,-0.06861379,0.9186133,-2.814516067504883,-2.310729503631592,9.070329666137695,4.593017101287842,0.20547150075435638, -0.4463910162448883
214,368615755,0.3439454,-0.18220957,-0.067942455,0.91863215,-2.8230087757110596,-2.2674715518951416,9.157266616821289,3.679283380508423,0.4669002592563629, -0.5612126588821411
215,368632422,0.34402195,-0.18213838,-0.067626975,0.91864103,-2.8440635204315186,-2.3281702995300293,9.19278621673584,1.0025770664215088,0.4428243935108185, -0.35144466161727905
216,368649089,0.34410867,-0.18213728,-0.0675519,0.91861415,-2.8377726078033447,-2.271569013595581,9.245710372924805,-0.7213944792747498,0.3343034088611603, -0.6503193378448486
217,368665756,0.34421262,-0.18208694,-0.06748041,0.9185905,-2.8460423946380615,-2.2343552112579346,9.185184478759766,-0.5950341820716858,0.029768358916044235, -0.8171346783638
218,368682423,0.34433773,-0.18196599,-0.06735256,0.9185769,-2.830902576446533,-2.2378525733947754,9.159051895141602,-0.050188083201646805,-0.29177984595298767, -0.869653582572937
219,368699090,0.34437212,-0.18194513,-0.06737214,0.9185667,-2.8172309398651123,-2.2268993854522705,9.181855201721191,-1.3308488130569458,-0.05341528728604317, -0.43317481875419617
220,368715757,0.34413517,-0.18226118,-0.06795899,0.91854984,-2.797323226928711,-2.2128231525421143,9.274314880371094,-6.05348539352417,0.6174261569976807, 0.6999374628067017
221,368732424,0.34361613,-0.18325524,-0.06974388,0.9184123,-2.8067214488983154,-2.057889938354492,9.539210319519043,-15.622197151184082,2.1010303497314453, 0.9574354290962219
222,368749091,0.34311262,-0.1845464,-0.072157994,0.9181555,-2.947603225708008,-2.324934482574463,9.291546821594238,-20.345796585083008,2.6593894958496094, -0.09517693519592285
223,368765758,0.3429035,-0.18511498,-0.07369564,0.91799706,-2.903505563735962,-2.54121732711792,9.104523658752441,-12.69505786895752,0.17832212150096893, -0.9515123963356018
224,368782425,0.34297097,-0.18494166,-0.074327886,0.9179558,-2.8737337589263916,-2.546807289123535,9.071514129638672,-4.8292365074157715,-2.3966445922851562, -1.5926234722137451
225,368799092,0.34320143,-0.18430354,-0.07439987,0.9179923,-2.854214906692505,-2.5513908863067627,9.036450386047363,0.0730922520160675,-4.012114524841309, -2.014451742172241
226,368815759,0.3435514,-0.18333969,-0.07406624,0.9180815,-2.8014681339263916,-2.4918782711029053,9.027655601501465,3.5720114707946777,-5.1330671310424805, -2.246246814727783
227,368832426,0.34395534,-0.182246,-0.073517255,0.91819197,-2.767904281616211,-2.3472464084625244,9.125212669372559,5.31414270401001,-5.4508957862854, -2.304823160171509
228,368849093,0.34433952,-0.18115246,-0.07288267,0.91831505,-2.726043701171875,-2.320805311203003,9.065486907958984,5.8196611404418945,-5.285117149353027, -1.9962538480758667
229,368865760,0.3446863,-0.18020125,-0.07217949,0.9184274,-2.675873279571533,-2.168137788772583,9.084638595581055,5.898433208465576,-4.1953229904174805, -1.7464665174484253
230,368882427,0.34488198,-0.17950542,-0.07163608,0.9185328,-2.6853692531585693,-2.177877902984619,9.0300874710083,4.056532859802246,-3.0509212017059326, -0.7852725386619568
231,368899094,0.3450224,-0.17900142,-0.07092675,0.9186334,-2.7045977115631104,-2.1883368492126465,9.022711753845215,4.570964336395264,-1.46772301197052, -0.14216330647468567
232,368915761,0.34509513,-0.17866746,-0.06998829,0.91874313,-2.6838128566741943,-2.3136489391326904,8.921889305114746,5.539790630340576,0.11373960971832275, 0.6425138115882874
233,368932428,0.34512874,-0.17842056,-0.06868713,0.9188768,-2.6747727394104004,-2.3622264862060547,9.007163047790527,7.577281475067139,1.4644768238067627, 1.4772831201553345
234,368949095,0.34510934,-0.17834796,-0.06725188,0.9190042,-2.671107530593872,-2.2745659351348877,9.036675453186035,7.952777862548828,2.873150587081909, 2.028878688812256
235,368965762,0.345043,-0.17847316,-0.065770455,0.9191121,-2.6773862838745117,-2.1565208435058594,9.109135627746582,7.703463077545166,4.231660842895508, 2.449554204940796
236,368982429,0.3449372,-0.17881346,-0.064282075,0.919191,-2.7184765338897705,-2.1022422313690186,9.073429107666016,7.173563480377197,5.630396366119385, 2.73042368888855
237,368999096,0.34485653,-0.17929712,-0.062757336,0.9192324,-2.7691571712493896,-2.0695929527282715,9.125103950500488,7.056704521179199,6.668326377868652, 2.6422390937805176
238,369015763,0.34474462,-0.18000987,-0.06148842,0.91922086,-2.8287651538848877,-2.0918092727661133,9.209924697875977,4.82996129989624,7.562656879425049, 2.4956443309783936
239,369032430,0.34449613,-0.18098354,-0.060700297,0.9191751,-2.851968765258789,-2.066070318222046,9.285700798034668,1.0277546644210815,8.091841697692871, 2.65496826171875
240,369049097,0.34421644,-0.18200898,-0.060192652,0.9191108,-2.9099528789520264,-2.103705644607544,9.275127410888672,-0.9347357153892517,7.753753662109375, 2.527276039123535
241,369065764,0.34398803,-0.18289097,-0.059688788,0.91905415,-2.929316282272339,-2.1795921325683594,9.269028663635254,-0.5873632431030273,6.824395656585693, 2.2561140060424805
242,369082431,0.34382564,-0.1835533,-0.059124984,0.91901934,-2.9389076232910156,-2.1948835849761963,9.26369857788086,0.43283548951148987,5.601248741149902, 1.7804735898971558
243,369099098,0.3437315,-0.18400945,-0.058586765,0.9189977,-2.963373899459839,-2.160327434539795,9.272732734680176,0.8734251260757446,4.2666215896606445, 1.1946853399276733
244,369115765,0.34371734,-0.18430462,-0.058158334,0.91897106,-2.963231086730957,-2.106847047805786,9.240628242492676,0.6162863969802856,2.9952070713043213, 0.6055802702903748
245,369132432,0.34374335,-0.18444686,-0.05777588,0.9189569,-2.985764503479004,-2.129368782043457,9.223254203796387,0.7588467001914978,1.9335730075836182, 0.20696982741355896
246,369149099,0.3438219,-0.18451166,-0.05739785,0.9189383,-2.9173684120178223,-2.088073492050171,9.177154541015625,0.9343962669372559,1.4257758855819702, -0.03724087029695511
247,369165766,0.34383014,-0.18465689,-0.057014223,0.9189299,-2.8387393951416016,-2.1147384643554688,9.054677963256836,0.7826920747756958,1.9753731489181519, 0.19473977386951447
248,369182433,0.34383917,-0.18484907,-0.05655142,0.91891646,-2.8522422313690186,-2.0881526470184326,8.959620475769043,1.1176676750183105,2.4274628162384033, 0.4651458263397217
249,369199100,0.34377477,-0.18508714,-0.055928163,0.9189307,-2.8917393684387207,-2.070765256881714,8.95786190032959,1.9818273782730103,3.0644891262054443, 1.0943602323532104
250,369215767,0.34366557,-0.1854087,-0.05520486,0.9189507,-2.918159246444702,-2.0659444332122803,9.055368423461914,2.319492816925049,3.771873712539673, 1.6827737092971802
251,369232434,0.3434511,-0.18584299,-0.05438133,0.9189921,-2.934044122695923,-2.083616256713867,9.153327941894531,2.621415138244629,4.6995530128479, 2.384113311767578
252,369249101,0.3432189,-0.18635304,-0.053463325,0.91902953,-2.954171657562256,-2.1330044269561768,9.146014213562012,3.005272626876831,5.394476413726807, 2.664649248123169
253,369265768,0.34299555,-0.1868985,-0.052470665,0.91905934,-2.980942726135254,-2.072564125061035,9.215780258178711,3.426563262939453,5.824539661407471, 2.635566234588623
254,369282435,0.34284177,-0.18748587,-0.05147667,0.9190532,-3.0886361598968506,-1.9409898519515991,9.282193183898926,3.3131885528564453,6.0956501960754395, 2.428154468536377
255,369299102,0.34266016,-0.18796107,-0.050547842,0.91907555,-3.1074931621551514,-2.014151096343994,9.312060356140137,3.1948840618133545,5.228148937225342, 2.3650195598602295
256,369315769,0.34251416,-0.18842772,-0.049782433,0.9190761,-3.161280393600464,-1.9685165882110596,9.30264663696289,2.204658031463623,4.819881439208984, 1.919037938117981
257,369332436,0.34237877,-0.1888311,-0.04921321,0.91907436,-3.138298273086548,-2.0411720275878906,9.18740177154541,1.1111876964569092,3.954735517501831, 1.6077027320861816
258,369349103,0.34232032,-0.18912813,-0.048686884,0.9190631,-3.162405014038086,-2.036155939102173,9.231364250183105,1.1197041273117065,3.172434091567993, 1.2095662355422974
259,369365770,0.34223214,-0.18934558,-0.04830229,0.9190715,-3.132295846939087,-1.9737426042556763,9.218949317932129,0.5152186155319214,2.3881473541259766, 0.836645245552063
260,369382437,0.3421224,-0.189517,-0.047960132,0.919095,-3.1169655323028564,-1.9784194231033325,9.232358932495117,0.37342676520347595,1.996913194656372, 0.8156300187110901
261,369399104,0.34207645,-0.18972023,-0.04766804,0.91908526,-3.084204912185669,-1.9147968292236328,9.201301574707031,-0.040173519402742386,2.0828311443328857, 0.5522418022155762
262,369415771,0.34206086,-0.18995391,-0.047427356,0.91905534,-3.1059975624084473,-1.9475204944610596,9.168525695800781,-0.4878450930118561,2.13779616355896, 0.48983651399612427
263,369432438,0.34202272,-0.19018568,-0.04716815,0.9190349,-3.1332509517669678,-1.9680119752883911,9.130841255187988,-0.3473466634750366,2.1804027557373047, 0.5444043278694153
264,369449105,0.34203053,-0.19033486,-0.046854146,0.91901726,-3.1171886920928955,-2.0096309185028076,9.140249252319336,0.20581723749637604,1.7679997682571411, 0.4457697868347168
265,369465772,0.3420881,-0.19047754,-0.04656475,0.91898096,-3.1330480575561523,-1.976534366607666,9.136154174804688,0.06264226138591766,1.667777419090271, 0.23615549504756927
266,369482439,0.34213987,-0.19066466,-0.0463831,0.91893196,-3.152132272720337,-1.919089674949646,9.144308090209961,-0.7142996191978455,1.7210514545440674, 0.06008097901940346
267,369499106,0.34216616,-0.19087423,-0.046254706,0.9188852,-3.125535011291504,-1.9449543952941895,9.114763259887695,-1.0993865728378296,1.7510825395584106, 0.04997677356004715
268,369515773,0.34213328,-0.19106293,-0.046192117,0.9188614,-3.111898183822632,-1.9515737295150757,9.111248970031738,-1.3987350463867188,1.502319097518921, -0.004110837820917368
269,369532440,0.34213862,-0.1912093,-0.046040718,0.9188366,-3.1635076999664307,-1.9353623390197754,9.098594665527344,-0.7617601156234741,1.4130078554153442, 0.0666506439447403
270,369549107,0.3421893,-0.19136108,-0.045849014,0.91879576,-3.1531758308410645,-1.9448950290679932,9.213766098022461,-0.5803325772285461,1.4992586374282837, 0.1213337630033493
271,369565774,0.34218884,-0.19156155,-0.045788653,0.918757,-3.1318840980529785,-1.9188908338546753,9.102599143981934,-1.4922856092453003,1.545886516571045, 0.011263184249401093
272,369582441,0.3421551,-0.19170463,-0.045692395,0.9187446,-3.166199207305908,-1.9938641786575317,9.189356803894043,-1.0927659273147583,1.2678096294403076, 0.10258527100086212
273,369599108,0.3422032,-0.1917419,-0.04562801,0.91872203,-3.2171542644500732,-1.9598785638809204,9.176258087158203,-1.0374165773391724,0.501515805721283, -0.23548312485218048
274,369615775,0.34224468,-0.19168484,-0.04562829,0.9187185,-3.199965238571167,-1.9588261842727661,9.226419448852539,-1.1546205282211304,-0.22841404378414154, -0.46446070075035095
275,369632442,0.342237,-0.19161469,-0.045924768,0.91872114,-3.1913411617279053,-1.8734796047210693,9.33855152130127,-3.0177392959594727,-1.0057594776153564, -0.6465413570404053
276,369649109,0.34222722,-0.19161972,-0.046616457,0.9186889,-3.2141928672790527,-1.9824002981185913,9.232219696044922,-5.781862258911133,-1.4642395973205566, -1.007859706878662
277,369665776,0.3422833,-0.19146456,-0.047288302,0.918666,-3.1532247066497803,-2.0069358348846436,9.160165786743164,-5.1409430503845215,-2.3918418884277344, -1.5621315240859985
278,369682443,0.3424655,-0.19108653,-0.047937457,0.9186433,-3.2107455730438232,-1.9765372276306152,9.199979782104492,-4.3319525718688965,-3.720871925354004, -2.3246982097625732
279,369699110,0.3427041,-0.19054832,-0.048558183,0.9186335,-3.179194211959839,-2.017268180847168,9.231005668640137,-3.707131862640381,-4.674881935119629, -2.638864040374756
280,369715777,0.34292594,-0.1899726,-0.049217228,0.91863483,-3.122022867202759,-2.001589298248291,9.126193046569824,-3.8665709495544434,-5.016811370849609, -2.60066294670105
281,369732444,0.34316975,-0.18942413,-0.0497282,0.9186296,-3.0351274013519287,-2.0182294845581055,9.066058158874512,-3.0506136417388916,-4.532872676849365, -2.3170790672302246
282,369749111,0.34341308,-0.1889145,-0.049958467,0.91863114,-2.9955639839172363,-2.026987314224243,8.996179580688477,-1.405842661857605,-3.660426378250122, -1.801878809928894
283,369765778,0.34357738,-0.18856677,-0.05000327,0.9186386,-2.9400486946105957,-2.0258731842041016,8.956694602966309,-0.6748946309089661,-2.2077250480651855, -1.1055208444595337
284,369782445,0.34369415,-0.18844466,-0.0498463,0.9186285,-2.939359664916992,-1.9902557134628296,8.92447280883789,-0.04450206458568573,-0.32615211606025696, -0.3750595450401306
285,369799112,0.34374657,-0.1885486,-0.049557623,0.91860324,-2.9382503032684326,-1.9995564222335815,9.007791519165039,0.14975105226039886,1.3994075059890747, 0.294155478477478
286,369815779,0.34377316,-0.18880856,-0.04917545,0.9185604,-3.0139636993408203,-2.0020861625671387,9.00250244140625,0.2879059910774231,2.5942914485931396, 0.7189677357673645
287,369832446,0.34373415,-0.18910637,-0.048670262,0.91854066,-3.072394371032715,-2.045186996459961,9.071209907531738,1.0003488063812256,3.1399309635162354, 1.0680558681488037
288,369849113,0.34374845,-0.18940975,-0.048117574,0.91850185,-3.148725986480713,-1.9964947700500488,9.173907279968262,1.246948003768921,3.25961971282959, 1.051804780960083
289,369865780,0.3437662,-0.18966347,-0.04764653,0.9184674,-3.158505439758301,-1.9301676750183105,9.228912353515625,0.8724133372306824,2.759211301803589, 0.8639483451843262
290,369882447,0.34377953,-0.18982022,-0.047385264,0.91844356,-3.221602439880371,-1.940297245979309,9.284607887268066,-0.16876207292079926,1.6728359460830688, 0.44317010045051575
291,369899114,0.3437972,-0.18982941,-0.04735741,0.91843647,-3.2000741958618164,-1.9807929992675781,9.388319969177246,-1.1787731647491455,0.23406805098056793, -0.2006370574235916
292,369915781,0.3438878,-0.18969645,-0.047633167,0.9184158,-3.250371217727661,-2.041592836380005,9.408422470092773,-2.7524046897888184,-1.3931642770767212, -0.9040642380714417
293,369932448,0.3440696,-0.18929434,-0.0480806,0.91840744,-3.2523086071014404,-2.053123712539673,9.38205623626709,-3.013474702835083,-3.447328567504883, -1.9413015842437744
294,369949115,0.34430897,-0.18875743,-0.04890684,0.91838455,-3.158688545227051,-1.8936560153961182,9.435161590576172,-5.019040107727051,-5.160639762878418, -2.8666250705718994
295,369965782,0.34449932,-0.18830514,-0.050420985,0.9183242,-3.18247389793396,-2.0475521087646484,9.29835033416748,-9.771889686584473,-6.3081159591674805, -3.141540050506592
296,369982449,0.34471855,-0.18782479,-0.052353285,0.91823214,-3.104400157928467,-1.918314814567566,9.486345291137695,-12.24378776550293,-7.379741191864014, -4.162668704986572
297,369999116,0.34458914,-0.18851034,-0.056343112,0.9179039,-3.1342318058013916,-1.8962008953094482,9.660894393920898,-28.59478187561035,-4.755908012390137, -4.592434883117676
298,370015783,0.3441441,-0.18973827,-0.06160137,0.91748005,-3.1386637687683105,-2.205153465270996,9.43879222869873,-38.25503158569336,-4.282773017883301, -4.510317802429199
299,370032450,0.3439885,-0.19005352,-0.06615457,0.9171561,-3.157776117324829,-2.520320415496826,9.1502685546875,-31.200267791748047,-8.360554695129395, -5.649978160858154
300,370049117,0.34445325,-0.18893363,-0.069296315,0.9169811,-3.1450753211975098,-2.6970479488372803,9.155400276184082,-18.178457260131836,-14.118081092834473, -7.541200637817383
301,370065784,0.34537452,-0.18652573,-0.07147347,0.9169604,-3.068758010864258,-2.6064319610595703,9.155930519104004,-8.33382511138916,-19.921262741088867, -9.504647254943848
302,370082451,0.34659085,-0.18319081,-0.07311015,0.9170448,-2.8887505531311035,-2.6213979721069336,9.154189109802246,-2.2288100719451904,-24.430301666259766, -11.042240142822266
303,370099118,0.348067,-0.17924403,-0.074715294,0.9171362,-2.7342188358306885,-2.5789506435394287,9.35787296295166,-0.2743128836154938,-28.135087966918945, -12.78638744354248
304,370115785,0.34973818,-0.17481092,-0.0767323,0.91718954,-2.700216293334961,-2.66446852684021,9.638331413269043,-1.492919683456421,-32.05550765991211, -14.807201385498047
305,370132452,0.35141262,-0.17027365,-0.07976879,0.9171442,-2.6261279582977295,-2.5774857997894287,9.738557815551758,-7.5028076171875,-34.845359802246094, -17.04686737060547
306,370149119,0.35356745,-0.16491836,-0.08295449,0.91701186,-2.469435453414917,-2.599111318588257,9.670897483825684,-5.952472686767578,-39.99616241455078, -20.910118103027344
307,370165786,0.35598388,-0.15830754,-0.085438274,0.9170139,-2.3108458518981934,-3.1725473403930664,9.21445369720459,1.8979887962341309,-46.20732116699219, -22.15016746520996
308,370182453,0.35888773,-0.1506663,-0.08745954,0.9169788,-1.9855985641479492,-2.3864219188690186,9.523523330688477,7.864989280700684,-51.24796676635742, -25.40515899658203
309,370199120,0.36196107,-0.14245564,-0.089411356,0.9168949,-1.7864960432052612,-2.5510618686676025,9.532275199890137,9.847158432006836,-54.51018142700195, -26.857248306274414
310,370215787,0.3651152,-0.13391103,-0.09151305,0.91672474,-1.604138970375061,-2.401561975479126,9.579571723937988,9.758394241333008,-56.849544525146484, -27.924625396728516
311,370232454,0.36831754,-0.1252543,-0.093966514,0.91641915,-1.3902044296264648,-2.332106828689575,9.616378784179688,7.776780128479004,-58.279319763183594, -28.954418182373047
312,370249121,0.37146854,-0.116610974,-0.09669603,0.9160039,-1.034727692604065,-2.533815383911133,9.73856258392334,5.881796836853027,-58.82722473144531, -29.128732681274414
313,370265788,0.37454575,-0.1084709,-0.10028419,0.91536486,-0.7962415218353271,-2.510474681854248,9.729543685913086,-1.0201562643051147,-57.709407806396484, -29.577728271484375
314,370282455,0.37748426,-0.10072402,-0.10454442,0.914566,-0.5609133839607239,-2.4660048484802246,9.791803359985352,-6.47714900970459,-56.929229736328125, -29.335947036743164
315,370299122,0.38034278,-0.093202434,-0.1094168,0.9136088,-0.4642239212989807,-2.5453834533691406,9.624034881591797,-11.083600997924805,-57.03538131713867, -29.49347686767578
316,370315789,0.3832632,-0.085493125,-0.11460913,0.91250485,-0.27755337953567505,-2.5656116008758545,9.717988014221191,-12.673380851745605,-58.90043258666992, -30.600934982299805
317,370332456,0.38630608,-0.077759415,-0.12011779,0.9112043,-0.1309097707271576,-2.6429147720336914,9.509669303894043,-14.678182601928711,-59.66441345214844, -32.08183670043945
318,370349123,0.3896558,-0.069265865,-0.124896444,0.9098196,0.18172875046730042,-2.891889810562134,9.251187324523926,-7.990295886993408,-62.17985153198242, -34.4525146484375
319,370365790,0.3933085,-0.05950724,-0.12836523,0.90845454,0.6773737668991089,-2.8836185932159424,9.270218849182129,3.7641501426696777,-66.32235717773438, -36.746639251708984
320,370382457,0.39699203,-0.048971638,-0.13154952,0.9070247,1.241241693496704,-2.7435054779052734,9.554513931274414,7.60749626159668,-70.33302307128906, -37.66868209838867
321,370399124,0.40070403,-0.037626605,-0.13437967,0.9055178,1.3027058839797974,-2.788256883621216,9.839685440063477,11.96890640258789,-74.33316802978516, -38.652435302734375
322,370415791,0.4044026,-0.025495354,-0.13637027,0.90399766,1.4386048316955566,-2.4753220081329346,9.675666809082031,19.349641799926758,-76.90015411376953, -39.099876403808594
323,370432458,0.40804732,-0.013000475,-0.13800614,0.9023763,1.8684873580932617,-2.0309059619903564,9.482606887817383,22.458904266357422,-78.18611907958984, -39.31085205078125
324,370449125,0.41166633,-0.00022320873,-0.1394039,0.90060955,2.180748462677002,-1.9315483570098877,9.437544822692871,24.57634925842285,-79.25560760498047, -39.789886474609375
325,370465792,0.41528946,0.012340022,-0.14105725,0.898602,2.4202427864074707,-1.9470535516738892,9.682183265686035,22.145214080810547,-78.62155151367188, -40.275848388671875
326,370482459,0.4187465,0.024662634,-0.14285547,0.8964572,2.502385377883911,-2.1643974781036377,9.619304656982422,20.433704376220703,-77.69524383544922, -39.38003921508789
327,370499126,0.4219738,0.036536805,-0.14491498,0.8942052,2.681757688522339,-1.8697359561920166,9.503552436828613,17.46429443359375,-75.90607452392578, -37.774681091308594
328,370515793,0.4248975,0.04732566,-0.14755401,0.89188033,3.1885526180267334,-1.6731882095336914,9.175819396972656,10.749283790588379,-71.21597290039062, -34.87886428833008
329,370532460,0.42737287,0.058111582,-0.14939386,0.88975114,3.5795466899871826,-2.450502395629883,9.178750038146973,15.977688789367676,-69.2252197265625, -31.799264907836914
330,370549127,0.42971593,0.06860237,-0.15173192,0.88747716,4.287001132965088,-2.065730571746826,9.769707679748535,11.982181549072266,-69.04381561279297, -30.901426315307617
331,370565794,0.43160713,0.077890314,-0.15566751,0.88510805,3.8868465423583984,-2.5688493251800537,9.970297813415527,-1.2031911611557007,-66.89791107177734, -26.400028228759766
332,370582461,0.43334308,0.0861767,-0.16074343,0.8825808,3.585005283355713,-1.5562316179275513,9.238259315490723,-11.184450149536133,-64.41487884521484, -24.23284339904785
333,370599128,0.43499112,0.09385183,-0.1663207,0.87995,3.3771567344665527,-1.6642487049102783,9.147480010986328,-16.117582321166992,-62.344512939453125, -23.02120018005371
334,370615795,0.43655026,0.10112221,-0.1719645,0.8772836,3.4405782222747803,-1.6043754816055298,9.218771934509277,-17.718103408813477,-60.216800689697266, -22.072355270385742
335,370632462,0.43813625,0.10780628,-0.17743424,0.8746038,3.2530405521392822,-1.694714903831482,8.880532264709473,-18.46913719177246,-56.13715744018555, -21.69131088256836
336,370649129,0.43997046,0.113819346,-0.18262579,0.8718481,3.286717176437378,-1.9471030235290527,8.401907920837402,-19.097524642944336,-51.02640914916992, -22.791662216186523
337,370665796,0.4420041,0.11969166,-0.18726906,0.8690435,3.3289191722869873,-2.169198989868164,8.524941444396973,-16.44914436340332,-48.319854736328125, -24.382612228393555
338,370682463,0.44407198,0.12539408,-0.19160618,0.8662353,3.2915523052215576,-2.148833751678467,8.2708158493042,-15.16030216217041,-46.345088958740234, -24.63077163696289
339,370699130,0.44607738,0.13116361,-0.19543181,0.86349154,3.060647964477539,-1.9957836866378784,8.343753814697266,-11.761351585388184,-45.22356033325195, -24.59186553955078
340,370715797,0.44810882,0.13687213,-0.19861357,0.86082363,3.1005256175994873,-1.8609696626663208,8.237298011779785,-8.043251991271973,-42.80669021606445, -25.014005661010742
341,370732464,0.45020348,0.1424844,-0.20104286,0.8582523,3.514477491378784,-1.950935959815979,8.491838455200195,-3.8127496242523193,-39.76567077636719, -25.6688289642334
342,370749131,0.45244485,0.14738272,-0.20326668,0.8557189,3.8993985652923584,-1.9928743839263916,8.508825302124023,-4.8998823165893555,-34.69618606567383, -25.63313865661621
343,370765798,0.45468128,0.15162905,-0.20560093,0.8532302,4.025998115539551,-2.161817789077759,8.826995849609375,-7.507623672485352,-31.178796768188477, -24.44291114807129
344,370782465,0.45680657,0.15543658,-0.20807612,0.85080636,3.7540009021759033,-2.122102975845337,8.832145690917969,-9.493523597717285,-29.15172576904297, -22.82408905029297
345,370799132,0.4586823,0.15909852,-0.21050715,0.84851927,3.430579900741577,-1.92719566822052,8.556330680847168,-9.226043701171875,-28.397966384887695, -20.779062271118164
346,370815799,0.46034038,0.16241233,-0.21303418,0.8463601,3.282348394393921,-1.7251083850860596,8.385737419128418,-10.459668159484863,-26.876258850097656, -18.502779006958008
347,370832466,0.46179098,0.16521631,-0.21554695,0.8443886,3.4227237701416016,-1.7492773532867432,8.292960166931152,-11.4864501953125,-23.99326515197754, -15.975399017333984
348,370849133,0.46301812,0.16772825,-0.2177265,0.8426605,3.83074688911438,-1.7920728921890259,8.319048881530762,-9.86661434173584,-21.325613021850586, -13.85597038269043
349,370865800,0.46401432,0.17014325,-0.21936338,0.8412026,4.289788246154785,-1.9424526691436768,8.577221870422363,-6.361400127410889,-19.093482971191406, -12.142325401306152
350,370882467,0.46482235,0.17239164,-0.22088209,0.8399003,4.3303093910217285,-2.099851131439209,8.892338752746582,-5.753889560699463,-17.871763229370117, -10.447476387023926
351,370899134,0.46566117,0.17416215,-0.22273865,0.83857894,3.788679361343384,-2.0028061866760254,8.782975196838379,-9.29506778717041,-16.18927574157715, -9.566498756408691
352,370915801,0.46648046,0.17566508,-0.22460258,0.837312,3.480403184890747,-1.9974383115768433,8.30331039428711,-10.087088584899902,-14.668039321899414, -8.868703842163086
353,370932468,0.46707729,0.1770992,-0.22625132,0.8362328,3.5793118476867676,-2.010140895843506,8.286727905273438,-8.50794506072998,-13.732993125915527, -7.1496901512146
354,370949135,0.4676375,0.17819174,-0.2279108,0.8352364,3.7890267372131348,-1.9410525560379028,8.524176597595215,-9.490628242492676,-11.791727066040039, -6.138716697692871
355,370965802,0.46798566,0.17928542,-0.2292829,0.8344313,3.4676120281219482,-2.140181303024292,8.746846199035645,-7.277584552764893,-11.003569602966309, -4.667008399963379
356,370982469,0.46804038,0.18069695,-0.22995596,0.83391076,3.150787353515625,-2.023483991622925,9.29400634765625,-1.4327110052108765,-10.73068904876709, -3.4436159133911133
357,370999136,0.4683052,0.18179919,-0.22976527,0.83357507,2.9014437198638916,-1.3298178911209106,9.162579536437988,2.5511980056762695,-5.67104959487915, -4.6506781578063965
358,371015803,0.46862093,0.18233262,-0.22917601,0.83344346,2.333003520965576,-1.6109414100646973,8.80483627319336,3.2438039779663086,-0.850264847278595, -3.8921701908111572
359,371032470,0.46868107,0.1830028,-0.22779031,0.83364254,1.7460367679595947,-2.217045545578003,8.977643013000488,9.079300880432129,0.8798540234565735, -2.5892653465270996
360,371049137,0.4687119,0.18366627,-0.22587098,0.8340013,1.5065878629684448,-2.5211870670318604,8.682486534118652,12.405488014221191,2.7146854400634766, -2.591033935546875
361,371065804,0.46841022,0.18399978,-0.2237314,0.8346737,2.1803174018859863,-3.2375895977020264,8.49673080444336,13.522510528564453,5.117722034454346, 0.5333144068717957
362,371082471,0.46751398,0.18370071,-0.2216077,0.83580786,2.7727155685424805,-3.430742025375366,9.134705543518066,12.883576393127441,8.305802345275879, 6.393363952636719
363,371099138,0.46618307,0.18230167,-0.21979183,0.83733565,2.834465265274048,-3.1525909900665283,9.856593132019043,8.754952430725098,13.417469024658203, 12.190710067749023
364,371115805,0.46477103,0.17915581,-0.21778004,0.839323,1.9664915800094604,-2.707430124282837,9.677459716796875,5.0969624519348145,24.494993209838867, 16.49671173095703
365,371132472,0.46324778,0.17410235,-0.21543472,0.84183025,1.1131408214569092,-2.9692881107330322,9.315895080566406,1.8484611511230469,36.96956253051758, 21.217933654785156
366,371149139,0.4613783,0.16755621,-0.21268779,0.84487814,0.7225534915924072,-3.2474613189697266,8.752673149108887,0.646503210067749,46.939884185791016, 26.639089584350586
367,371165806,0.4588431,0.16015932,-0.20922865,0.8485491,0.7292335033416748,-3.271883249282837,8.234554290771484,3.78291392326355,53.805118560791016, 32.86827087402344
368,371182473,0.45572376,0.15191673,-0.20433813,0.8529264,1.754634976387024,-3.387176990509033,8.454118728637695,11.14640998840332,63.12260055541992, 38.110107421875
369,371199140,0.45253256,0.14138094,-0.19992344,0.85747105,3.4431166648864746,-3.380668878555298,9.793927192687988,1.5023972988128662,75.10807037353516, 42.74531936645508
370,371215807,0.44906458,0.12714915,-0.19720498,0.8621395,5.129661560058594,-3.399840831756592,10.981366157531738,-19.544130325317383,91.34393310546875, 51.47104263305664
371,371232474,0.44534734,0.1081804,-0.19557929,0.867013,7.3846893310546875,-2.976668357849121,10.762907028198242,-40.14619827270508,115.9095687866211, 60.94465255737305
372,371249141,0.44064575,0.0856246,-0.19005224,0.87314373,10.091643333435059,-5.015198230743408,10.643969535827637,-25.453554153442383,148.93374633789062, 72.58892059326172
373,371265808,0.43377894,0.06122699,-0.1771582,0.881307,14.778136253356934,-6.825278282165527,12.471789360046387,17.168533325195312,180.83299255371094, 89.8401107788086
374,371282475,0.42482814,0.03634969,-0.1559222,0.8910039,14.6235933303833,-5.609918594360352,13.500020980834961,69.11407470703125,206.9883270263672, 104.17837524414062
375,371299142,0.41452405,0.008099172,-0.13087188,0.90054244,8.85312557220459,-2.3140292167663574,13.490535736083984,82.8504409790039,237.5826416015625, 114.74589538574219
376,371315809,0.4048065,-0.024282448,-0.10170922,0.90840375,2.373985767364502,-3.753897190093994,15.133334159851074,94.98616790771484,275.50018310546875, 109.86763000488281
377,371332476,0.3973252,-0.05368313,-0.06832484,0.9135551,3.789043426513672,-0.7212016582489014,13.892231941223145,128.14913940429688,270.67401123046875, 86.97303771972656
378,371349143,0.3940169,-0.072824165,-0.03541992,0.91552866,11.629634857177734,5.763553142547607,-1.6287617683410645,153.1658172607422,208.1064453125, 47.071136474609375
379,371365810,0.3932527,-0.081504464,-0.011526394,0.9157383,14.050909042358398,12.861654281616211,-7.804214000701904,125.4864501953125,119.58560180664062, 19.210182189941406
380,371382477,0.38983256,-0.10145238,-0.024163911,0.9149614,-0.10742052644491196,10.517658233642578,7.525095462799072,-136.8263702392578,92.40169525146484, 13.657313346862793
381,371399144,0.38542888,-0.12231052,-0.038787298,0.91377264,-5.9470696449279785,-10.824800491333008,11.332926750183105,-152.75343322753906,92.95941925048828, 17.46674156188965
382,371415811,0.3820885,-0.13645008,-0.03780633,0.9132146,-2.776519775390625,-4.1195783615112305,11.634366989135742,-35.630496978759766,91.7501220703125, 23.828630447387695
383,371432478,0.37850645,-0.14907107,-0.03243359,0.91293967,-1.5711238384246826,-1.421622395515442,8.860955238342285,-4.165009498596191,93.41305541992188, 29.8201961517334
384,371449145,0.37431592,-0.16024166,-0.025794238,0.912987,-4.702788829803467,-3.307420253753662,9.310684204101562,7.015416622161865,87.14947509765625, 35.44409942626953
385,371465812,0.37053943,-0.16833381,-0.018925022,0.9132393,-6.9444780349731445,-3.6953883171081543,8.03646183013916,16.91686248779297,68.2123794555664, 33.07345199584961
386,371482479,0.36776602,-0.17423655,-0.014856309,0.91332865,-6.164643287658691,-0.5362936854362488,6.920440673828125,6.103649616241455,47.5462532043457, 22.826858520507812
387,371499146,0.36573258,-0.1792541,-0.01571386,0.91315985,-6.710981369018555,0.394081711769104,6.764359951019287,-21.740570068359375,29.82840347290039, 11.513628005981445
388,371515813,0.36476076,-0.18278192,-0.018500151,0.912797,-7.990135669708252,-0.2770969271659851,8.371731758117676,-28.84394073486328,15.882580757141113, 1.7934273481369019
389,371532480,0.36438245,-0.18647042,-0.023250792,0.91209304,-8.063940048217773,-0.8216410875320435,8.119516372680664,-40.893707275390625,12.359187126159668, -5.263200283050537
390,371549147,0.3637007,-0.19110249,-0.029169885,0.91123587,-7.452087879180908,-1.2484476566314697,7.341361045837402,-51.009552001953125,15.387208938598633, -5.118199348449707
391,371565814,0.36265197,-0.19562781,-0.03556534,0.9104661,-7.446733474731445,-2.2574687004089355,6.579444885253906,-54.192806243896484,13.239561080932617, -3.2720587253570557
392,371582481,0.36186734,-0.19820228,-0.03960432,0.9100548,-7.776285648345947,-3.134035348892212,6.092938423156738,-34.114990234375,6.3828582763671875, -1.3567488193511963
393,371599148,0.36189437,-0.19793215,-0.04012165,0.9100801,-7.250436782836914,-2.3569347858428955,5.714988708496094,-3.7420156002044678,-3.139592170715332, -1.338366150856018
394,371615815,0.36301517,-0.19496235,-0.038683616,0.9103369,-6.835374355316162,-0.6760165691375732,5.251593589782715,16.783824920654297,-15.2833833694458, -5.704036235809326
395,371632482,0.36530098,-0.18930988,-0.03618226,0.9107183,-6.47716760635376,-0.03869972378015518,5.003335952758789,31.720355987548828,-29.37550926208496, -11.9942045211792
396,371649149,0.3686716,-0.18115833,-0.03394829,0.9111041,-5.933273792266846,0.5268341302871704,4.8938775062561035,37.71683120727539,-45.52515411376953, -19.765422821044922
397,371665816,0.37275106,-0.17071994,-0.033024427,0.9114938,-4.970192909240723,0.4821057915687561,4.982497215270996,36.16238784790039,-63.09672927856445, -26.377832412719727
398,371682483,0.3772376,-0.1577009,-0.033155456,0.9119886,-3.7286338806152344,-0.33804720640182495,5.368656635284424,36.640708923339844,-82.07215881347656, -30.490493774414062
399,371699150,0.38184154,-0.14060715,-0.035210278,0.91279083,-1.4299582242965698,0.10177706182003021,5.638210296630859,35.33297348022461,-112.9637680053711, -33.437442779541016
400,371715817,0.38609067,-0.120012574,-0.04041308,0.91372746,0.7682271003723145,0.20699582993984222,5.5636091232299805,24.436433792114258,-143.41668701171875, -34.73100662231445
401,371732484,0.38994882,-0.09977715,-0.051224746,0.9139808,-0.4309859871864319,-1.4150111675262451,10.4337158203125,-12.290104866027832,-155.55239868164062, -38.592620849609375
402,371749151,0.39364487,-0.07724552,-0.06145004,0.91394794,-0.7016774415969849,-6.099147319793701,12.9793119430542,-2.666011333465576,-168.24253845214844, -38.72260665893555
403,371765818,0.39763707,-0.047980912,-0.06660294,0.9138637,-0.37144964933395386,-5.3097381591796875,6.2109527587890625,47.65232849121094,-196.6636199951172, -40.83550262451172
404,371782485,0.41639826,-0.008597102,-0.0753525,0.9060135,21.416074752807617,28.013370513916016,-11.106233596801758,54.14511489868164,-260.8145446777344, -160.69534301757812
405,371799152,0.42144927,0.01074317,-0.11967447,0.89885664,11.787230491638184,-21.067354202270508,28.76341438293457,-225.89915466308594,-244.51287841796875, -64.87849426269531
406,371815819,0.42894006,0.058299154,-0.10688727,0.8950904,9.181025505065918,-0.9491774439811707,21.85405731201172,211.9115753173828,-250.9758758544922, -97.53022766113281
407,371832486,0.43684846,0.07960884,-0.13101423,0.8863753,17.801755905151367,-3.8832547664642334,16.100339889526367,-96.62325286865234,-199.82501220703125, -80.52590942382812
408,371849153,0.44161016,0.10529166,-0.14217886,0.8795905,23.83816146850586,-5.433701515197754,20.911819458007812,-0.9762510061264038,-189.04150390625, -66.50721740722656
409,371865820,0.44629744,0.11548515,-0.17083648,0.8708024,24.364778518676758,-2.320878744125366,16.7047176361084,-155.67637634277344,-149.6770782470703, -44.24680709838867
410,371882487,0.45141807,0.123337656,-0.19528791,0.8619004,10.94243335723877,-4.487791538238525,9.531242370605469,-138.14820861816406,-122.00316619873047, -47.64590835571289
411,371899154,0.45691937,0.13701162,-0.21076505,0.8532474,2.245622158050537,-2.8564512729644775,3.784071445465088,-66.83030700683594,-127.82024383544922, -64.4992446899414
412,371915821,0.45969927,0.14958742,-0.22058631,0.8471374,-2.5267672538757324,-3.9174084663391113,2.9684343338012695,-30.81154441833496,-105.16656494140625, -44.270591735839844
413,371932488,0.4606992,0.16071627,-0.22944008,0.8421899,-6.350917339324951,-3.509901762008667,5.507885456085205,-26.098264694213867,-95.27334594726562, -29.06623649597168
414,371949155,0.460741,0.17025028,-0.23766464,0.8380025,-6.462190628051758,-2.176806926727295,4.172129154205322,-25.211872100830078,-84.89288330078125, -19.348787307739258
415,371965822,0.46086997,0.17935419,-0.24326567,0.83441776,-3.8758580684661865,-1.9875671863555908,6.936186790466309,-10.556788444519043,-73.41703033447266, -20.3614444732666
416,371982489,0.46117732,0.18908085,-0.24419375,0.8318254,-0.6381109952926636,-1.269129753112793,10.539177894592285,19.66544532775879,-60.80284881591797, -25.086698532104492
417,371999156,0.46204242,0.19844015,-0.24195632,0.82981664,1.1382944583892822,-0.10231997817754745,11.659751892089844,36.831031799316406,-47.09502029418945, -29.94677734375
418,372015823,0.46312386,0.20624882,-0.23808345,0.82842857,3.3814878463745117,-1.7221975326538086,11.494813919067383,41.92416763305664,-31.955381393432617, -28.863365173339844
419,372032490,0.4640483,0.2124186,-0.23459978,0.8273454,4.652143955230713,-3.591935396194458,11.159008979797363,35.19158172607422,-23.75849723815918, -23.773174285888672
420,372049157,0.46477586,0.2164044,-0.2328404,0.82640064,4.979150295257568,-3.961158514022827,10.409168243408203,18.941246032714844,-17.00499153137207, -16.194883346557617
421,372065824,0.46527323,0.21851538,-0.23256315,0.82564294,3.0026369094848633,-3.6276049613952637,9.806344985961914,5.196763038635254,-11.219408988952637, -9.110713005065918
422,372082491,0.46513343,0.21953149,-0.2323578,0.82551,0.7002668976783752,-3.6090052127838135,9.320520401000977,3.2646403312683105,-5.379923343658447, -1.6687830686569214
423,372099158,0.4645227,0.22001925,-0.231732,0.82589996,-0.11038043349981308,-2.6372594833374023,9.092172622680664,5.530275821685791,-1.0946357250213623, 2.84578275680542
424,372115825,0.4636944,0.21980806,-0.23053648,0.8267559,0.28170323371887207,-2.7378716468811035,9.150599479675293,7.612078666687012,4.949432373046875, 5.788402557373047
425,372132492,0.4626337,0.21903977,-0.22849354,0.82811975,1.4400503635406494,-2.539400100708008,9.450929641723633,11.818257331848145,11.121284484863281, 8.299952507019043
426,372149159,0.46158868,0.21743184,-0.2258697,0.8298447,1.9614498615264893,-2.035479784011841,10.123291015625,13.003753662109375,18.238731384277344, 9.77923583984375
427,372165826,0.46080717,0.21434784,-0.22340022,0.8317477,1.855333685874939,-1.896079182624817,10.83012866973877,7.3162970542907715,26.769739151000977, 11.346416473388672
428,372182493,0.4598318,0.20968552,-0.22036126,0.83428276,2.086381673812866,-1.8784922361373901,10.525479316711426,6.819391250610352,38.150779724121094, 16.025880813598633
429,372199160,0.45831352,0.20354274,-0.21588653,0.8378021,1.7848398685455322,-2.7814078330993652,9.822826385498047,12.639214515686035,51.70616912841797, 22.409778594970703
430,372215827,0.45611823,0.19580866,-0.21049698,0.8422032,1.984291434288025,-3.2710483074188232,9.373159408569336,15.156394958496094,63.91762161254883, 30.14597511291504
431,372232494,0.45350045,0.18669051,-0.20378435,0.8473229,1.3547906875610352,-3.8347856998443604,8.625786781311035,20.100242614746094,76.38280487060547, 35.04197311401367
432,372249161,0.4509765,0.17519033,-0.19726104,0.8526528,1.112715721130371,-3.6848268508911133,8.691766738891602,11.769561767578125,90.01738739013672, 38.70057678222656
433,372265828,0.44857743,0.16083874,-0.19262387,0.8577909,3.091909646987915,-3.692349672317505,8.97540283203125,-8.517443656921387,100.77098083496094, 43.48153305053711
434,372282495,0.4460467,0.14274187,-0.19040638,0.8627935,5.495267391204834,-3.3735032081604004,10.630182266235352,-34.3524284362793,115.05702209472656, 51.449195861816406
435,372299162,0.4422077,0.12021142,-0.18816708,0.8686742,9.758342742919922,-4.010547637939453,9.421443939208984,-45.378631591796875,140.5951385498047, 67.67167663574219
436,372315829,0.43655026,0.09442038,-0.17835625,0.87675416,12.867504119873047,-6.335125923156738,11.083229064941406,-5.695677757263184,182.6691436767578, 83.1897964477539
437,372332496,0.42774013,0.066960536,-0.15759672,0.88753486,16.536251068115234,-6.301870346069336,11.56679916381836,60.72376251220703,223.65130615234375, 105.27516174316406
438,372349163,0.4162743,0.03574092,-0.12871933,0.8993719,14.746983528137207,-4.992441654205322,17.159833908081055,101.65079498291016,268.3385314941406, 124.99736785888672
439,372365830,0.4035425,0.0010599031,-0.091955654,0.91032785,5.766829013824463,-6.382904052734375,17.275909423828125,140.09336853027344,311.2187194824219, 131.50198364257812
440,372382497,0.39370906,-0.03483489,-0.05086041,0.9171657,0.5388075113296509,-4.44164514541626,16.370256423950195,161.2826385498047,332.7197265625, 102.68670654296875
441,372399164,0.38967708,-0.06404755,-0.010273632,0.9186644,15.897550582885742,5.96131706237793,0.871159553527832,175.70921325683594,292.46209716796875, 49.17880630493164
442,372415831,0.38775495,-0.09967421,-0.010158693,0.9163014,22.654830932617188,28.088747024536133,-5.682511329650879,-96.64026641845703,226.607666015625, 8.147076606750488
443,372432498,0.37491864,-0.14288832,-0.03534842,0.91529757,4.82985258102417,-1.1920945644378662,3.6531858444213867,-284.2349853515625,205.69717407226562, 63.72226333618164
444,372449165,0.3671759,-0.1640667,-0.029536633,0.91509116,-1.0457472801208496,-9.666646003723145,8.140005111694336,-26.993345260620117,147.41111755371094, 58.83396530151367
445,372465832,0.36054656,-0.17825405,-0.02382899,0.9152398,0.224869042634964,2.8114049434661865,4.350805759429932,-8.52454948425293,102.9930419921875, 51.2231330871582
446,372482499,0.35444373,-0.19246171,-0.028591175,0.9146096,-2.619168519973755,-0.21085795760154724,4.386824607849121,-73.99142456054688,78.22996520996094, 33.13863754272461
447,372499166,0.35034698,-0.20298046,-0.0333449,0.913753,-7.445237159729004,-1.6988639831542969,6.596892356872559,-62.34127426147461,55.7210578918457, 19.25800323486328
448,372515833,0.34902295,-0.2075007,-0.034568105,0.9131986,-7.203296184539795,0.4900394678115845,6.493343353271484,-21.764461517333984,26.66474723815918, 6.104218006134033
449,372532500,0.35020566,-0.20716093,-0.03442842,0.91282815,-7.529788017272949,2.192976951599121,7.076536655426025,2.0452706813812256,-0.32689499855041504, -8.433420181274414
450,372549167,0.3522008,-0.20538294,-0.037304163,0.91234905,-8.498628616333008,0.4899471402168274,7.987229347229004,-12.344635009765625,-16.348691940307617, -18.468952178955078
451,372565834,0.35418385,-0.20345719,-0.042307,0.9117945,-9.3076171875,-1.8695831298828125,8.576458930969238,-25.402563095092773,-22.4153995513916, -21.648324966430664
452,372582501,0.35686606,-0.20052606,-0.046259932,0.91120577,-9.351032257080078,-3.2952826023101807,8.715437889099121,-15.407185554504395,-26.01236343383789, -24.958993911743164
453,372599168,0.36014175,-0.19623506,-0.046945997,0.9108162,-8.575199127197266,-3.527557611465454,9.611299514770508,9.296014785766602,-26.704418182373047, -24.13336181640625
454,372615835,0.3627872,-0.19221276,-0.044729102,0.9107356,-8.879576683044434,-3.769608974456787,10.333237648010254,26.078140258789062,-18.53929901123047, -15.431490898132324
455,372632502,0.36473265,-0.18995973,-0.0421746,0.910553,-8.788345336914062,-2.8802664279937744,10.338666915893555,22.843576431274414,-6.785369396209717, -10.325745582580566
456,372649169,0.3660497,-0.18940869,-0.04042863,0.9102185,-8.479738235473633,-2.83966326713562,9.434144973754883,12.65806770324707,1.7741225957870483, -7.35251522064209
457,372665836,0.36736974,-0.18926103,-0.03913391,0.9097739,-8.228683471679688,-2.289827823638916,8.168769836425781,8.80479907989502,3.2237632274627686, -8.139463424682617
458,372682503,0.3688965,-0.18851443,-0.03806796,0.9093562,-7.490893363952637,-2.055844306945801,6.757052898406982,9.1719331741333,-1.1645336151123047, -9.84113597869873
459,372699170,0.37074584,-0.18618844,-0.03657594,0.9091445,-6.686996936798096,-2.2118711471557617,5.591007709503174,16.32431411743164,-10.221341133117676, -11.210492134094238
460,372715837,0.3730913,-0.18176457,-0.034486875,0.909162,-6.2775139808654785,-2.203263998031616,5.545423984527588,26.113943099975586,-22.054931640625, -13.499839782714844
461,372732504,0.37601534,-0.17493103,-0.03169393,0.90939933,-5.749328136444092,-2.1567182540893555,5.545390605926514,37.48772048950195,-35.51778030395508, -16.246891021728516
462,372749171,0.379554,-0.16542223,-0.028392369,0.90981764,-5.263627529144287,-1.639559268951416,6.210761547088623,48.380882263183594,-51.0750732421875, -19.591495513916016
463,372765838,0.38333037,-0.15326992,-0.026202245,0.91042835,-4.241485118865967,-0.918441891670227,6.483776092529297,48.64369583129883,-70.73611450195312, -22.352872848510742
464,372782505,0.3868824,-0.1392364,-0.02644336,0.9111729,-3.1109862327575684,-0.668837308883667,7.138732433319092,38.168609619140625,-89.13750457763672, -23.489871978759766
465,372799172,0.38954148,-0.123240806,-0.029238453,0.912258,-2.1441867351531982,-1.0667154788970947,8.858043670654297,26.587404251098633,-108.72954559326172, -19.783292770385742
466,372815839,0.3918265,-0.103881545,-0.034569293,0.9135018,-0.49984997510910034,-1.9174553155899048,7.457544803619385,19.40160369873047,-136.8303985595703, -19.8232364654541
467,372832506,0.39537904,-0.08258848,-0.043922216,0.91374266,-0.8847619891166687,0.4961186945438385,11.58310317993164,0.028964247554540634,-158.78062438964844, -33.80244827270508
468,372849173,0.39892063,-0.06362155,-0.06335894,0.91257906,-0.02790132164955139,-1.260774850845337,13.952747344970703,-70.11495971679688,-170.77403259277344, -42.569950103759766
469,372865840,0.4030465,-0.04399552,-0.08467965,0.9101908,1.356480598449707,-2.556337833404541,7.290865898132324,-80.41905975341797,-179.26564025878906, -50.702091217041016
470,372882507,0.423364,0.002808299,-0.09552889,0.90090483,23.904483795166016,30.20538330078125,-37.4195671081543,61.377769470214844,-308.9050598144531, -183.8544921875
471,372899174,0.42868704,0.029409409,-0.13536917,0.8927697,28.510576248168945,-25.477659225463867,42.053749084472656,-176.39443969726562,-277.5606994628906, -73.57093811035156
472,372915841,0.43544477,0.07945316,-0.12922364,0.8873424,8.287124633789062,-1.6664948463439941,23.18118667602539,177.62014770507812,-283.6956787109375, -105.4789047241211
473,372932508,0.44156885,0.10274378,-0.15668967,0.87744474,24.997234344482422,-6.892251968383789,19.181354522705078,-111.29457092285156,-224.00180053710938, -72.79338073730469
474,372949175,0.44583115,0.12154715,-0.18061677,0.8682388,27.691635131835938,3.1178150177001953,22.52896499633789,-101.43649291992188,-187.4093017578125, -57.05002975463867
475,372965842,0.4518567,0.12498237,-0.21392666,0.8569949,18.74777603149414,-6.6769256591796875,14.767115592956543,-208.68067932128906,-123.68397521972656, -46.734107971191406
476,372982509,0.45776144,0.13922171,-0.22994567,0.847465,5.70573616027832,-3.0851848125457764,4.743481159210205,-70.52526092529297,-132.1748809814453, -71.3726806640625
477,372999176,0.4609919,0.15187624,-0.23916426,0.84096426,-2.9229414463043213,-4.0282182693481445,1.0917624235153198,-28.50925064086914,-102.83258056640625, -50.23725128173828
478,373015843,0.46181932,0.16332626,-0.2461169,0.83634555,-5.370524883270264,-4.5080084800720215,1.2888562679290771,-13.569864273071289,-90.73125457763672, -30.801246643066406
479,373032510,0.46105802,0.17398171,-0.25322917,0.83248466,-5.685085296630859,-4.693843364715576,4.361382007598877,-13.888689041137695,-88.59695434570312, -17.793333053588867
480,373049177,0.4600568,0.18296514,-0.26097906,0.82871073,-5.882082462310791,-3.8784189224243164,4.5177998542785645,-22.356760025024414,-81.47850036621094, -12.533616065979004
481,373065844,0.459316,0.19123036,-0.26838094,0.8248828,-5.234411716461182,-2.1687700748443604,5.990026950836182,-23.039392471313477,-76.00503540039062, -13.394645690917969
482,373082511,0.45948377,0.1992268,-0.2741087,0.8210042,-2.891732692718506,-1.4609136581420898,10.938397407531738,-15.67895221710205,-67.70518493652344, -20.452787399291992
483,373099178,0.46069804,0.20869562,-0.27398473,0.8180074,-0.17706754803657532,0.9986296892166138,12.11355209350586,22.20627212524414,-54.485084533691406, -34.389774322509766
484,373115845,0.46268296,0.21754912,-0.2700549,0.8158845,2.611982583999634,-1.2576675415039062,12.086718559265137,42.14647674560547,-36.376773834228516, -40.24717330932617
485,373132512,0.46425444,0.2257779,-0.26360926,0.8148635,5.534989356994629,-5.099804401397705,10.84722900390625,56.90848922729492,-24.069067001342773, -37.02683639526367
486,373149179,0.46468687,0.2320502,-0.25891843,0.8143588,6.161703109741211,-6.846810340881348,9.533059120178223,43.556636810302734,-20.008440017700195, -22.757951736450195
487,373165846,0.46432886,0.23557894,-0.25778702,0.8139087,4.796393871307373,-5.863494873046875,9.609147071838379,16.265655517578125,-17.35704803466797, -7.644164085388184
488,373182513,0.46392652,0.23636538,-0.2591454,0.8134786,2.2740886211395264,-3.75221586227417,10.49478816986084,-6.278982639312744,-10.041707992553711, 1.517034649848938
489,373199180,0.4634688,0.23601422,-0.2594377,0.81374824,0.5011317729949951,-2.147855520248413,10.70333194732666,-2.5996510982513428,0.6867854595184326, 4.322457313537598
490,373215847,0.46330294,0.23491272,-0.25787872,0.81465656,0.19037632644176483,-2.0775530338287354,9.773214340209961,6.023387908935547,12.247150421142578, 3.0399930477142334
491,373232514,0.463052,0.23327616,-0.25455314,0.81631374,0.6918572783470154,-3.5288522243499756,8.895484924316406,15.671061515808105,21.84276580810547, 3.9786291122436523
492,373249181,0.46282855,0.23043834,-0.25128275,0.8182573,1.3458528518676758,-3.3260393142700195,9.488263130187988,12.004362106323242,28.84441566467285, 6.895033836364746
493,373265848,0.46296045,0.2259045,-0.24811041,0.8204121,2.1400468349456787,-2.417823314666748,9.773822784423828,5.865142345428467,38.95511245727539, 8.627321243286133
494,373282515,0.4630016,0.21936937,-0.24436812,0.8232805,2.598515748977661,-2.961383104324341,10.059147834777832,4.065220832824707,52.95246124267578, 13.923474311828613
495,373299182,0.46259055,0.2105522,-0.23960032,0.8272059,2.974207878112793,-2.771878719329834,9.775182723999023,5.064988136291504,69.915771484375, 22.115739822387695
496,373315849,0.46170032,0.19880149,-0.23397888,0.8322048,3.035648822784424,-3.474658727645874,9.088699340820312,3.051844358444214,90.03766632080078, 31.83716583251953
497,373332516,0.45993477,0.1847353,-0.22826202,0.83799136,3.2083580493927,-4.189416885375977,8.362832069396973,-1.2803069353103638,103.22653198242188, 42.91946792602539
498,373349183,0.4569727,0.16925514,-0.2218234,0.8445847,4.634346008300781,-4.627811908721924,8.12663459777832,1.2106698751449585,112.78346252441406, 53.64202880859375
499,373365850,0.45365593,0.15065427,-0.21661581,0.8512211,6.423155307769775,-4.153445720672607,9.322517395019531,-15.242388725280762,126.55250549316406, 62.00642395019531
500,373382517,0.4491555,0.12995753,-0.211528,0.8582696,9.127771377563477,-4.128724575042725,9.434653282165527,-20.626567840576172,137.13482666015625, 73.45520782470703
501,373399184,0.44316202,0.107986584,-0.20208868,0.8666641,13.22204875946045,-6.004299163818359,11.64327621459961,4.424725532531738,157.18988037109375, 84.39582061767578
502,373415851,0.43562642,0.085870266,-0.18318072,0.87709796,16.55706024169922,-5.348618030548096,12.209226608276367,64.42210388183594,186.3978729248047, 92.99452209472656
503,373432518,0.42547244,0.059597358,-0.1585802,0.88897353,13.854607582092285,-4.8137712478637695,16.212724685668945,89.70111083984375,226.24935913085938, 115.03422546386719
504,373449185,0.41280404,0.02995542,-0.12748843,0.9013558,7.654869556427002,-5.1551337242126465,16.93008804321289,121.13406372070312,263.45123291015625, 132.95706176757812
505,373465852,0.40124446,-0.003818801,-0.09020558,0.91151065,-0.6966956257820129,-3.5182673931121826,17.4139404296875,145.63357543945312,307.2440185546875, 122.13618469238281
506,373482519,0.39381048,-0.03407039,-0.04995882,0.9172005,12.749213218688965,0.1398603916168213,7.596887111663818,171.2734375,295.9673156738281, 81.84042358398438
507,373499186,0.3931898,-0.060719572,-0.025820315,0.917087,17.472097396850586,18.867462158203125,-5.035803318023682,78.97835540771484,233.4328155517578, 18.157489776611328
508,373515853,0.38767126,-0.1026476,-0.043540794,0.91502947,9.08875846862793,17.621049880981445,3.5014383792877197,-228.998291015625,216.82313537597656, 29.071002960205078
509,373532520,0.37973362,-0.13975587,-0.055713207,0.9127797,-1.3391003608703613,-12.560894966125488,6.393554210662842,-183.2285919189453,200.80905151367188, 46.27164077758789
510,373549187,0.37341672,-0.16417626,-0.05094919,0.91159785,3.599029541015625,-0.16122029721736908,5.548542499542236,-41.64464569091797,164.9568634033203, 50.3046989440918
511,373565854,0.36635557,-0.18568908,-0.05452804,0.9101263,1.0268210172653198,2.4092960357666016,3.6184258460998535,-87.42278289794922,125.43718719482422, 43.80105972290039
512,373582521,0.36002347,-0.20196535,-0.059530348,0.90887266,-4.820755481719971,-3.3287065029144287,3.928420066833496,-82.1633071899414,89.09754180908203, 36.008331298828125
513,373599188,0.35624593,-0.21223731,-0.061647203,0.9078788,-5.709921836853027,-0.7539101243019104,3.8531763553619385,-45.57929992675781,59.353424072265625, 22.231115341186523
514,373615855,0.35442317,-0.21881294,-0.06310307,0.9069307,-6.342859745025635,-0.3454093039035797,4.342668533325195,-29.529342651367188,38.60353469848633, 9.520431518554688
515,373632522,0.35465193,-0.22069539,-0.061457977,0.90649813,-7.660591125488281,-1.6518659591674805,5.226669788360596,4.542718410491943,16.948984146118164, 0.5902900695800781
516,373649189,0.3560056,-0.219654,-0.05960224,0.9063442,-8.0996732711792,-0.508141040802002,6.202253818511963,14.811996459960938,-0.7792158126831055, -6.681129455566406
517,373665856,0.3571227,-0.2184922,-0.06182934,0.9060364,-8.980931282043457,-1.960433840751648,6.640784740447998,-10.771794319152832,-11.45976448059082, -11.824374198913574
518,373682523,0.35869956,-0.21638021,-0.06568428,0.9056489,-9.1410493850708,-3.5461535453796387,7.084433078765869,-17.921283721923828,-21.140789031982422, -17.75689125061035
519,373699190,0.3608463,-0.21292147,-0.06818245,0.9054313,-8.915854454040527,-4.442594051361084,8.16359806060791,-5.208042144775391,-26.25528335571289, -19.495206832885742
520,373715857,0.36287436,-0.20905618,-0.068120256,0.905526,-8.326817512512207,-4.583695411682129,8.642202377319336,11.73830509185791,-23.018741607666016, -14.43903923034668
521,373732524,0.3644839,-0.20551012,-0.06565655,0.9058734,-8.145686149597168,-4.570751190185547,8.675480842590332,25.436281204223633,-15.661105155944824, -7.615078926086426
522,373749191,0.3658632,-0.20195262,-0.061043136,0.9064398,-7.5355987548828125,-3.2669906616210938,8.389457702636719,38.653682708740234,-10.818775177001953, -2.611792802810669
523,373765858,0.36719704,-0.19780424,-0.055572174,0.9071669,-7.010766983032227,-2.5483131408691406,7.53258752822876,45.500389099121094,-12.641195297241211, -0.9926151037216187
524,373782525,0.36891073,-0.19209926,-0.049140934,0.9080683,-6.781694412231445,-2.464099645614624,6.79978609085083,56.009735107421875,-20.070158004760742, -2.2198290824890137
525,373799192,0.37140366,-0.18416063,-0.04192531,0.90905815,-6.8129119873046875,-2.322349786758423,6.660480499267578,67.64163970947266,-31.93404769897461, -6.584770679473877
526,373815859,0.3747912,-0.17363133,-0.03526968,0.9100219,-6.072446823120117,-1.336776614189148,6.970714092254639,71.89292907714844,-49.321754455566406, -13.701605796813965
527,373832526,0.37863997,-0.16086756,-0.031760976,0.9109032,-4.997463703155518,-0.3594338297843933,6.955435276031494,58.490135192871094,-71.24901580810547, -21.09853744506836
528,373849193,0.38224247,-0.1457888,-0.03176799,0.911936,-2.869044303894043,-0.313098669052124,6.7396650314331055,42.24689865112305,-95.15817260742188, -23.55331802368164
529,373865860,0.38561046,-0.12702303,-0.034769982,0.9132147,-0.7693147659301758,-0.3697371184825897,8.65156078338623,32.96604919433594,-126.45996856689453, -25.234615325927734
530,373882527,0.38909,-0.1049781,-0.041221716,0.91427,0.06023357808589935,-1.262150764465332,9.88428020477295,20.030397415161133,-155.96209716796875, -30.30909538269043
531,373899194,0.39311355,-0.08265271,-0.051807843,0.91430104,-0.6504589319229126,-1.7208482027053833,16.028911590576172,-5.110064506530762,-167.8693389892578, -39.51634216308594
532,373915861,0.39738724,-0.06357991,-0.069810845,0.9127802,-0.5149309039115906,-3.5614492893218994,18.315587997436523,-60.949249267578125,-166.47921752929688, -48.328819274902344
533,373932528,0.40111154,-0.05029135,-0.09146659,0.9100628,0.727794885635376,-5.162004470825195,19.052658081054688,-100.48487854003906,-139.87991333007812, -46.96650695800781
534,373949195,0.4088144,-0.029278543,-0.10435156,0.9061592,6.136185169219971,9.376886367797852,-21.17180824279785,-23.641555786132812,-161.0926971435547, -76.95723724365234
535,373965862,0.4252206,0.011912058,-0.11661396,0.89746696,35.47455596923828,14.051617622375488,-13.559907913208008,35.23517990112305,-277.8565673828125, -158.99176025390625
536,373982529,0.42543754,0.057617113,-0.12758043,0.89409524,11.499252319335938,-24.81903648376465,41.936378479003906,61.913734436035156,-314.0374755859375, -47.04996109008789
537,373999196,0.43303603,0.09800612,-0.1386121,0.88524663,5.024197101593018,9.08898639678955,15.277216911315918,38.431453704833984,-277.1604919433594, -103.83258056640625
538,374015863,0.43691546,0.12286153,-0.15823215,0.8769108,17.402080535888672,-9.677278518676758,12.865151405334473,-57.24150085449219,-211.33624267578125, -58.96649169921875
539,374032530,0.44084418,0.14751737,-0.1701532,0.86887455,22.33892822265625,4.18721342086792,16.906787872314453,-11.038661003112793,-186.53909301757812, -64.6572494506836
540,374049197,0.44407067,0.16316909,-0.1858074,0.8611927,17.627958297729492,-5.726895332336426,12.520340919494629,-59.574134826660156,-144.35069274902344, -44.9603385925293
541,374065864,0.4468857,0.16686894,-0.20529467,0.8545772,12.494219779968262,-5.012781620025635,8.508136749267578,-116.89642333984375,-84.49187469482422, -19.676414489746094
542,374082531,0.4494813,0.17520715,-0.22331536,0.84699434,5.497557640075684,-5.1323065757751465,8.765640258789062,-95.10247802734375,-108.58821868896484, -29.573251724243164
543,374099198,0.45260313,0.18584447,-0.23711726,0.8392781,0.46329569816589355,-3.0698044300079346,6.8478779792785645,-64.23323059082031,-108.29821014404297, -41.66957473754883
544,374115865,0.45484394,0.19319329,-0.2485476,0.8330771,-5.212470054626465,-2.846036195755005,4.3996429443359375,-57.17096710205078,-81.49003601074219, -29.548572540283203
545,374132532,0.45545155,0.19916052,-0.25720814,0.82869965,-7.278468132019043,-2.90315842628479,3.0745487213134766,-40.32533264160156,-65.37307739257812, -15.840593338012695
546,374149199,0.45557976,0.20559187,-0.26249278,0.825395,-6.868808269500732,-2.961625576019287,5.126036643981934,-17.065584182739258,-56.92326354980469, -15.237003326416016
547,374165866,0.4559617,0.21327764,-0.26465005,0.8225399,-4.222352504730225,-2.437845468521118,8.28840446472168,5.074549674987793,-53.258758544921875, -21.998544692993164
548,374182533,0.4571496,0.22177196,-0.2636067,0.81996536,-0.38604357838630676,-1.283341884613037,9.476696014404297,25.035690307617188,-46.022918701171875, -31.873746871948242
549,374199200,0.45894486,0.22963062,-0.26055306,0.81777245,1.464647650718689,-1.86644446849823,12.213173866271973,34.123451232910156,-34.51331329345703, -36.01959228515625
550,374215867,0.4605644,0.23653509,-0.25602424,0.816323,4.3040642738342285,-1.940915584564209,12.551223754882812,41.00248718261719,-23.7132568359375, -33.312255859375
551,374232534,0.46199995,0.24172285,-0.25232714,0.8151424,5.897891998291016,-1.9215495586395264,12.318961143493652,31.6590576171875,-16.654056549072266, -27.054561614990234
552,374249201,0.46313196,0.2445997,-0.2505164,0.81419986,5.34357213973999,-3.109710454940796,11.358416557312012,14.65568733215332,-9.864853858947754, -17.451005935668945
553,374265868,0.4633301,0.24508354,-0.2506219,0.8139092,3.3563194274902344,-4.172605991363525,9.676270484924316,-0.9948869943618774,-3.1205363273620605, -2.8163981437683105
554,374282535,0.46266517,0.24426414,-0.25078052,0.8144847,1.3130215406417847,-3.964064359664917,8.76479721069336,-2.4827544689178467,3.9337334632873535, 7.078652858734131
555,374299202,0.46160367,0.24247772,-0.25084966,0.81559885,0.19864875078201294,-2.9788625240325928,9.432602882385254,-3.4505839347839355,9.800945281982422, 12.497233390808105
556,374315869,0.4609675,0.23996212,-0.24960774,0.81708235,0.1424706131219864,-1.8784527778625488,9.353741645812988,1.518649935722351,19.332427978515625, 10.333160400390625
557,374332536,0.46092308,0.23637623,-0.24649483,0.819095,0.6668082475662231,-2.131115198135376,9.835648536682129,8.564020156860352,33.09685134887695, 7.423238277435303
558,374349203,0.4616489,0.23098692,-0.24236517,0.82145286,2.086107015609741,-1.6782892942428589,10.130173683166504,7.90472936630249,48.277549743652344, 5.570329189300537
559,374365870,0.46245682,0.22334124,-0.23756236,0.82450986,2.8834140300750732,-2.6972031593322754,9.956056594848633,5.572132587432861,64.35440826416016, 10.011419296264648
560,374382537,0.46261245,0.21332142,-0.23210062,0.8286212,3.5624310970306396,-3.628566026687622,8.91818618774414,4.4828877449035645,80.42271423339844, 19.913925170898438
561,374399204,0.4613287,0.20151027,-0.22533862,0.8341415,3.828991413116455,-5.1574859619140625,8.414628982543945,10.561665534973145,94.5121078491211, 33.525604248046875
562,374415871,0.45915684,0.18739791,-0.21906568,0.8402782,5.0512847900390625,-5.1070122718811035,8.781851768493652,2.6647729873657227,105.62488555908203, 44.784366607666016
563,374432538,0.45629057,0.17051834,-0.21400885,0.84671277,7.462250709533691,-5.5763750076293945,8.946150779724121,-11.732878684997559,117.11267852783203, 55.443180084228516
564,374449205,0.45270318,0.15150064,-0.20893852,0.853494,10.02059268951416,-5.4042205810546875,9.146414756774902,-16.981338500976562,128.97702026367188, 63.83464813232422
565,374465872,0.44788384,0.13121217,-0.19997059,0.86150765,12.59215259552002,-5.673569202423096,10.902547836303711,5.016184329986572,148.1394805908203, 72.6551513671875
566,374482539,0.4414602,0.10891682,-0.18353398,0.87153053,13.503341674804688,-6.418868541717529,12.179817199707031,47.31730651855469,182.72238159179688, 84.37352752685547
567,374499206,0.43194845,0.083274566,-0.1605387,0.88357997,10.439111709594727,-3.9545137882232666,12.513063430786133,81.37486267089844,220.41624450683594, 108.3609390258789
568,374515873,0.41897157,0.053665612,-0.13030209,0.89699733,6.872636318206787,-5.727051734924316,12.607938766479492,117.11360931396484,263.0802307128906, 133.75057983398438
569,374532540,0.40577683,0.021018362,-0.09040678,0.909247,1.3181321620941162,-1.9223542213439941,16.364988327026367,167.0387725830078,309.10809326171875, 130.91006469726562
570,374549207,0.39577127,-0.011947506,-0.052607927,0.91676325,9.691387176513672,0.6526505947113037,11.196349143981934,149.61514282226562,306.5111999511719, 98.2671127319336
571,374565874,0.39239547,-0.035905063,-0.0168426,0.91894126,17.67669677734375,12.670114517211914,-2.919901132583618,159.8859100341797,247.07302856445312, 38.53060531616211
572,374582541,0.38882512,-0.06940455,-0.018910082,0.9184991,15.112569808959961,24.987516403198242,0.4719759225845337,-105.45126342773438,206.0784149169922, 24.50796127319336
573,374599208,0.38118893,-0.10804412,-0.03760636,0.9173918,0.5190725326538086,-6.292025089263916,6.246138095855713,-226.5786590576172,194.06275939941406, 41.22197341918945
574,374615875,0.37535235,-0.13317382,-0.038345512,0.9164633,0.3306548595428467,-5.495161056518555,7.346653938293457,-76.39601135253906,156.21372985839844, 40.17212677001953
575,374632542,0.3696952,-0.15258332,-0.03939583,0.915692,1.915724277496338,2.6165947914123535,5.058899402618408,-63.3316535949707,119.28014373779297, 37.649436950683594
576,374649209,0.3638977,-0.17083463,-0.049117897,0.9143203,-2.2955870628356934,0.19195643067359924,5.4029645919799805,-115.33757019042969,90.56639862060547, 27.60855484008789
577,374665876,0.35945314,-0.18432957,-0.057261005,0.9129826,-5.979031085968018,-2.7521920204162598,6.1623005867004395,-91.92023468017578,65.01644897460938, 19.438121795654297
578,374682543,0.35657084,-0.19453551,-0.06318857,0.9116033,-6.385390281677246,-1.3733961582183838,6.545512676239014,-67.90280151367188,50.466773986816406, 11.032383918762207
579,374699210,0.35477442,-0.20270687,-0.06776176,0.9101942,-6.112490177154541,-1.9820988178253174,6.390864849090576,-52.9890251159668,41.49928283691406, 5.068353652954102
580,374715877,0.35396263,-0.20689593,-0.06699679,0.9096242,-7.166634559631348,-3.6971757411956787,6.795269012451172,-8.102666854858398,28.846668243408203, 6.523518085479736
581,374732544,0.35445437,-0.20680928,-0.060835004,0.9098854,-7.864340305328369,-2.6123600006103516,6.677985668182373,38.31288528442383,14.611215591430664, 6.084428787231445
582,374749211,0.35592243,-0.20470186,-0.05514649,0.9101513,-8.535922050476074,-1.747581958770752,6.547995090484619,41.676639556884766,1.163700819015503, -1.549974799156189
583,374765878,0.3579433,-0.20107564,-0.05243481,0.91032726,-8.419071197509766,-1.152407169342041,6.863459587097168,27.510046005249023,-15.350836753845215, -10.014026641845703
584,374782545,0.3604913,-0.19594942,-0.05127303,0.910506,-8.635371208190918,-2.031552791595459,8.592021942138672,22.224576950073242,-28.427806854248047, -16.006629943847656
585,374799212,0.36315387,-0.19079722,-0.050697792,0.9105744,-8.373779296875,-2.433260202407837,9.718818664550781,18.731931686401367,-29.911840438842773, -17.811079025268555
586,374815879,0.36550263,-0.18736996,-0.051190183,0.91031873,-7.702363967895508,-2.4668564796447754,9.68725872039795,7.218249797821045,-21.513809204101562, -17.46682357788086
587,374832546,0.36741742,-0.18580121,-0.052202053,0.90981174,-7.444411277770996,-2.8943285942077637,9.903898239135742,-1.3482288122177124,-11.061126708984375, -15.407928466796875
588,374849213,0.36902958,-0.18457852,-0.05210523,0.90941364,-7.4004316329956055,-3.3449063301086426,9.446228981018066,4.372097015380859,-6.384520053863525, -11.70985221862793
589,374865880,0.37067807,-0.18248096,-0.050884124,0.90923566,-7.033838272094727,-3.3357326984405518,8.762479782104492,13.759858131408691,-9.310433387756348, -10.2763032913208
590,374882547,0.3725949,-0.17803362,-0.048031952,0.909489,-6.497468948364258,-3.8320295810699463,8.015761375427246,30.44750213623047,-20.330646514892578, -9.638583183288574
591,374899214,0.3751336,-0.16989492,-0.042731415,0.91026634,-5.7086262702941895,-3.2152278423309326,8.374053001403809,56.172096252441406,-37.61503219604492, -10.413002014160156
592,374915881,0.3779421,-0.15921305,-0.037179314,0.91127867,-5.430135726928711,-2.1639864444732666,9.003645896911621,64.70681762695312,-53.10839080810547, -11.948893547058105
593,374932548,0.37989885,-0.14898703,-0.035231877,0.91227114,-4.580531120300293,-1.8122997283935547,9.78299331665039,40.003562927246094,-59.84220504760742, -10.491425514221191
594,374949215,0.38065186,-0.13915862,-0.038170427,0.91339046,-3.4940128326416016,-1.7359862327575684,8.76778793334961,7.116020679473877,-70.54936981201172, -7.516847610473633
595,374965882,0.38057816,-0.12924574,-0.04578204,0.9145272,-1.9041955471038818,-1.9172574281692505,8.284086227416992,-22.794437408447266,-83.5549545288086, -6.772844314575195
596,374982549,0.38194323,-0.11874747,-0.059581406,0.91458654,-3.024628162384033,0.33819323778152466,11.806653022766113,-59.227378845214844,-102.01666259765625, -24.321989059448242
597,374999216,0.3837225,-0.10931918,-0.082881905,0.9132016,-1.207955002784729,-2.6923317909240723,12.695762634277344,-122.07295227050781,-118.90288543701172, -38.04047775268555
598,375015883,0.38638517,-0.0964082,-0.10445328,0.9113187,1.958191156387329,-5.078238487243652,9.9806547164917,-101.64445495605469,-135.3200225830078, -45.589561462402344
599,375032550,0.3988911,-0.057670746,-0.10810358,0.90877587,9.714261054992676,14.210382461547852,-37.31816864013672,85.3700942993164,-242.0447235107422, -115.70278930664062
600,375049217,0.41301414,-0.015882472,-0.124762,0.90199864,44.2027473449707,5.2357354164123535,23.262502670288086,9.89837646484375,-293.87799072265625, -144.80897521972656
601,375065884,0.4152149,0.029681386,-0.1362454,0.8989733,1.5618633031845093,-22.985567092895508,33.95204162597656,54.551109313964844,-312.8160705566406, -62.6669921875
602,375082551,0.42273143,0.05907867,-0.15362836,0.8911825,11.025073051452637,2.480116605758667,11.602926254272461,-33.485477447509766,-225.67971801757812, -92.85578155517578
603,375099218,0.42695627,0.08932347,-0.16108698,0.88531387,20.092483520507812,-1.01333487033844,20.00186538696289,33.125946044921875,-204.63577270507812, -71.95270538330078
604,375115885,0.43103364,0.105678625,-0.18166202,0.8775197,26.487445831298828,-1.0022765398025513,16.759227752685547,-89.56568908691406,-159.79513549804688, -53.194976806640625
605,375132552,0.43664783,0.114177935,-0.20502196,0.8684861,17.093189239501953,-2.7941298484802246,11.870683670043945,-132.3322296142578,-119.44901275634766, -54.209686279296875
606,375149219,0.44294938,0.1273855,-0.22108111,0.859472,4.866932392120361,-6.06366491317749,4.44766902923584,-75.10272979736328,-124.5618896484375, -70.56542205810547
607,375165886,0.44780275,0.13772656,-0.2342352,0.85184383,-2.013169527053833,-7.4547624588012695,4.401997089385986,-63.24857711791992,-99.74193572998047, -55.987911224365234
608,375182553,0.45000502,0.14662628,-0.24408154,0.8464163,-7.728997707366943,-4.101570129394531,3.9013118743896484,-42.21053695678711,-83.34059143066406, -34.5487060546875
609,375199220,0.4503823,0.15379408,-0.25284535,0.84236133,-9.284638404846191,-3.7942702770233154,3.614391565322876,-37.10392379760742,-71.68099975585938, -17.91316032409668
610,375215887,0.44974095,0.16051976,-0.2594554,0.83943415,-7.129745960235596,-2.827468156814575,4.333257675170898,-22.942241668701172,-63.128665924072266, -10.083908081054688
611,375232554,0.44912836,0.16729349,-0.26301286,0.8373297,-3.2508678436279297,-2.939319610595703,8.505125045776367,-3.730464458465576,-53.09144973754883, -11.200704574584961
612,375249221,0.44934243,0.17464699,-0.2622771,0.83594304,1.2958749532699585,-1.4395474195480347,11.314592361450195,23.122406005859375,-40.924922943115234, -19.755512237548828
613,375265888,0.45087683,0.18120453,-0.26027045,0.8343467,1.774610996246338,-1.0221078395843506,12.366254806518555,25.986982345581055,-30.348562240600586, -28.079092025756836
614,375282555,0.45304745,0.18627429,-0.25862548,0.83256406,1.634035587310791,-1.9178940057754517,12.20884895324707,18.15371322631836,-22.086341857910156, -29.181922912597656
615,375299222,0.45521802,0.19032297,-0.25581953,0.8313305,2.3169963359832764,-2.1611416339874268,11.595999717712402,22.58148765563965,-11.979206085205078, -27.14168930053711
616,375315889,0.45704457,0.19296412,-0.25304958,0.8305669,2.003887176513672,-3.6160130500793457,10.514544486999512,19.238143920898438,-4.0846476554870605, -21.181543350219727
617,375332556,0.45801666,0.1945956,-0.25039884,0.830454,1.2229822874069214,-4.754189491271973,8.519737243652344,17.652502059936523,0.6409012675285339, -12.359672546386719
618,375349223,0.4578123,0.19526602,-0.24854465,0.83096623,0.07002762705087662,-5.897980690002441,8.314247131347656,12.742025375366211,2.3958966732025146, -0.9859486818313599
619,375365890,0.45715165,0.19559059,-0.2467985,0.8317737,-0.008459005504846573,-4.549352169036865,9.023014068603516,12.173985481262207,3.606302261352539, 3.240309238433838
620,375382557,0.4564682,0.19529192,-0.24492308,0.8327728,0.8472074866294861,-3.2567920684814453,10.418817520141602,11.321416854858398,7.747776508331299, 4.824853420257568
621,375399224,0.45621076,0.193539,-0.24345033,0.83375436,1.6155563592910767,-1.5415290594100952,11.620041847229004,3.8510072231292725,15.454824447631836, 5.303953170776367
622,375415891,0.4565872,0.18999791,-0.24139516,0.83495957,1.608893632888794,-1.3852109909057617,11.242072105407715,1.1000494956970215,28.839336395263672, 4.593107223510742
623,375432558,0.45698223,0.18450513,-0.23818654,0.8368946,1.2696057558059692,-2.3577122688293457,10.146039009094238,2.7693228721618652,44.60027313232422, 8.513870239257812
624,375449225,0.4567006,0.17744465,-0.2331869,0.8399774,1.3961105346679688,-4.173659324645996,8.692587852478027,10.88224983215332,59.55465316772461, 16.301456451416016
625,375465892,0.45594424,0.16741857,-0.22819556,0.8438086,1.1556665897369385,-5.166759967803955,8.318231582641602,3.3103067874908447,76.77898406982422, 26.132596969604492
626,375482559,0.45469236,0.15483057,-0.22355337,0.84811926,2.1896872520446777,-5.660079479217529,7.681605815887451,-5.4078145027160645,90.29724884033203, 34.896175384521484
627,375499226,0.45319152,0.13961463,-0.22003782,0.85247207,3.693958282470703,-5.563816547393799,8.888972282409668,-19.84235191345215,101.75154113769531, 41.68038558959961
628,375515893,0.45138368,0.121726155,-0.21704316,0.85692924,6.402137756347656,-4.54008674621582,8.92842960357666,-30.751853942871094,115.42925262451172, 48.316951751708984
629,375532560,0.44820446,0.101877555,-0.21308994,0.8621638,8.595763206481934,-5.412431716918945,10.166561126708984,-28.867565155029297,128.5841522216797, 60.92000961303711
630,375549227,0.443014,0.07976386,-0.20254868,0.86968404,12.175007820129395,-6.231449604034424,10.19568920135498,7.981468677520752,161.01837158203125, 78.5862045288086
631,375565894,0.43551922,0.05575154,-0.18076353,0.88007915,13.950115203857422,-6.320438385009766,11.540717124938965,74.7373275756836,205.087158203125, 97.61514282226562
632,375582561,0.42496243,0.02770663,-0.15173933,0.89197236,12.980610847473145,-3.8983848094940186,13.38683795928955,109.54706573486328,248.06463623046875, 122.89995574951172
633,375599228,0.41208977,-0.0044164695,-0.11697093,0.9035931,7.5895795822143555,-5.916545391082764,16.90210723876953,133.0438995361328,287.5220947265625, 139.5234375
634,375615895,0.39972407,-0.038287763,-0.074560806,0.9127954,2.3416521549224854,-6.337372303009033,17.073694229125977,173.6942596435547,320.6097106933594, 131.1799774169922
635,375632562,0.3945165,-0.06092723,-0.029258236,0.9163999,15.661271095275879,4.839041233062744,0.7718627452850342,221.76870727539062,263.1689453125, 65.83440399169922
636,375649229,0.3946776,-0.081440024,-0.009571235,0.9151533,19.207292556762695,24.95439910888672,-8.408977508544922,67.27924346923828,183.4613494873047, 7.716949462890625
637,375665896,0.38552487,-0.12180384,-0.038616017,0.9138069,2.967959403991699,10.571436882019043,5.997316360473633,-298.83770751953125,175.79000854492188, 40.2037353515625
638,375682563,0.3760109,-0.15259884,-0.05161178,0.91250527,-3.10983943939209,-15.322479248046875,7.9885172843933105,-172.97064208984375,158.0601043701172, 53.536338806152344
639,375699230,0.36853108,-0.17163861,-0.048289396,0.9123559,1.8588942289352417,1.8319649696350098,6.351101398468018,-37.471431732177734,125.97976684570312, 56.65870666503906
640,375715897,0.36034358,-0.18928172,-0.05320214,0.9118632,-0.2888988256454468,1.0752135515213013,4.201480388641357,-86.57707977294922,96.54901885986328, 50.060760498046875
641,375732564,0.354084,-0.20151186,-0.05868187,0.9113583,-5.121409893035889,-3.0178773403167725,5.3614606857299805,-74.23529815673828,61.92936706542969, 35.232906341552734
642,375749231,0.35150376,-0.20750092,-0.062073797,0.9107884,-5.4767165184021,0.7822275757789612,5.461191177368164,-40.86606216430664,29.447002410888672, 12.384722709655762
643,375765898,0.3511263,-0.21034399,-0.06488926,0.9100853,-5.942894458770752,0.8603313565254211,6.222320079803467,-26.59229850769043,12.233321189880371, -2.2579710483551025
644,375782565,0.35262,-0.21003461,-0.06494791,0.90957505,-7.720455169677734,-1.9553178548812866,7.007990837097168,1.0307259559631348,-0.3185836970806122, -10.928086280822754
645,375799232,0.35492265,-0.20684369,-0.062143587,0.9096065,-8.697269439697266,-1.7027109861373901,6.896329879760742,27.331491470336914,-11.866290092468262, -11.842854499816895
646,375815899,0.35693783,-0.20305745,-0.06222043,0.90966576,-9.255364418029785,-2.1316416263580322,6.33983039855957,10.367250442504883,-22.838563919067383, -14.34648323059082
647,375832566,0.3592915,-0.19808853,-0.064036265,0.90970886,-9.496450424194336,-4.038302421569824,7.761493682861328,2.865277051925659,-34.39844512939453, -19.456769943237305
648,375849233,0.36183262,-0.19270146,-0.06494477,0.90979433,-9.541167259216309,-4.293722152709961,9.528183937072754,9.870430946350098,-34.8070182800293, -19.493698120117188
649,375865900,0.36363629,-0.1891703,-0.065942965,0.9097444,-8.46646785736084,-3.685587167739868,9.53561019897461,3.6753110885620117,-23.626142501831055, -14.527627944946289
650,375882567,0.36467183,-0.18710777,-0.065876745,0.90976125,-7.453386306762695,-3.2737534046173096,9.4492826461792,5.706033706665039,-12.260526657104492, -7.5224432945251465
651,375899234,0.36529884,-0.18567888,-0.06522663,0.9098493,-7.330517768859863,-3.1132428646087646,8.883197784423828,7.284965515136719,-7.148046016693115, -3.763416290283203
652,375915901,0.3661467,-0.1838914,-0.06344933,0.9099972,-7.49396276473999,-3.4188075065612793,7.997448921203613,15.554703712463379,-6.576169967651367, -3.7306087017059326
653,375932568,0.367934,-0.18052591,-0.060224213,0.9101693,-6.9993205070495605,-3.0323081016540527,6.927131175994873,29.79934310913086,-12.467605590820312, -8.419017791748047
654,375949235,0.37060705,-0.17471269,-0.056246057,0.9104738,-5.993819236755371,-2.2338316440582275,6.864948749542236,41.87369918823242,-25.718753814697266, -13.718785285949707
655,375965902,0.37375224,-0.16636384,-0.052435786,0.9109791,-5.619270324707031,-1.8601884841918945,8.03730583190918,47.93600082397461,-42.11227035522461, -17.350963592529297
656,375982569,0.37705624,-0.15584499,-0.049757674,0.9116279,-4.4829792976379395,-2.3254685401916504,9.061119079589844,46.65595245361328,-58.74938201904297, -20.056371688842773
657,375999236,0.38053718,-0.14205717,-0.04949134,0.9124483,-2.5842137336730957,-1.209463357925415,9.644558906555176,40.267478942871094,-85.63313293457031, -24.421836853027344
658,376015903,0.38339534,-0.12735619,-0.054309774,0.91314787,-1.8006234169006348,-1.1208432912826538,12.294576644897461,10.099832534790039,-104.76249694824219, -26.09821891784668
659,376032570,0.38562596,-0.11337893,-0.0632611,0.91347474,-2.5295581817626953,-4.43168306350708,14.088890075683594,-18.45857048034668,-111.01397705078125, -26.477529525756836
660,376049237,0.388698,-0.09672363,-0.070108086,0.9135883,-0.44472286105155945,-6.102273941040039,13.021202087402344,2.441455364227295,-121.7203140258789, -31.854629516601562
661,376065904,0.39358288,-0.07463373,-0.074109055,0.91325265,2.0071513652801514,-1.6511696577072144,11.360724449157715,35.87353515625,-147.0663299560547, -45.17650604248047
662,376082571,0.39866862,-0.052128278,-0.084408246,0.91171354,0.9489570260047913,1.038849949836731,16.532020568847656,-3.065361499786377,-165.973876953125, -53.12257385253906
663,376099238,0.40109867,-0.035078853,-0.10345292,0.90949816,1.4155396223068237,-6.501987934112549,15.353788375854492,-74.23304748535156,-157.03053283691406, -38.263999938964844
664,376115905,0.4075262,-0.008285005,-0.10678018,0.9068913,3.2280898094177246,6.75257682800293,-23.583999633789062,51.660640716552734,-171.66903686523438, -67.49702453613281
665,376132572,0.42723155,0.042080045,-0.12212551,0.89486754,38.69300842285156,27.05241584777832,-20.680784225463867,36.62020492553711,-342.1587219238281, -194.72909545898438
666,376149239,0.4254371,0.077499166,-0.14119457,0.89053994,9.531274795532227,-33.120548248291016,41.100135803222656,-17.71980857849121,-276.50225830078125, -25.83605194091797
667,376165906,0.43488875,0.118362926,-0.14861573,0.8802134,4.981966018676758,10.829533576965332,13.649018287658691,57.95412063598633,-268.0318603515625, -123.97054290771484
668,376182573,0.43946952,0.14185107,-0.16542126,0.87142444,19.2202091217041,-8.996685028076172,17.638980865478516,-45.37527084350586,-194.62094116210938, -64.34236145019531
669,376199240,0.44718266,0.15870951,-0.18524876,0.8605358,27.35317039489746,7.241433620452881,16.314485549926758,-88.91130828857422,-162.40379333496094, -78.99839782714844
670,376215907,0.45413798,0.15670232,-0.2102494,0.8514683,22.142349243164062,-6.423155784606934,22.81842041015625,-174.44436645507812,-65.51432037353516, -39.079742431640625
671,376232574,0.4580506,0.17062517,-0.22674476,0.84241545,9.308477401733398,-4.242344379425049,2.9688196182250977,-71.58573150634766,-136.530517578125, -53.39207458496094
672,376249241,0.46086997,0.18299599,-0.23824976,0.8350742,1.0224052667617798,-4.825689315795898,3.655806303024292,-43.587257385253906,-111.45966339111328, -45.112762451171875
673,376265908,0.4620748,0.19280957,-0.247701,0.82943094,-4.588442325592041,-3.429474115371704,3.532697916030884,-35.05897521972656,-90.78777313232422, -28.892621994018555
674,376282575,0.46191043,0.2002748,-0.25717998,0.82485616,-6.5506205558776855,-4.668737411499023,3.9111194610595703,-39.02526092529297,-78.45613861083984, -13.687458992004395
675,376299242,0.46067786,0.20721696,-0.26506707,0.82132614,-5.822103500366211,-3.344071388244629,2.636715888977051,-28.318449020385742,-70.95503997802734, -5.631453037261963
676,376315909,0.4588367,0.21417606,-0.27160925,0.81842893,-4.990460395812988,-3.9314303398132324,5.0855631828308105,-18.634300231933594,-67.05653381347656, -2.178922653198242
677,376332576,0.45653018,0.22235133,-0.27465707,0.81651914,-2.654226541519165,-2.964056968688965,9.381887435913086,7.406879425048828,-62.3553581237793, -3.9071435928344727
678,376349243,0.45567957,0.23075633,-0.27609822,0.81417286,-0.5204149484634399,-0.05147237330675125,12.707807540893555,14.098877906799316,-56.59506607055664, -16.362743377685547
679,376365910,0.4566745,0.23959489,-0.27461535,0.8115598,1.5294445753097534,0.3606362044811249,13.315338134765625,28.376710891723633,-46.8669319152832, -32.97120666503906
680,376382577,0.45789883,0.24813141,-0.26990628,0.809883,4.569714069366455,-2.0811407566070557,12.329750061035156,46.80532455444336,-33.152244567871094, -36.02545928955078
681,376399244,0.4581424,0.25453576,-0.26547396,0.8092222,7.052234172821045,-4.70189905166626,10.45484447479248,42.10618591308594,-22.281600952148438, -22.93045425415039
682,376415911,0.45664397,0.25808033,-0.2639473,0.80944604,6.653724193572998,-6.751093864440918,9.369521141052246,21.602170944213867,-17.16619873046875, -0.17169515788555145
683,376432578,0.4542035,0.2587155,-0.2651825,0.8102122,3.4589638710021973,-6.162808418273926,9.1688871383667,-0.23175683617591858,-10.39918041229248, 16.90184211730957
684,376449245,0.4513767,0.25820327,-0.26611993,0.8116468,1.0483866930007935,-3.620445728302002,8.920831680297852,-0.23839065432548523,-2.6214520931243896, 22.65190887451172
685,376465912,0.44914898,0.25686842,-0.26524124,0.81359136,-0.19430139660835266,-2.8188095092773438,9.652311325073242,7.216217041015625,9.560103416442871, 19.146953582763672
686,376482579,0.4479356,0.25475055,-0.26200747,0.8159706,0.19928431510925293,-2.586794137954712,9.11166763305664,16.97261619567871,23.770442962646484, 12.067703247070312
687,376499246,0.44725728,0.25179973,-0.2571601,0.8187958,0.9875195026397705,-3.451737642288208,8.29295539855957,23.324787139892578,35.104732513427734, 9.100067138671875
688,376515913,0.44680613,0.24691501,-0.25304288,0.821807,1.3283681869506836,-3.185028553009033,9.334254264831543,13.206161499023438,44.42987060546875, 13.052663803100586
