PacketCounter,SampleTimeFine,Quat_W,Quat_X,Quat_Y,Quat_Z,Acc_X,Acc_Y,Acc_Z,Gyr_X,Gyr_Y,Gyr_Z 
1,511120034,0.3533934,0.17264584,-0.118047446,0.9117958,-0.25531360507011414,-0.12651655077934265,0.09210321307182312,0.27139216661453247,0.13029904663562775, 0.16244107484817505
2,511136701,0.3517404,0.17021772,-0.11985903,0.91265476,4.2983622550964355,-1.3726788759231567,8.377942085266113,7.286217212677002,45.55925369262695, 19.505861282348633
3,511153368,0.35005477,0.16732967,-0.12354365,0.9133452,4.346472263336182,-1.4496108293533325,8.19151496887207,5.388627529144287,49.130428314208984, 21.547409057617188
4,511170035,0.34821323,0.16393952,-0.1272284,0.9141578,4.390698432922363,-1.5388286113739014,8.213201522827148,3.5362768173217773,51.9587287902832, 24.48265838623047
5,511186702,0.3462276,0.1597202,-0.13032983,0.91522133,4.598474025726318,-1.5264840126037598,8.131898880004883,1.887444019317627,54.68202209472656, 27.78437614440918
6,511203369,0.34422663,0.15529464,-0.13302435,0.91634935,4.70310115814209,-1.5738434791564941,8.263411521911621,-0.6781957149505615,56.333702087402344, 30.771268844604492
7,511220036,0.3405311,0.1506627,-0.13507764,0.9182012,4.764143943786621,-1.449365258216858,8.269647598266602,-3.041684627532959,58.17350769042969, 33.334171295166016
8,511236703,0.33679983,0.145734,-0.13650215,0.92016023,4.568051338195801,-1.3924139738082886,8.469427108764648,-3.904825210571289,59.81527328491211, 35.2857780456543
9,511253370,0.33326817,0.14016034,-0.13740465,0.9221754,4.49992036819458,-1.0096396207809448,8.464075088500977,-5.900835990905762,61.486427307128906, 35.36124038696289
10,511270037,0.3300485,0.13404188,-0.13813163,0.9241323,4.3211259841918945,-0.8881434798240662,8.709416389465332,-11.100687026977539,62.626182556152344, 35.12522506713867
11,511286704,0.32714376,0.12742878,-0.13868108,0.9260164,4.070376873016357,-0.9075053334236145,8.84442138671875,-15.172213554382324,63.16663360595703, 34.2203483581543
12,511303371,0.3245902,0.12035931,-0.13936964,0.927756,3.620689868927002,-0.8438094854354858,8.99504566192627,-19.907270431518555,62.76698684692383, 32.56679916381836
13,511320038,0.32225478,0.11264297,-0.14031748,0.9293948,3.076883554458618,-1.2095723152160645,8.68760871887207,-25.162015914916992,62.80797576904297, 31.77766990661621
14,511336705,0.31996202,0.104476884,-0.14109637,0.9310213,3.111175775527954,-1.2131561040878296,8.476244926452637,-25.18045997619629,62.61636734008789, 31.12447166442871
15,511353372,0.3176652,0.09605576,-0.14170589,0.9326209,3.441317319869995,-1.2475844621658325,8.654800415039062,-24.675737380981445,62.71917724609375, 30.819046020507812
16,511370039,0.31546065,0.0875646,-0.14203498,0.9341539,3.8183109760284424,-1.1913132667541504,9.194647789001465,-23.212400436401367,63.311988830566406, 29.848220825195312
17,511386706,0.31346387,0.07919899,-0.1421297,0.9355572,3.8784162998199463,-1.1993894577026367,9.742375373840332,-22.09600257873535,63.363773345947266, 28.094446182250977
18,511403373,0.31169534,0.07100708,-0.14196426,0.93683,3.6446874141693115,-1.2457231283187866,9.849668502807617,-20.811254501342773,63.125648498535156, 26.152034759521484
19,511420040,0.31020233,0.06320633,-0.14135994,0.93797493,3.3788039684295654,-1.1567456722259521,10.178929328918457,-17.758136749267578,61.62316131591797, 23.49786376953125
20,511436707,0.3089954,0.055543907,-0.14063498,0.93896675,2.814211845397949,-1.2551295757293701,9.954571723937988,-17.442096710205078,60.77057647705078, 21.0688419342041
21,511453374,0.30786565,0.048286777,-0.13928936,0.9399392,2.6927928924560547,-1.6662267446517944,10.097745895385742,-12.787638664245605,58.71062088012695, 19.641727447509766
22,511470041,0.30685657,0.041060895,-0.13767053,0.9408507,2.682577610015869,-1.7803010940551758,9.93172836303711,-10.738655090332031,58.495216369628906, 18.288108825683594
23,511486708,0.3061051,0.034041785,-0.13590558,0.9416319,2.725595235824585,-1.722036361694336,9.68886661529541,-9.126176834106445,57.26224136352539, 15.839755058288574
24,511503375,0.30558112,0.027238023,-0.13401918,0.9422936,2.4477646350860596,-2.1773414611816406,9.542654991149902,-7.690547943115234,56.15080642700195, 13.698263168334961
25,511520042,0.3053144,0.021054598,-0.13162975,0.94287527,2.218837261199951,-2.6480720043182373,9.553144454956055,-2.5247981548309326,53.144596099853516, 10.944849967956543
26,511536709,0.305197,0.015620025,-0.12898068,0.9433849,1.7689592838287354,-2.7926316261291504,10.017325401306152,1.6117764711380005,48.63296127319336, 8.829728126525879
27,511553376,0.30518514,0.010520165,-0.1272848,0.9436896,1.9006274938583374,-2.2626588344573975,10.714998245239258,-3.229668617248535,43.95981216430664, 7.230253219604492
28,511570043,0.3050557,0.0054097166,-0.12678386,0.943842,2.0793306827545166,-2.8788139820098877,9.948580741882324,-10.89439582824707,41.023658752441406, 7.620333671569824
29,511586710,0.30442795,0.0013941948,-0.1259749,0.9441675,2.3165857791900635,-4.166046619415283,9.424064636230469,-5.730559825897217,34.02212142944336, 10.140554428100586
30,511603377,0.30361223,-0.0010716879,-0.12392304,0.94470185,1.2206463813781738,-3.521909713745117,9.791955947875977,7.157341957092285,26.502296447753906, 10.329816818237305
31,511620044,0.30300483,-0.002983322,-0.12223716,0.94511235,0.5962935090065002,-1.8032008409500122,10.409225463867188,6.6045098304748535,21.81200408935547, 8.040297508239746
32,511636711,0.30246273,-0.0051850867,-0.12175713,0.9453385,0.16616985201835632,-1.4339778423309326,10.092406272888184,-2.2684566974639893,20.494182586669922, 7.283130645751953
33,511653378,0.30186638,-0.007780065,-0.12210058,0.9454669,0.12966814637184143,-1.6390471458435059,9.288060188293457,-8.887558937072754,20.481277465820312, 7.562516212463379
34,511670045,0.3009904,-0.010540585,-0.12223391,0.94570214,-0.0798754096031189,-2.1610419750213623,8.917754173278809,-7.924534320831299,21.081926345825195, 9.600446701049805
35,511686712,0.2998571,-0.013674826,-0.122162834,0.9460312,0.16089579463005066,-2.0034234523773193,9.37673282623291,-7.171701431274414,23.076129913330078, 11.632515907287598
36,511703379,0.29852936,-0.017567078,-0.12215149,0.94638836,0.08521530032157898,-1.873064637184143,9.613075256347656,-9.110250473022461,27.273733139038086, 13.474716186523438
37,511720046,0.29679966,-0.022396097,-0.1224562,0.94679093,0.42841169238090515,-2.3585903644561768,9.123229026794434,-13.167557716369629,31.98478889465332, 16.83456802368164
38,511736713,0.294722,-0.02724552,-0.1215106,0.9474344,0.0907486155629158,-3.1794912815093994,8.871601104736328,-4.772940635681152,34.15333557128906, 19.742643356323242
39,511753380,0.29261565,-0.031980537,-0.11923637,0.9482278,-0.027787497267127037,-2.9571166038513184,8.872673988342285,4.650647163391113,35.804420471191406, 20.304418563842773
40,511770047,0.29039663,-0.03691191,-0.116621666,0.94905573,-0.28959470987319946,-2.740490198135376,9.103023529052734,6.7733941078186035,37.44670486450195, 21.27349090576172
41,511786714,0.28810677,-0.042271882,-0.114147566,0.94983065,-0.32322075963020325,-2.280498504638672,9.250652313232422,5.120393753051758,39.672576904296875, 21.867918014526367
42,511803381,0.2857045,-0.04810096,-0.11194904,0.9505402,-0.41814181208610535,-2.1517152786254883,9.214885711669922,2.329256772994995,41.924861907958984, 22.704668045043945
43,511820048,0.28303242,-0.05410737,-0.10996715,0.9512479,-0.3819737434387207,-2.4506256580352783,9.329049110412598,0.4643941819667816,42.28266525268555, 24.48418617248535
44,511836715,0.2802098,-0.060068745,-0.10766653,0.9519886,-0.5658198595046997,-2.5272018909454346,9.837403297424316,2.6696412563323975,42.37493133544922, 25.58890151977539
45,511853382,0.27720106,-0.066318594,-0.10600348,0.9526411,-0.672526478767395,-2.4473512172698975,10.149568557739258,-2.154790163040161,42.82902526855469, 26.56106185913086
46,511870049,0.27428934,-0.07235881,-0.1043741,0.9532238,-0.7236142158508301,-2.50244140625,10.188321113586426,-1.9773939847946167,41.411888122558594, 25.602764129638672
47,511886716,0.27113622,-0.07867172,-0.104398295,0.9536231,-0.9674763679504395,-1.9436205625534058,10.632128715515137,-13.566102027893066,39.94546127319336, 26.199119567871094
48,511903383,0.26787314,-0.085149504,-0.107199594,0.953678,-1.4815424680709839,-2.1577799320220947,10.197011947631836,-32.52671813964844,35.89334487915039, 24.868511199951172
49,511920050,0.2649462,-0.09081907,-0.11094754,0.95354396,-1.6031854152679443,-2.205948829650879,10.144646644592285,-37.25852966308594,29.062318801879883, 21.126304626464844
50,511936717,0.26264533,-0.09541257,-0.11500234,0.9532515,-1.6441768407821655,-2.109797716140747,9.865731239318848,-37.11264419555664,21.89069366455078, 15.679105758666992
51,511953384,0.26084158,-0.09947647,-0.11963709,0.95276076,-1.6844439506530762,-2.8629226684570312,9.845868110656738,-39.879573822021484,17.777099609375, 11.222583770751953
52,511970051,0.25943768,-0.102727406,-0.12409889,0.95222825,-1.4736610651016235,-2.88885760307312,9.577469825744629,-37.012428283691406,13.016963958740234, 7.955060958862305
53,511986718,0.2584723,-0.105012745,-0.12751523,0.9517901,-1.4445741176605225,-3.623832941055298,9.358977317810059,-28.023401260375977,8.815438270568848, 5.15809965133667
54,512003385,0.25810525,-0.10594163,-0.12937577,0.95153564,-1.6992452144622803,-3.4821393489837646,9.369482040405273,-14.687461853027344,3.054835557937622, 1.511925220489502
55,512020052,0.25813943,-0.1058147,-0.13075872,0.95135146,-1.789648175239563,-3.029378890991211,9.75107479095459,-9.231179237365723,-2.776033401489258, -1.5885770320892334
56,512036719,0.2583359,-0.105149746,-0.13248247,0.9511334,-1.8131976127624512,-2.8945462703704834,9.840797424316406,-10.42185115814209,-6.805924415588379, -3.46537446975708
57,512053386,0.25856182,-0.104177564,-0.13455327,0.9508883,-1.6454476118087769,-2.9317092895507812,9.724556922912598,-12.183280944824219,-9.45959758758545, -4.26428747177124
58,512070053,0.2586434,-0.10351961,-0.13710758,0.9505729,-1.461190938949585,-2.6938140392303467,9.572299003601074,-16.096614837646484,-8.397531509399414, -3.5201239585876465
59,512086720,0.25855106,-0.10340011,-0.14042129,0.9501272,-1.3390145301818848,-2.796665906906128,8.899371147155762,-22.321443557739258,-6.32586145401001, -2.6628804206848145
60,512103387,0.25846767,-0.103367314,-0.14287189,0.9497881,-1.2801234722137451,-3.0819222927093506,8.732912063598633,-16.742168426513672,-4.314207553863525, -1.842963457107544
61,512120054,0.25840184,-0.10352717,-0.14431868,0.9495699,-1.2872920036315918,-3.091905117034912,8.479965209960938,-10.371596336364746,-1.3580368757247925, -0.8424403071403503
62,512136721,0.25824586,-0.10390059,-0.14506963,0.9494571,-1.3501815795898438,-3.2731058597564697,8.765953063964844,-6.134677886962891,1.0858954191207886, 0.6373785138130188
63,512153388,0.2580883,-0.10463836,-0.14614859,0.94925344,-1.6108317375183105,-2.8567028045654297,8.85754680633545,-8.975998878479004,2.9215328693389893, 0.6112792491912842
64,512170055,0.25782543,-0.10620315,-0.14830089,0.9488172,-1.841230869293213,-2.7552971839904785,9.371804237365723,-17.782228469848633,6.422104835510254, 0.9225130081176758
65,512186722,0.25739875,-0.10930241,-0.15368657,0.94772327,-1.87624990940094,-1.8364558219909668,9.338733673095703,-42.44824981689453,10.946281433105469, -0.007338088005781174
66,512203389,0.25671118,-0.113266096,-0.16065922,0.9462869,-1.6295565366744995,-2.186095714569092,8.368814468383789,-55.05708312988281,13.687760353088379, 0.7547764182090759
67,512220056,0.2561085,-0.11616696,-0.16546652,0.9452697,-1.477103590965271,-3.291996717453003,7.863478660583496,-38.66409683227539,10.321009635925293, 1.4187017679214478
68,512236723,0.25560427,-0.11790965,-0.16812354,0.94472134,-1.5289324522018433,-4.252817153930664,8.582307815551758,-21.996610641479492,6.292904376983643, 1.9950600862503052
69,512253390,0.25518847,-0.11913588,-0.1687098,0.9445754,-1.7227727174758911,-5.068053245544434,9.352770805358887,-6.997903823852539,6.33804988861084, 3.2163734436035156
70,512270057,0.25489038,-0.12019037,-0.1676548,0.94470996,-1.8490716218948364,-4.810479640960693,9.751229286193848,4.532009601593018,7.988047122955322, 4.101869106292725
71,512286724,0.25465015,-0.121778466,-0.16660093,0.94475794,-1.6666629314422607,-3.9680371284484863,9.295463562011719,3.631415367126465,11.565272331237793, 4.193229675292969
72,512303391,0.25420925,-0.12393219,-0.16632716,0.94464487,-1.601006269454956,-4.074158191680908,8.579811096191406,-2.756882429122925,13.770126342773438, 5.208089828491211
73,512320058,0.25376335,-0.12557386,-0.16463415,0.9448445,-1.734258770942688,-4.685162544250488,8.718568801879883,7.770509719848633,12.643701553344727, 6.417299747467041
74,512336725,0.2537169,-0.126953,-0.16123365,0.94525915,-1.8012452125549316,-4.715174198150635,9.683891296386719,20.025043487548828,14.167342185974121, 5.389378070831299
75,512353392,0.2540203,-0.12852038,-0.15613781,0.945821,-1.6369708776474,-3.9974780082702637,9.466888427734375,31.261287689208984,18.604673385620117, 5.07692813873291
76,512370059,0.25457138,-0.13024533,-0.15031037,0.94638073,-1.4929454326629639,-3.2064082622528076,8.245638847351074,35.98123550415039,21.189023971557617, 4.2920942306518555
77,512386726,0.2553773,-0.13197257,-0.14436896,0.9468491,-1.8868037462234497,-2.965818166732788,8.624579429626465,36.852115631103516,21.7595272064209, 2.5884807109832764
78,512403393,0.25597945,-0.13390183,-0.1395792,0.9471339,-2.172808885574341,-2.62849497795105,9.033926963806152,28.605276107788086,21.001192092895508, 2.742319107055664
79,512420060,0.25624403,-0.13580813,-0.13670735,0.9472098,-2.3164494037628174,-2.3163530826568604,8.60701847076416,15.58198356628418,17.314647674560547, 2.765658378601074
80,512436727,0.25647134,-0.13724235,-0.13355272,0.94739157,-2.302855968475342,-3.190572738647461,8.812296867370605,18.250219345092773,14.559487342834473, 2.988182306289673
81,512453394,0.25670233,-0.13858482,-0.13032344,0.9475833,-2.250753164291382,-3.127488851547241,9.254115104675293,18.921489715576172,14.0530424118042, 2.961326837539673
82,512470061,0.25686437,-0.14015298,-0.12771858,0.94766355,-2.2394602298736572,-2.915449619293213,8.911904335021973,14.285140037536621,14.449213981628418, 2.8170745372772217
83,512486728,0.25683796,-0.14194793,-0.12571022,0.947672,-2.1951355934143066,-2.7323122024536133,8.6028413772583,9.745137214660645,14.759493827819824, 3.5361251831054688
84,512503395,0.25667828,-0.14392748,-0.123692006,0.94768226,-2.3461570739746094,-2.5997049808502197,8.767332077026367,9.342621803283691,15.847498893737793, 4.570059776306152
85,512520062,0.25642693,-0.14629883,-0.12214787,0.9475875,-2.489229440689087,-2.451835870742798,9.170919418334961,5.35653829574585,17.568241119384766, 4.834396839141846
86,512536729,0.25605506,-0.1487599,-0.1204597,0.94752103,-2.5136561393737793,-2.5287811756134033,9.471217155456543,5.9923553466796875,18.25656509399414, 5.871220111846924
87,512553396,0.255567,-0.15100965,-0.1184791,0.94754666,-2.645698070526123,-2.530156135559082,9.377747535705566,8.180444717407227,17.19202995300293, 6.901243209838867
88,512570063,0.2550762,-0.1529062,-0.11658597,0.94760954,-2.803941249847412,-2.5256762504577637,9.453924179077148,8.218778610229492,14.676579475402832, 6.590820789337158
89,512586730,0.25451428,-0.1545911,-0.11511877,0.9476666,-2.7835004329681396,-2.6419689655303955,9.201780319213867,5.696378707885742,12.473145484924316, 6.408616542816162
90,512603397,0.25394037,-0.15595423,-0.11320072,0.94782823,-2.754713296890259,-2.9402241706848145,9.165595054626465,9.24709701538086,11.019330024719238, 6.882004737854004
91,512620064,0.25350174,-0.15695122,-0.11082609,0.94806165,-2.7049148082733154,-3.0118439197540283,9.514204025268555,13.06987190246582,9.438166618347168, 6.327847003936768
92,512636731,0.25322837,-0.15762107,-0.10857969,0.94828355,-2.776207447052002,-3.020153760910034,9.427916526794434,12.980791091918945,7.214380741119385, 4.8449859619140625
93,512653398,0.25306514,-0.15787485,-0.10658711,0.9485108,-2.8007237911224365,-2.793884038925171,9.249930381774902,12.186278343200684,4.1242170333862305, 3.553091526031494
94,512670065,0.2529983,-0.15793237,-0.105057836,0.9486897,-2.7762937545776367,-2.617741346359253,9.345025062561035,9.577892303466797,2.145660161972046, 2.190892219543457
95,512686732,0.2529039,-0.15793993,-0.10392711,0.94883823,-2.7166812419891357,-2.64289927482605,9.160529136657715,7.002032279968262,1.1285916566848755, 1.8453888893127441
96,512703399,0.25277448,-0.15785925,-0.102861434,0.94900227,-2.728019952774048,-2.6001572608947754,8.964385032653809,6.701263904571533,0.3889225423336029, 1.9644368886947632
97,512720066,0.25264445,-0.15767215,-0.10153689,0.9492105,-2.7522377967834473,-2.505504846572876,8.916969299316406,8.605785369873047,0.08192864805459976, 2.2489426136016846
98,512736733,0.25249735,-0.15755281,-0.0999828,0.9494344,-2.757580280303955,-2.5988285541534424,9.209372520446777,9.974325180053711,0.8773313760757446, 2.679403305053711
99,512753400,0.25229812,-0.15749116,-0.098343775,0.9496688,-2.770984649658203,-2.2967710494995117,9.31824016571045,10.37743091583252,1.3435978889465332, 3.1684136390686035
100,512770067,0.2515761,-0.15779215,-0.09807671,0.9498379,-2.7478575706481934,-2.4075074195861816,9.629484176635742,0.15552672743797302,1.0402535200119019, 5.2203240394592285
101,512786734,0.25062102,-0.15861188,-0.09967576,0.9497875,-2.941960573196411,-2.2168707847595215,9.697904586791992,-13.350859642028809,1.2819485664367676, 4.682382583618164
102,512803401,0.24993256,-0.1591908,-0.10171784,0.9496556,-3.0422794818878174,-2.5859973430633545,9.094947814941406,-15.630520820617676,-0.7930722236633301, 2.1349034309387207
103,512820068,0.2496852,-0.15893453,-0.10282739,0.9496441,-2.8664662837982178,-2.742913246154785,9.050801277160645,-7.538881778717041,-4.4969377517700195, -0.11287517100572586
104,512836735,0.24974568,-0.15808196,-0.103184655,0.94973165,-2.7786037921905518,-2.803513288497925,9.095523834228516,-1.1858936548233032,-7.007596492767334, -1.555267333984375
105,512853402,0.2499653,-0.15689692,-0.103110954,0.9498784,-2.6198484897613525,-2.7334232330322266,9.170099258422852,2.4272587299346924,-8.402389526367188, -2.2601804733276367
106,512870069,0.25023764,-0.15561776,-0.102824084,0.95004827,-2.632533311843872,-2.63608980178833,9.052906036376953,4.060811519622803,-8.63976764678955, -2.3976693153381348
107,512886736,0.25057808,-0.15430586,-0.102257,0.9502337,-2.67313814163208,-2.4832398891448975,8.994885444641113,6.0339250564575195,-8.34661865234375, -2.5379247665405273
108,512903403,0.250947,-0.15312102,-0.10138043,0.9504218,-2.584322214126587,-2.447809934616089,8.841468811035156,7.86317253112793,-6.9787983894348145, -2.3048367500305176
109,512920070,0.25128615,-0.1522534,-0.10016572,0.9506003,-2.45282244682312,-2.34515118598938,8.87746810913086,9.4838285446167,-4.3438639640808105, -1.5512465238571167
110,512936737,0.25154918,-0.15180214,-0.09866506,0.9507599,-2.438035726547241,-2.3921055793762207,8.867210388183594,10.530786514282227,-1.1632779836654663, -0.5011510252952576
111,512953404,0.25165784,-0.15169968,-0.09685408,0.9509338,-2.4484481811523438,-2.5168607234954834,8.84982681274414,11.800180435180664,1.5319669246673584, 1.094604253768921
112,512970071,0.25165948,-0.15188679,-0.094777405,0.9511127,-2.4677517414093018,-2.4395697116851807,8.955240249633789,12.934809684753418,3.805645704269409, 2.276144027709961
113,512986738,0.25154683,-0.15242745,-0.09288513,0.9512427,-2.573463201522827,-2.320664644241333,9.04955005645752,10.96790885925293,5.773176193237305, 2.9793283939361572
114,513003405,0.25120762,-0.15329434,-0.09162355,0.95131534,-2.5916190147399902,-2.2271814346313477,9.352843284606934,5.998988628387451,6.7253007888793945, 3.907135009765625
115,513020072,0.25041035,-0.15487312,-0.09256938,0.95117825,-2.7741270065307617,-2.183018445968628,9.456854820251465,-10.299473762512207,7.502123832702637, 4.657307147979736
116,513036739,0.24985498,-0.15605246,-0.09356428,0.9510341,-2.8750245571136475,-2.2978267669677734,9.420720100402832,-9.700159072875977,4.9592413902282715, 2.745227575302124
117,513053406,0.24938719,-0.15695259,-0.09467035,0.9508993,-2.9118809700012207,-2.433778762817383,9.447955131530762,-9.861366271972656,2.9752042293548584, 1.879402995109558
118,513070073,0.2489621,-0.15774716,-0.09642208,0.9507032,-2.774301290512085,-2.308797597885132,9.844239234924316,-13.902007102966309,1.2577061653137207, 0.7200695276260376
119,513086740,0.24829233,-0.15913798,-0.100098684,0.95026666,-2.8502323627471924,-2.2470130920410156,9.69883918762207,-27.95361328125,1.9630333185195923, 0.2037816047668457
120,513103407,0.24781863,-0.16023348,-0.10373467,0.9498161,-2.971101760864258,-2.6874215602874756,9.216201782226562,-27.008787155151367,0.25078102946281433, -1.2753108739852905
121,513120074,0.24761838,-0.16042177,-0.10654813,0.9495251,-2.87575364112854,-2.66170334815979,9.178406715393066,-19.672298431396484,-4.271692276000977, -2.541001081466675
122,513136741,0.2476595,-0.15994358,-0.10889384,0.9493288,-2.747286796569824,-2.6863629817962646,9.228401184082031,-15.149826049804688,-7.767764091491699, -3.936560869216919
123,513153408,0.24792093,-0.15890019,-0.11057798,0.9492409,-2.7216453552246094,-2.8848698139190674,9.087997436523438,-9.550137519836426,-10.290690422058105, -4.890389919281006
124,513170075,0.2483522,-0.15747194,-0.11161171,0.94924533,-2.665553331375122,-2.7562947273254395,9.053465843200684,-4.3847174644470215,-11.673994064331055, -5.424286365509033
125,513186742,0.24888931,-0.15581687,-0.112409554,0.9492837,-2.689032554626465,-2.713299036026001,8.971054077148438,-2.317413091659546,-12.715370178222656, -5.977521896362305
126,513203409,0.24954289,-0.15399222,-0.1131745,0.9493189,-2.523181200027466,-2.5934860706329346,9.06514835357666,-1.6919890642166138,-13.686105728149414, -6.842617034912109
127,513220076,0.25025517,-0.15190652,-0.11360285,0.9494162,-2.492954969406128,-2.766179084777832,9.153904914855957,1.0518440008163452,-14.836628913879395, -6.9686198234558105
128,513236743,0.2510706,-0.14965239,-0.11364579,0.94955385,-2.4051177501678467,-2.6605141162872314,9.141737937927246,3.9937479496002197,-15.238572120666504, -7.299499034881592
129,513253410,0.25198257,-0.14729764,-0.11325524,0.9497271,-2.3719825744628906,-2.626718759536743,9.097431182861328,7.116477966308594,-15.110028266906738, -7.501111030578613
130,513270077,0.25291488,-0.14468443,-0.11237209,0.94998586,-2.2818450927734375,-2.531013250350952,9.06280517578125,10.858936309814453,-16.01861572265625, -7.187036991119385
131,513286744,0.2538171,-0.14196773,-0.11125946,0.9502859,-2.343012809753418,-2.502380847930908,9.081175804138184,12.527448654174805,-16.36182975769043, -6.769191265106201
132,513303411,0.25459066,-0.13956757,-0.11036605,0.9505387,-2.276294231414795,-2.4230194091796875,9.37536334991455,10.368412971496582,-14.737220764160156, -5.9830193519592285
133,513320078,0.25511664,-0.13763447,-0.109989055,0.9507233,-2.187325954437256,-2.5638813972473145,9.456172943115234,5.865638732910156,-12.71399974822998, -4.627859115600586
134,513336745,0.2553358,-0.13636352,-0.11069022,0.9507662,-2.085834264755249,-2.7043445110321045,9.319616317749023,-2.752469778060913,-10.372610092163086, -3.3903799057006836
135,513353412,0.25557053,-0.13501646,-0.11123643,0.95083165,-2.2367067337036133,-2.7367584705352783,9.060279846191406,-1.5742465257644653,-10.602470397949219, -3.3632686138153076
136,513370079,0.2558885,-0.13339625,-0.1114779,0.9509465,-2.2205841541290283,-2.754455089569092,9.151825904846191,1.0195205211639404,-11.845136642456055, -3.746678590774536
137,513386746,0.25626993,-0.13160293,-0.11159353,0.95108014,-2.1828129291534424,-2.6091127395629883,9.242147445678711,2.2251622676849365,-12.734156608581543, -4.145302772521973
138,513403413,0.25658,-0.12987955,-0.111710034,0.95121974,-2.1096205711364746,-2.566816568374634,9.195098876953125,2.031862735748291,-12.347390174865723, -3.617488384246826
139,513420080,0.25690565,-0.12816496,-0.11138363,0.95140266,-2.069864511489868,-2.5124380588531494,9.033313751220703,4.954273700714111,-11.542126655578613, -3.24162220954895
140,513436747,0.2572187,-0.12652715,-0.11037147,0.95165515,-1.9420056343078613,-2.471904993057251,9.01933765411377,9.3410005569458,-9.908585548400879, -2.3739399909973145
141,513453414,0.25749114,-0.12517424,-0.10893861,0.95192546,-1.8905476331710815,-2.428173303604126,9.143296241760254,11.561572074890137,-7.349849700927734, -1.4936310052871704
142,513470081,0.2577092,-0.12428646,-0.10730876,0.95216805,-1.7986831665039062,-2.265653371810913,9.053665161132812,11.950654983520508,-3.9736721515655518, -0.6670703291893005
143,513486748,0.25783384,-0.12394355,-0.10569645,0.9523592,-1.781444787979126,-2.116024971008301,9.001140594482422,10.737431526184082,-0.45883888006210327, 0.24113726615905762
144,513503415,0.25778922,-0.12415847,-0.104361504,0.95249057,-1.7081362009048462,-2.043245553970337,9.307821273803711,7.723979473114014,2.634862184524536, 1.4090253114700317
145,513520082,0.25724292,-0.12561175,-0.10472777,0.95240736,-1.7955347299575806,-2.2322475910186768,9.389198303222656,-6.222556114196777,7.566486835479736, 3.7466466426849365
146,513536749,0.2564047,-0.12754647,-0.105669245,0.95227236,-1.9434654712677002,-2.5625619888305664,9.389867782592773,-11.14898681640625,9.54700756072998, 5.415060520172119
147,513553416,0.25526446,-0.13006754,-0.10783285,0.95199513,-2.0205419063568115,-2.4927291870117188,9.44959831237793,-20.55135154724121,11.142040252685547, 6.492005825042725
148,513570083,0.25411257,-0.1325432,-0.11022465,0.9516879,-2.0999789237976074,-2.549063205718994,9.309696197509766,-22.00206184387207,10.47103214263916, 6.255390167236328
149,513586750,0.25319567,-0.13469641,-0.11237737,0.95137805,-2.1710195541381836,-2.5622408390045166,9.174128532409668,-19.66862678527832,8.956487655639648, 4.688841342926025
150,513603417,0.25242364,-0.13657856,-0.11422651,0.9510946,-2.160710334777832,-2.601884365081787,9.324448585510254,-17.061487197875977,7.794613838195801, 3.852609634399414
151,513620084,0.25183478,-0.13800454,-0.11577094,0.9508581,-2.233130931854248,-2.6800413131713867,9.38291072845459,-14.076045989990234,5.439994812011719, 2.6578896045684814
152,513636751,0.25149655,-0.13882984,-0.11652793,0.950735,-2.295886278152466,-2.641451358795166,9.491803169250488,-7.566403388977051,2.9663422107696533, 1.4778852462768555
153,513653418,0.25144312,-0.13901646,-0.11651897,0.950723,-2.2423644065856934,-2.642617702484131,9.443041801452637,-1.1073778867721558,0.23268496990203857, 0.023839019238948822
154,513670085,0.25159112,-0.13868129,-0.11606685,0.9507881,-2.219787836074829,-2.706885814666748,9.358302116394043,2.933659791946411,-2.326683521270752, -1.1577582359313965
155,513686752,0.25182298,-0.1380629,-0.11540771,0.9508969,-2.187809467315674,-2.7076544761657715,9.268321990966797,4.8850789070129395,-3.797903299331665, -1.6573469638824463
156,513703419,0.25201762,-0.13737582,-0.11495408,0.9509999,-2.135223865509033,-2.6993021965026855,9.238574028015137,3.6176724433898926,-4.627587795257568, -1.6793736219406128
157,513720086,0.2520887,-0.13672775,-0.114991434,0.9510699,-2.1440720558166504,-2.6472275257110596,9.19114875793457,0.1931517869234085,-5.290661811828613, -1.3575116395950317
158,513736753,0.25217694,-0.13605633,-0.114977784,0.9511445,-2.144402265548706,-2.5852158069610596,9.214258193969727,0.5825800895690918,-5.3467278480529785, -1.434810757637024
159,513753420,0.25230023,-0.13544586,-0.11462142,0.95124197,-2.1125376224517822,-2.5055062770843506,9.221573829650879,2.759845495223999,-4.350829124450684, -1.254561424255371
160,513770087,0.25241944,-0.1349628,-0.11405711,0.9513468,-2.096410036087036,-2.4941039085388184,9.310357093811035,3.889026165008545,-3.1669209003448486, -0.9271029829978943
161,513786754,0.25250435,-0.13468029,-0.11360985,0.9514177,-2.086313486099243,-2.435246706008911,9.228113174438477,2.7026968002319336,-2.053971767425537, -0.7131087183952332
162,513803421,0.25250864,-0.13454826,-0.11331669,0.95147026,-2.0860939025878906,-2.485504150390625,9.199446678161621,1.3270388841629028,-1.3868765830993652, -0.2338695526123047
163,513820088,0.25249168,-0.13451755,-0.11303295,0.9515129,-2.0483288764953613,-2.5202064514160156,9.21058464050293,1.0554673671722412,-0.7419358491897583, -0.06555570662021637
164,513836755,0.25248483,-0.1345981,-0.11268287,0.9515449,-2.030400514602661,-2.6443583965301514,9.146087646484375,1.2872238159179688,0.11822181195020676, 0.004527044482529163
165,513853422,0.2525363,-0.13474248,-0.11207923,0.95158195,-2.014922618865967,-2.6604926586151123,9.17129135131836,2.8793351650238037,0.9972241520881653, -0.013625957071781158
166,513870089,0.25254524,-0.13492773,-0.111444324,0.951628,-2.0516467094421387,-2.6433629989624023,9.19800853729248,2.9967944622039795,1.3039231300354004, 0.2675694227218628
167,513886756,0.25252602,-0.13521688,-0.110999934,0.95164394,-2.054987668991089,-2.595001220703125,9.30936050415039,1.5102081298828125,1.645840048789978, 0.3553186058998108
168,513903423,0.2524277,-0.1355171,-0.1107351,0.9516582,-2.018089771270752,-2.5163767337799072,9.398985862731934,0.25159990787506104,1.3711949586868286, 0.6440249085426331
169,513920090,0.25221303,-0.13597047,-0.11081684,0.95164084,-2.039479970932007,-2.5007262229919434,9.321537971496582,-2.465158224105835,1.660349726676941, 1.3451341390609741
170,513936757,0.25202286,-0.13642433,-0.11085383,0.9516219,-2.0541679859161377,-2.4838101863861084,9.325915336608887,-2.145050525665283,1.7894121408462524, 1.1469173431396484
171,513953424,0.25186378,-0.1369034,-0.110954605,0.95158356,-2.0620310306549072,-2.5606679916381836,9.261153221130371,-2.5783536434173584,1.9246598482131958, 0.7558371424674988
172,513970091,0.25176913,-0.13731682,-0.11098151,0.9515459,-2.118881940841675,-2.5785696506500244,9.283340454101562,-1.938330888748169,1.6569559574127197, 0.4193502962589264
173,513986758,0.25165805,-0.13776174,-0.11101506,0.95150715,-2.1051111221313477,-2.501553773880005,9.287957191467285,-2.026963472366333,1.8845248222351074, 0.3980661630630493
174,514003425,0.25158608,-0.13816375,-0.11089723,0.9514816,-2.1384003162384033,-2.4928324222564697,9.264883995056152,-0.9416253566741943,1.8614223003387451, 0.3581744134426117
175,514020092,0.25155056,-0.13850492,-0.110622644,0.95147324,-2.098574161529541,-2.5614449977874756,9.256430625915527,0.22552622854709625,1.7437447309494019, 0.2629848122596741
176,514036759,0.25148073,-0.13884655,-0.11035299,0.9514733,-2.12190580368042,-2.581059217453003,9.275898933410645,0.17494113743305206,1.7263792753219604, 0.434372216463089
177,514053426,0.25142518,-0.13922475,-0.11016893,0.95145404,-2.089796781539917,-2.4932847023010254,9.263723373413086,-0.4983591139316559,1.7863768339157104, 0.4694744050502777
178,514070093,0.25131005,-0.13963513,-0.10994994,0.95144963,-2.0985355377197266,-2.4353549480438232,9.253419876098633,-0.3449774980545044,2.0509305000305176, 0.7810017466545105
179,514086760,0.2511555,-0.14013469,-0.109690055,0.95144695,-2.1026206016540527,-2.4485647678375244,9.253901481628418,-0.2775648236274719,2.6807594299316406, 1.140219807624817
180,514103427,0.25097534,-0.14079717,-0.10946685,0.9514224,-2.1086204051971436,-2.4609034061431885,9.23011589050293,-0.8788998126983643,3.650136709213257, 1.4929709434509277
181,514120094,0.2507037,-0.14158493,-0.10931181,0.951395,-2.1588008403778076,-2.47100567817688,9.18398666381836,-1.6211556196212769,4.318051338195801, 2.024421453475952
182,514136761,0.25037432,-0.142439,-0.10925574,0.95136064,-2.203944444656372,-2.5036892890930176,9.23678207397461,-2.437650442123413,4.566264629364014, 2.279024839401245
183,514153428,0.2500074,-0.14331788,-0.10910497,0.9513424,-2.186767101287842,-2.513174057006836,9.253203392028809,-1.900795578956604,4.838143825531006, 2.702863931655884
184,514170095,0.24963623,-0.14427589,-0.10890065,0.95131844,-2.168532609939575,-2.4815173149108887,9.298089027404785,-1.7305095195770264,5.415607929229736, 2.963972806930542
185,514186762,0.24918902,-0.1453834,-0.108799644,0.95127875,-2.217609167098999,-2.4656624794006348,9.18441104888916,-2.7074804306030273,6.249736785888672, 3.214592933654785
186,514203429,0.24875382,-0.14654306,-0.10855007,0.9512432,-2.244776725769043,-2.542038917541504,9.11365795135498,-1.8314749002456665,6.835460662841797, 3.392319440841675
187,514220096,0.24832267,-0.14782374,-0.10816517,0.9512017,-2.1870057582855225,-2.579348087310791,9.143061637878418,-1.1613696813583374,7.863990306854248, 3.603816509246826
188,514236763,0.24790424,-0.1492641,-0.107645616,0.9511448,-2.2019197940826416,-2.5550243854522705,9.101640701293945,-0.5447310209274292,9.18071460723877, 3.717959403991699
189,514253430,0.24747033,-0.15088895,-0.1069882,0.95107555,-2.1995654106140137,-2.52799916267395,9.084735870361328,0.010853385552763939,10.623991012573242, 4.101061820983887
190,514270097,0.24686909,-0.15282789,-0.1065636,0.9509698,-2.266429901123047,-2.4659698009490967,9.06287670135498,-2.235708236694336,12.222331047058105, 5.070658206939697
191,514286764,0.24618344,-0.15500556,-0.10635187,0.9508188,-2.2910680770874023,-2.35562801361084,9.080409049987793,-4.170967102050781,13.401144981384277, 5.5438923835754395
192,514303431,0.2454472,-0.15744393,-0.10617922,0.9506279,-2.3488075733184814,-2.4544901847839355,8.9934720993042,-4.958585262298584,15.057254791259766, 5.941672325134277
193,514320098,0.24473958,-0.15999459,-0.10586799,0.9504192,-2.4488937854766846,-2.526272773742676,9.034036636352539,-4.228200435638428,16.073619842529297, 5.952467918395996
194,514336765,0.24408609,-0.16256574,-0.10529964,0.95021397,-2.483675241470337,-2.597764253616333,9.099864959716797,-2.5213935375213623,16.681806564331055, 5.897913455963135
195,514353432,0.24354523,-0.16504027,-0.104384586,0.9500271,-2.618804454803467,-2.5896189212799072,9.137057304382324,0.046544723212718964,16.70071792602539, 5.507843494415283
196,514370099,0.24319576,-0.16728917,-0.10287893,0.9498875,-2.6850874423980713,-2.5592896938323975,9.303041458129883,4.532844066619873,16.302160263061523, 4.8448333740234375
197,514386766,0.24293023,-0.16937038,-0.1013804,0.94974774,-2.8513612747192383,-2.5383870601654053,9.383284568786621,4.8597259521484375,15.259540557861328, 4.166568756103516
198,514403433,0.24268946,-0.17115118,-0.100258574,0.9496092,-2.866514205932617,-2.611307382583618,9.429107666015625,2.9267334938049316,12.683886528015137, 3.3552215099334717
199,514420100,0.24250066,-0.1726071,-0.099522725,0.9494713,-2.9024150371551514,-2.547546148300171,9.426141738891602,1.0092240571975708,9.955948829650879, 2.337038278579712
200,514436767,0.24242088,-0.1735765,-0.098874286,0.94938266,-2.909623146057129,-2.5348997116088867,9.40571117401123,1.408833384513855,6.652446269989014, 1.268411636352539
201,514453434,0.24248047,-0.17410277,-0.09820179,0.9493409,-2.906273365020752,-2.4829676151275635,9.377230644226074,2.4985766410827637,3.841219902038574, 0.16292880475521088
202,514470101,0.24261397,-0.1742148,-0.09747266,0.94936144,-2.7907938957214355,-2.4702908992767334,9.402570724487305,3.683682918548584,1.2099056243896484, -0.429243266582489
203,514486768,0.24272017,-0.17416765,-0.09701514,0.9493896,-2.8134336471557617,-2.397528648376465,9.35078239440918,2.142303943634033,-0.30024486780166626, -0.6695287823677063
204,514503435,0.24276628,-0.17405981,-0.096927814,0.9494066,-2.80177903175354,-2.322582960128784,9.294692993164062,-0.2608141005039215,-1.3335379362106323, -0.7799066305160522
205,514520102,0.24276383,-0.17396878,-0.09704508,0.949412,-2.764585256576538,-2.3628146648406982,9.114248275756836,-1.7014133930206299,-1.5764234066009521, -0.7177318930625916
206,514536769,0.24275771,-0.17394035,-0.09718605,0.9494043,-2.7130210399627686,-2.3718879222869873,9.089160919189453,-1.9801307916641235,-1.187840223312378, -0.7026844024658203
207,514553436,0.24270272,-0.17402005,-0.09736564,0.9493853,-2.6979994773864746,-2.4592392444610596,9.074043273925781,-2.4844577312469482,-0.5574091672897339, -0.37593042850494385
208,514570103,0.24262002,-0.1742239,-0.097472996,0.949358,-2.7321722507476807,-2.4623117446899414,9.01353645324707,-2.2599494457244873,0.3734907805919647, -0.03718964010477066
209,514586770,0.24254237,-0.17448755,-0.09738481,0.94933856,-2.7521140575408936,-2.5037691593170166,8.976297378540039,-1.0724804401397705,1.0900442600250244, 0.21797047555446625
210,514603437,0.24248843,-0.17478812,-0.097053945,0.94933087,-2.737189531326294,-2.4922778606414795,9.022915840148926,0.4880819618701935,1.7418748140335083, 0.40167751908302307
211,514620104,0.24245107,-0.1751376,-0.096595675,0.9493227,-2.7337594032287598,-2.4532675743103027,9.1055326461792,1.2587554454803467,2.2911264896392822, 0.4799755811691284
212,514636771,0.24243149,-0.17558181,-0.096166,0.9492893,-2.782409191131592,-2.4446933269500732,9.089007377624512,0.9172163009643555,2.9118950366973877, 0.35173919796943665
213,514653438,0.24240947,-0.17605788,-0.09578083,0.9492458,-2.789362668991089,-2.456516742706299,9.112878799438477,0.562602162361145,3.0618255138397217, 0.3189869523048401
214,514670105,0.24243246,-0.17653258,-0.09543125,0.949187,-2.8057491779327393,-2.4328830242156982,9.20128345489502,0.37607768177986145,3.0478668212890625, -0.04331108555197716
215,514686772,0.24246827,-0.17695251,-0.09500493,0.94914246,-2.8262784481048584,-2.4141619205474854,9.158744812011719,0.9903726577758789,2.8163533210754395, -0.04555218666791916
216,514703439,0.24254787,-0.17722856,-0.094429865,0.9491279,-2.8120365142822266,-2.4415295124053955,9.168848037719727,2.2707133293151855,2.123004674911499, -0.19405463337898254
217,514720106,0.24265626,-0.17737626,-0.09371301,0.94914365,-2.8569447994232178,-2.366349697113037,9.166007995605469,3.463150978088379,1.510451316833496, -0.24074658751487732
218,514736773,0.24280763,-0.17739277,-0.0928958,0.94918215,-2.863544225692749,-2.305158853530884,9.184160232543945,4.399550914764404,0.8262465000152588, -0.4454432427883148
219,514753440,0.24300236,-0.17723742,-0.09199381,0.94924915,-2.859685182571411,-2.310184955596924,9.187505722045898,5.303827285766602,-0.15625029802322388, -0.687816321849823
220,514770107,0.24310526,-0.17708907,-0.09131464,0.94931614,-2.8332862854003906,-2.215541362762451,9.251322746276855,3.720737934112549,-0.5353695154190063, -0.3575020432472229
221,514786774,0.24310862,-0.17699814,-0.09097358,0.94936496,-2.8434972763061523,-2.3022050857543945,9.196758270263672,1.2750194072723389,-0.7592885494232178, -0.11400213092565536
222,514803441,0.24309482,-0.176921,-0.0906681,0.9494121,-2.8197269439697266,-2.351500988006592,9.227099418640137,0.9930748343467712,-0.7313833832740784, -0.03966126590967178
223,514820108,0.24305779,-0.1768919,-0.090469435,0.94944596,-2.7969768047332764,-2.365142583847046,9.209338188171387,0.1762986034154892,-0.586940586566925, -0.009387053549289703
224,514836775,0.24299642,-0.17688611,-0.09031972,0.9494769,-2.779742956161499,-2.3533732891082764,9.137120246887207,-0.21514666080474854,-0.5202578902244568, 0.10139427334070206
225,514853442,0.24293052,-0.1768945,-0.09021925,0.94950175,-2.772082805633545,-2.3641769886016846,9.142995834350586,-0.5705869197845459,-0.49760350584983826, 0.07164512574672699
226,514870109,0.24283637,-0.17696229,-0.090268016,0.94950855,-2.84067964553833,-2.3339242935180664,9.171509742736816,-1.6896827220916748,-0.34614282846450806, 0.08245368301868439
227,514886776,0.2427429,-0.17705008,-0.09043652,0.94950014,-2.8794984817504883,-2.2849810123443604,9.136072158813477,-2.5159738063812256,-0.3913876414299011, -0.07863098382949829
228,514903443,0.24269444,-0.1770929,-0.0905345,0.94949514,-2.8159337043762207,-2.294032335281372,9.1183443069458,-1.9275349378585815,-0.5406585335731506, -0.3084537088871002
229,514920110,0.24266927,-0.17705916,-0.090576686,0.9495039,-2.830218553543091,-2.3454864025115967,9.128703117370605,-1.4021544456481934,-0.9436486959457397, -0.41691073775291443
230,514936777,0.2427068,-0.17697194,-0.09052921,0.9495151,-2.8044073581695557,-2.3515758514404297,9.18108081817627,-0.6510877013206482,-1.102434754371643, -0.7442026138305664
231,514953444,0.24277037,-0.17682932,-0.09039009,0.9495387,-2.78549861907959,-2.411219835281372,9.151780128479004,0.07784339785575867,-1.3031357526779175, -0.8164560198783875
232,514970111,0.2428688,-0.17659494,-0.090088606,0.9495858,-2.7649199962615967,-2.4487974643707275,9.1367769241333,1.3501287698745728,-1.6306582689285278, -0.8636475205421448
233,514986778,0.24301505,-0.17630817,-0.08975694,0.94963306,-2.774888515472412,-2.3393287658691406,9.162811279296875,1.6960667371749878,-1.8862218856811523, -1.1672476530075073
234,515003445,0.24321167,-0.17599615,-0.08938973,0.9496752,-2.801682233810425,-2.319476366043091,9.163039207458496,2.0272128582000732,-1.9475383758544922, -1.475726842880249
235,515020112,0.24340075,-0.17573136,-0.08902911,0.94970965,-2.7923319339752197,-2.304623603820801,9.11141300201416,1.8898907899856567,-1.6400580406188965, -1.4183802604675293
236,515036779,0.24356894,-0.17553814,-0.08866569,0.94973624,-2.7355222702026367,-2.2661848068237305,9.150954246520996,1.7563203573226929,-1.167606234550476, -1.243996024131775
237,515053446,0.24369656,-0.1754221,-0.08830249,0.9497588,-2.715240716934204,-2.2358131408691406,9.17645263671875,1.5718449354171753,-0.6758678555488586, -0.9409337043762207
238,515070113,0.24373645,-0.17542456,-0.08796452,0.9497795,-2.7610559463500977,-2.2569732666015625,9.129522323608398,1.0951926708221436,0.010994251817464828, -0.3205813765525818
239,515086780,0.24375777,-0.17539261,-0.087483495,0.9498244,-2.7141568660736084,-2.297961711883545,9.149517059326172,2.0822291374206543,-0.0036113904789090157, -0.024626608937978745
240,515103447,0.24373037,-0.17544593,-0.08707654,0.94985896,-2.765146017074585,-2.211531400680542,9.219677925109863,1.3889317512512207,0.41913262009620667, 0.2449662834405899
241,515120114,0.24369502,-0.17549555,-0.086708084,0.9498925,-2.7831246852874756,-2.2513232231140137,9.19393539428711,1.1274645328521729,0.3321390450000763, 0.25224024057388306
242,515136781,0.24364972,-0.1756053,-0.086521514,0.94990087,-2.8264126777648926,-2.2299046516418457,9.244324684143066,-0.18566647171974182,0.4547983407974243, 0.0753333568572998
243,515153448,0.24362202,-0.17567495,-0.0864,0.9499062,-2.806307077407837,-2.2846672534942627,9.225137710571289,-0.5270196795463562,0.10284139215946198, -0.147887721657753
244,515170115,0.24362893,-0.17571707,-0.086375326,0.94989884,-2.782308340072632,-2.23812198638916,9.236254692077637,-1.0955063104629517,-0.21207314729690552, -0.4747953712940216
245,515186782,0.24361561,-0.17572072,-0.08637039,0.949902,-2.774308919906616,-2.276578664779663,9.211474418640137,-1.1690404415130615,-0.5039554834365845, -0.41122472286224365
246,515203449,0.24358177,-0.17570825,-0.0863972,0.9499105,-2.7776925563812256,-2.3028345108032227,9.181011199951172,-1.3767081499099731,-0.6792488098144531, -0.2980549931526184
247,515220116,0.24354355,-0.17571528,-0.086440004,0.9499152,-2.738786458969116,-2.3208913803100586,9.172015190124512,-1.5348025560379028,-0.5832396149635315, -0.2355087697505951
248,515236783,0.24349979,-0.17576712,-0.0864462,0.94991636,-2.7192015647888184,-2.2462105751037598,9.156386375427246,-1.3751585483551025,-0.21874526143074036, -0.14200960099697113
249,515253450,0.24346054,-0.1758471,-0.08647474,0.9499089,-2.7447454929351807,-2.2261593341827393,9.148775100708008,-1.5448812246322632,-0.029428990557789803, -0.2772190570831299
250,515270117,0.2434169,-0.175958,-0.086512476,0.94989616,-2.737046241760254,-2.2155537605285645,9.185266494750977,-1.678016185760498,0.15808798372745514, -0.2141093760728836
251,515286784,0.24332456,-0.17610072,-0.08661072,0.94988436,-2.767885446548462,-2.295274496078491,9.198580741882324,-2.1737499237060547,0.25407159328460693, 0.00553874671459198
252,515303451,0.243197,-0.17629802,-0.08678599,0.94986445,-2.7979531288146973,-2.2966623306274414,9.199117660522461,-2.8272578716278076,0.46634963154792786, 0.20146308839321136
253,515320118,0.24306516,-0.17645612,-0.086968,0.9498523,-2.776042938232422,-2.287564277648926,9.187872886657715,-2.8048722743988037,0.19358716905117035, 0.20632950961589813
254,515336785,0.24299231,-0.17653835,-0.087141305,0.94983965,-2.760467290878296,-2.306154489517212,9.177051544189453,-2.5511398315429688,-0.2465222328901291, -0.21047231554985046
255,515353452,0.24295717,-0.17655222,-0.08718159,0.94984245,-2.7261433601379395,-2.3344886302948,9.193098068237305,-1.5024280548095703,-0.45078346133232117, -0.34490060806274414
256,515370119,0.24298376,-0.17655204,-0.087139,0.9498395,-2.767005443572998,-2.3020236492156982,9.163186073303223,-0.8768763542175293,-0.3633929491043091, -0.6241046190261841
257,515386786,0.2430659,-0.17656165,-0.0870456,0.9498253,-2.756221055984497,-2.250286102294922,9.145676612854004,-0.5345370173454285,-0.19319657981395721, -0.8225902318954468
258,515403453,0.24306585,-0.17666341,-0.08708212,0.9498031,-2.7447690963745117,-2.2453715801239014,9.197096824645996,-1.624664545059204,0.17459535598754883, -0.46452468633651733
259,515420120,0.24304095,-0.17678091,-0.087155744,0.9497809,-2.787085771560669,-2.2562012672424316,9.187853813171387,-1.9374468326568604,0.19630210101604462, -0.29755547642707825
260,515436787,0.24300188,-0.17686518,-0.08723429,0.9497678,-2.8078558444976807,-2.260070323944092,9.26965045928955,-1.8870667219161987,-0.0067617520689964294, -0.3512013256549835
261,515453454,0.24295281,-0.1769511,-0.08737863,0.9497512,-2.839059829711914,-2.3023059368133545,9.31347370147705,-2.383812427520752,-0.1452368199825287, -0.21302081644535065
262,515470121,0.24294685,-0.17686406,-0.08755217,0.949753,-2.831423282623291,-2.3651342391967773,9.260440826416016,-2.223438262939453,-1.3157243728637695, -0.6021801233291626
263,515486788,0.24296346,-0.17665252,-0.08778358,0.94976664,-2.7730777263641357,-2.2946133613586426,9.305828094482422,-2.3184614181518555,-2.186300039291382, -1.0050294399261475
264,515503455,0.2430479,-0.17628077,-0.08807511,0.94978714,-2.7731001377105713,-2.2701468467712402,9.327226638793945,-2.3982582092285156,-3.3299710750579834, -1.4732810258865356
265,515520122,0.2431625,-0.17584166,-0.08852668,0.9497973,-2.770261526107788,-2.2559642791748047,9.203864097595215,-3.2723045349121094,-3.971069812774658, -2.0276808738708496
266,515536789,0.24304414,-0.17527482,-0.08890178,0.9498972,-2.7019193172454834,-2.336686849594116,9.219826698303223,-2.340885639190674,-4.502572059631348, -1.8665382862091064
267,515553456,0.2431724,-0.17474896,-0.08920686,0.94993275,-2.6721880435943604,-2.3441948890686035,9.079559326171875,-2.181600570678711,-4.340149879455566, -1.815761685371399
268,515570123,0.24325994,-0.17422797,-0.08932214,0.9499952,-2.6197047233581543,-2.428215980529785,9.080456733703613,-0.9201874136924744,-3.9850542545318604, -1.4797097444534302
269,515586790,0.24346936,-0.17383766,-0.08926272,0.9500187,-2.6271562576293945,-2.32496976852417,9.075427055358887,-0.0680273249745369,-2.8983969688415527, -1.3696519136428833
270,515603457,0.24349746,-0.17356098,-0.0891237,0.95007503,-2.6027469635009766,-2.2915496826171875,9.021114349365234,0.3781779110431671,-1.870252013206482, -1.0406951904296875
271,515620124,0.24369541,-0.17349586,-0.0889202,0.9500553,-2.574496269226074,-2.305750846862793,9.043867111206055,0.2665833830833435,-0.49922990798950195, -0.9092124104499817
272,515636791,0.24373901,-0.17360269,-0.08864115,0.9500507,-2.6142685413360596,-2.2501351833343506,9.037457466125488,0.47814425826072693,0.8165520429611206, -0.3021273910999298
273,515653458,0.24382237,-0.1738497,-0.08833029,0.950013,-2.6271469593048096,-2.259699583053589,9.1148681640625,0.2974722981452942,1.684515357017517, 0.1269557625055313
274,515670125,0.24377005,-0.17417133,-0.08796617,0.95000136,-2.6705942153930664,-2.2643744945526123,9.140292167663574,0.5845906138420105,2.354492425918579, 0.4348844289779663
275,515686792,0.24367078,-0.17452364,-0.087532625,0.95000225,-2.651533365249634,-2.29430890083313,9.217461585998535,0.9435654878616333,2.6382808685302734, 0.8424338102340698
276,515703459,0.24358785,-0.17484243,-0.0871441,0.9500005,-2.728907346725464,-2.309079885482788,9.259693145751953,0.7098622918128967,2.3514442443847656, 0.7031262516975403
277,515720126,0.2434374,-0.17528884,-0.087377176,0.9499355,-2.737208843231201,-2.195988893508911,9.487509727478027,-3.848064661026001,2.029761552810669, 0.9360992908477783
278,515736793,0.24311638,-0.17588438,-0.08872481,0.9497828,-2.8339076042175293,-2.1575472354888916,9.861701011657715,-11.507970809936523,1.2738929986953735, 0.19101321697235107
279,515753460,0.2416044,-0.17952289,-0.0960262,0.948777,-2.827129602432251,-1.8797239065170288,10.700915336608887,-57.371192932128906,11.5797119140625, 0.9438841342926025
280,515770127,0.2404108,-0.18239519,-0.10405072,0.9476857,-3.4503419399261475,-2.6972808837890625,9.52962589263916,-60.63581085205078,5.595596790313721, -2.264448404312134
281,515786794,0.23995999,-0.18317015,-0.110406086,0.9469311,-3.2613770961761475,-2.9351742267608643,9.204509735107422,-45.094390869140625,-5.191897869110107, -6.039083003997803
282,515803461,0.24028099,-0.18127286,-0.114382274,0.9467428,-3.0172836780548096,-3.425039291381836,9.322081565856934,-23.784574508666992,-18.80099105834961, -9.167675018310547
283,515820128,0.24117734,-0.17731935,-0.11682729,0.9469651,-2.9541287422180176,-3.2098002433776855,9.489901542663574,-9.139837265014648,-29.46163558959961, -12.70072078704834
284,515836795,0.24268574,-0.17172934,-0.11824695,0.9474337,-2.7767720222473145,-3.245112657546997,9.328015327453613,1.1468861103057861,-38.28086471557617, -16.174596786499023
285,515853462,0.2447369,-0.16450226,-0.11872345,0.9481285,-2.6325933933258057,-3.206794261932373,9.452116012573242,10.954126358032227,-47.06639099121094, -19.945558547973633
286,515870129,0.2477669,-0.1559318,-0.118779235,0.9487827,-2.266376256942749,-3.1430954933166504,9.522473335266113,16.3629150390625,-55.16886901855469, -24.316452026367188
287,515886796,0.25093624,-0.14618711,-0.118537106,0.94953114,-1.8623074293136597,-3.267225980758667,9.593043327331543,21.021207809448242,-61.64329147338867, -27.69615364074707
288,515903463,0.25441948,-0.13643597,-0.11872733,0.9500315,-1.5396984815597534,-2.91853666305542,10.242974281311035,18.29575538635254,-61.96665954589844, -30.443021774291992
289,515920130,0.25764337,-0.12857163,-0.121421695,0.949919,-1.149971604347229,-1.9429455995559692,9.484834671020508,-2.1186721324920654,-53.647701263427734, -30.592714309692383
290,515936797,0.26053223,-0.12163558,-0.12431701,0.94966996,-0.9826184511184692,-2.478778123855591,7.607266902923584,-5.517126083374023,-48.07789993286133, -28.045970916748047
291,515953464,0.26315755,-0.11475208,-0.124477126,0.94978184,-0.8750696182250977,-3.2088170051574707,7.658276557922363,12.341904640197754,-43.354305267333984, -23.333406448364258
292,515970131,0.265159,-0.10922765,-0.1240384,0.94993395,-0.5899341106414795,-2.6275582313537598,9.087949752807617,13.366083145141602,-33.953773498535156, -17.533018112182617
293,515986798,0.26587757,-0.107326746,-0.1281799,0.94939977,-0.8799395561218262,-2.2004575729370117,10.040878295898438,-24.7049503326416,-19.193077087402344, -10.743274688720703
294,516003465,0.26611686,-0.10722861,-0.13445982,0.94847476,-1.4408313035964966,-2.3740322589874268,9.58295726776123,-42.683326721191406,-11.450521469116211, -8.31657886505127
295,516020132,0.26604334,-0.1084512,-0.14230534,0.9472111,-1.2452656030654907,-3.1052637100219727,9.77550220489502,-55.87105941772461,-5.744955062866211, -6.835644721984863
296,516036799,0.26691994,-0.10735511,-0.14814515,0.94619346,-1.440191388130188,-3.416104793548584,9.118589401245117,-37.61959457397461,-16.42986297607422, -13.340296745300293
297,516053466,0.2685654,-0.10409841,-0.15220718,0.94544655,-1.0730386972427368,-3.6001486778259277,9.234476089477539,-21.23495101928711,-26.650720596313477, -18.72965431213379
298,516070133,0.27080595,-0.09928824,-0.15522107,0.94483477,-0.4665873646736145,-3.5560178756713867,9.729508399963379,-10.973973274230957,-34.2896842956543, -23.21433448791504
299,516086800,0.2735528,-0.09359404,-0.15826912,0.9441188,-0.21516337990760803,-3.8703157901763916,9.343180656433105,-9.312676429748535,-39.46866989135742, -27.651395797729492
300,516103467,0.276929,-0.08586486,-0.15973072,0.94362277,0.3213566541671753,-4.0464253425598145,9.552817344665527,5.472713470458984,-49.13528823852539, -32.496681213378906
301,516120134,0.28087556,-0.07639749,-0.16003099,0.9432192,0.7019747495651245,-3.9609711170196533,9.842818260192871,16.773305892944336,-57.60110855102539, -37.221839904785156
302,516136801,0.28522214,-0.06516264,-0.15962505,0.9428266,1.1285773515701294,-3.7101876735687256,9.803570747375488,25.00121307373047,-67.23078155517578, -41.34494400024414
303,516153468,0.2900643,-0.052300114,-0.15818627,0.942393,1.7627434730529785,-3.1597092151641846,10.012969017028809,35.072471618652344,-75.15495300292969, -45.93556594848633
304,516170135,0.29531765,-0.037643936,-0.15590592,0.94184065,2.3269779682159424,-3.1313250064849854,9.653000831604004,44.11116027832031,-84.5560531616211, -50.46144485473633
305,516186802,0.30077502,-0.020540407,-0.15175107,0.9413204,2.8677213191986084,-3.2735812664031982,9.956029891967773,61.303558349609375,-96.32818603515625, -53.83100891113281
306,516203469,0.30624947,-0.0010052262,-0.14509934,0.9408277,2.955458879470825,-2.398580551147461,10.754962921142578,82.5286636352539,-106.82331085205078, -56.04139709472656
307,516220136,0.31173903,0.018354634,-0.14078549,0.93950063,2.994908332824707,-1.2031136751174927,10.54813003540039,66.17709350585938,-110.53185272216797, -57.71992874145508
308,516236803,0.31736732,0.03705676,-0.13738197,0.93756664,3.232783794403076,-1.0091586112976074,9.845332145690918,58.22657012939453,-108.12904357910156, -59.14863204956055
309,516253470,0.32301667,0.054328613,-0.13518661,0.93511146,3.9368834495544434,-1.3529659509658813,8.94558048248291,46.771080017089844,-101.61304473876953, -58.744667053222656
310,516270137,0.32818836,0.071108975,-0.13386492,0.9323712,3.949341297149658,-2.2285053730010986,9.186756134033203,39.952091217041016,-100.88504791259766, -55.500877380371094
311,516286804,0.33307576,0.08690554,-0.13367225,0.92932236,3.21106219291687,-1.3479630947113037,9.367332458496094,30.35786247253418,-97.49226379394531, -52.89796447753906
312,516303471,0.337806,0.10155252,-0.135187,0.9259043,3.398906946182251,-0.7268174290657043,8.643377304077148,16.553382873535156,-94.40980529785156, -50.64611053466797
313,516320138,0.34193477,0.11497935,-0.13779111,0.92242837,4.02710485458374,-0.9943414330482483,8.477103233337402,7.122537612915039,-89.75706481933594, -45.038543701171875
314,516336805,0.34544194,0.1272603,-0.14152831,0.9189368,5.472228527069092,-1.0253936052322388,9.62615966796875,-2.294905662536621,-85.72906494140625, -39.12810134887695
315,516353472,0.34860802,0.13847382,-0.14602031,0.9154099,6.026838302612305,-1.3332397937774658,9.768988609313965,-9.352277755737305,-81.09107971191406, -35.328426361083984
316,516370139,0.35112575,0.14886686,-0.1513791,0.9119395,6.118057727813721,-1.7586183547973633,9.651004791259766,-16.106563568115234,-78.54859924316406, -29.431554794311523
317,516386806,0.35289404,0.15800673,-0.15819569,0.90855587,5.661853313446045,-2.227659225463867,9.288551330566406,-27.40566635131836,-74.853759765625, -21.69717788696289
318,516403473,0.35424194,0.16608788,-0.1655118,0.90528077,4.004846096038818,-2.021977186203003,8.682249069213867,-32.49433898925781,-69.76136779785156, -17.090715408325195
319,516420140,0.35599142,0.17343125,-0.17278393,0.90185213,2.5428152084350586,-1.3789849281311035,7.9273834228515625,-34.630340576171875,-64.79720306396484, -19.161415100097656
320,516436807,0.3581087,0.18009931,-0.17911248,0.898466,1.991329550743103,-1.381235957145691,7.327591896057129,-30.819955825805664,-57.864925384521484, -21.655067443847656
321,516453474,0.36285678,0.18577391,-0.18480448,0.89424294,2.224504232406616,-1.4151713848114014,7.765989303588867,-24.660301208496094,-51.71825408935547, -22.934558868408203
322,516470141,0.36803874,0.19102949,-0.18943875,0.89003825,2.718172788619995,-1.4254741668701172,8.211198806762695,-19.51335906982422,-46.03423309326172, -26.53180503845215
323,516486808,0.37366688,0.19591242,-0.19304202,0.8858479,2.935732126235962,-1.46544349193573,7.680838584899902,-13.715576171875,-40.930320739746094, -28.834583282470703
324,516503475,0.37891328,0.2007369,-0.19543922,0.8820053,3.1044118404388428,-1.9268802404403687,7.376402378082275,-5.129225254058838,-37.615325927734375, -26.914146423339844
325,516520142,0.38099924,0.20627572,-0.19584423,0.8797357,3.4492416381835938,-2.135392904281616,8.094988822937012,4.6705002784729,-34.81446075439453, -25.203371047973633
326,516536809,0.38311026,0.21153796,-0.1962688,0.87747186,3.5367393493652344,-2.0765793323516846,8.829959869384766,3.8149514198303223,-33.196414947509766, -24.95520782470703
327,516553476,0.38525644,0.2162208,-0.19723539,0.8751711,4.0299296379089355,-1.7490252256393433,8.62179946899414,-1.0715515613555908,-31.192094802856445, -23.7091007232666
328,516570143,0.3871047,0.22008786,-0.19851428,0.8730999,4.545060157775879,-1.899009108543396,8.542610168457031,-4.354100227355957,-27.21661376953125, -19.748010635375977
329,516586810,0.3885218,0.22288974,-0.20041837,0.871323,4.613863945007324,-2.050736904144287,9.007585525512695,-9.878154754638672,-22.6607723236084, -13.983858108520508
330,516603477,0.38973585,0.22453786,-0.20305112,0.8697466,4.0621418952941895,-1.6901973485946655,8.810293197631836,-16.727630615234375,-17.706180572509766, -9.53689956665039
331,516620144,0.39050156,0.22545497,-0.20573263,0.86853474,3.109812021255493,-1.8473870754241943,8.86083984375,-17.77594566345215,-13.577339172363281, -4.793936729431152
332,516636811,0.3909162,0.22620709,-0.20784774,0.86764866,2.3230254650115967,-1.8200945854187012,8.674508094787598,-13.828927993774414,-11.13556957244873, -2.486893653869629
333,516653478,0.39085022,0.22720063,-0.20899412,0.8671433,1.85389244556427,-1.6737672090530396,9.19959831237793,-6.1075310707092285,-10.153621673583984, -0.4721831977367401
334,516670145,0.39075476,0.22803868,-0.20917132,0.86692363,1.6600590944290161,-1.2936924695968628,9.062084197998047,-0.29761964082717896,-6.322547912597656, -0.8457316160202026
335,516686812,0.39060172,0.22837704,-0.20882775,0.8669864,2.0725035667419434,-1.5964641571044922,9.358376502990723,1.9441637992858887,-1.6898490190505981, 0.1349981278181076
336,516703479,0.39024124,0.22820407,-0.20784414,0.86743045,2.7049264907836914,-1.6312732696533203,9.379572868347168,5.249342441558838,3.27955961227417, 2.0996973514556885
337,516720146,0.38973498,0.22764362,-0.20583886,0.86828315,2.4470324516296387,-1.7409160137176514,9.620720863342285,11.106167793273926,8.682616233825684, 2.9942102432250977
338,516736813,0.389022,0.22643043,-0.20318677,0.8695439,2.3323538303375244,-2.095290422439575,9.652665138244629,14.112114906311035,14.56922435760498, 5.208830833435059
339,516753480,0.38795057,0.22430134,-0.19984983,0.87134576,2.4343831539154053,-2.4735782146453857,9.24629020690918,17.071767807006836,22.12822914123535, 8.982573509216309
340,516770147,0.38632244,0.22096767,-0.19588628,0.87381744,2.185723066329956,-3.518862724304199,9.042014122009277,19.4051513671875,31.205923080444336, 14.760981559753418
341,516786814,0.38466597,0.21566097,-0.19249122,0.876624,1.2409559488296509,-3.289684534072876,8.543750762939453,11.283675193786621,41.941246032714844, 19.296491622924805
342,516803481,0.38298386,0.20826377,-0.19033872,0.8796141,1.3582512140274048,-3.378063201904297,8.324933052062988,-1.416551947593689,51.40425109863281, 24.49761390686035
343,516820148,0.38068616,0.19995376,-0.18771996,0.88309556,1.8603237867355347,-3.640268564224243,8.296602249145508,0.5624056458473206,57.972206115722656, 29.995513916015625
344,516836815,0.37820375,0.19150345,-0.18458086,0.8866896,2.3439791202545166,-2.7100863456726074,9.5244140625,3.7980339527130127,60.04081344604492, 30.834964752197266
345,516853482,0.3788584,0.18040814,-0.18366154,0.8889252,3.6608848571777344,-2.2908380031585693,10.190299034118652,-13.657000541687012,68.9383773803711, 31.05508804321289
346,516870149,0.37886754,0.16526957,-0.18497175,0.8915889,6.376588821411133,-3.3133838176727295,10.670205116271973,-37.73399353027344,87.67900085449219, 42.51991653442383
347,516886816,0.3767324,0.14541672,-0.1862943,0.895668,9.745593070983887,-4.770161151885986,10.19405746459961,-47.359413146972656,115.69332122802734, 63.35923385620117
348,516903483,0.37017277,0.12200728,-0.18392651,0.9023622,12.2689208984375,-6.648122787475586,10.953146934509277,-32.030147552490234,147.42730712890625, 85.12311553955078
349,516920150,0.36035135,0.09503647,-0.17167208,0.91194504,15.04624080657959,-7.426904201507568,10.901811599731445,26.7323055267334,193.19496154785156, 108.94976806640625
350,516936817,0.34699166,0.06574636,-0.15068023,0.92334694,15.45997428894043,-5.6510539054870605,13.311609268188477,80.3602066040039,226.69850158691406, 132.73973083496094
351,516953484,0.3318172,0.030241042,-0.12814842,0.93410975,11.986224174499512,-4.0581159591674805,17.198352813720703,75.53580474853516,267.9878845214844, 148.56739807128906
352,516970151,0.31644046,-0.010576716,-0.09919317,0.94335276,0.28425002098083496,-7.938834190368652,15.874981880187988,103.40480041503906,316.5428161621094, 149.81689453125
353,516986818,0.3055238,-0.047095895,-0.06342041,0.94890213,5.494067192077637,-2.4162254333496094,12.92071533203125,154.9205780029297,306.75592041015625, 110.3918228149414
354,517003485,0.30016035,-0.0730589,-0.025142344,0.9507545,13.57679557800293,8.052706718444824,-3.8853042125701904,193.6317901611328,246.859375, 62.594764709472656
355,517020152,0.29700407,-0.09796461,-0.01737661,0.9496787,14.850948333740234,26.637582778930664,-6.173238277435303,-3.288231134414673,179.11349487304688, 26.58673095703125
356,517036819,0.28696287,-0.13333888,-0.046114013,0.94749504,-1.0207173824310303,-0.9982895851135254,4.943890571594238,-268.49578857421875,173.27536010742188, 45.83287048339844
357,517053486,0.28016013,-0.15642464,-0.05407839,0.94557786,-3.9140987396240234,-8.368618965148926,6.892050743103027,-105.75799560546875,134.93894958496094, 40.43300247192383
358,517070153,0.27541316,-0.17107867,-0.054536805,0.9444076,-0.9969947338104248,2.7515456676483154,3.730623245239258,-38.03900146484375,94.46322631835938, 33.49953079223633
359,517086820,0.27157667,-0.18258458,-0.059998058,0.9430319,-3.739976406097412,1.8896363973617554,3.6433398723602295,-63.63692855834961,65.12808990478516, 20.104736328125
360,517103487,0.26866314,-0.1908681,-0.067361586,0.9417282,-8.055503845214844,-1.4078387022018433,5.226327896118164,-68.81676483154297,40.90493392944336, 10.506378173828125
361,517120154,0.26776356,-0.1942473,-0.07117134,0.941013,-8.483043670654297,-1.4293854236602783,4.586432933807373,-33.82222366333008,15.71717357635498, 0.9182261228561401
362,517136821,0.2695885,-0.19246776,-0.07055714,0.9409039,-8.113499641418457,0.23397986590862274,4.39852237701416,8.240838050842285,-9.161314964294434, -12.24704647064209
363,517153488,0.27314222,-0.18667246,-0.0679074,0.9412414,-8.196639060974121,-0.10519970208406448,4.750594139099121,31.327346801757812,-31.28126335144043, -21.91069984436035
364,517170155,0.2777079,-0.17784926,-0.06644538,0.94171816,-8.200294494628906,-0.0571167916059494,6.627472400665283,30.66681480407715,-52.97633743286133, -31.18097496032715
365,517186822,0.2828537,-0.16731705,-0.06809958,0.9419986,-7.993124008178711,-1.6054000854492188,8.341930389404297,14.337434768676758,-69.63738250732422, -39.94090270996094
366,517203489,0.2884566,-0.1552317,-0.06995515,0.94223267,-6.867913722991943,-3.3205456733703613,9.070310592651367,16.548704147338867,-79.95838165283203, -43.968814849853516
367,517220156,0.29447827,-0.14140123,-0.07138,0.94244015,-4.759657382965088,-2.3235998153686523,8.864773750305176,23.261640548706055,-90.29267120361328, -47.111392974853516
368,517236823,0.29933843,-0.12648912,-0.07344866,0.94286925,-3.519745349884033,-3.099433660507202,9.703314781188965,20.26666259765625,-99.45842742919922, -40.283485412597656
369,517253490,0.30331087,-0.10907354,-0.07304635,0.94380605,-3.2814059257507324,-4.010591983795166,12.299263954162598,40.945072174072266,-111.53282165527344, -32.57914352416992
370,517270157,0.30653897,-0.08989494,-0.07353676,0.94474614,-3.868036985397339,-4.132114410400391,13.56151008605957,38.30402755737305,-125.2425537109375, -29.269102096557617
371,517286824,0.30905834,-0.07307829,-0.08077132,0.944785,-2.223109722137451,-2.967015266418457,13.677666664123535,-11.34460735321045,-123.96238708496094, -29.519081115722656
372,517303491,0.3118831,-0.059946336,-0.095366165,0.94341975,-2.044222593307495,-4.752605438232422,15.239206314086914,-67.60679626464844,-114.809814453125, -36.125972747802734
373,517320158,0.31576008,-0.049934093,-0.11404865,0.94063574,-2.6697230339050293,-5.629120349884033,17.775880813598633,-101.27120971679688,-102.08707427978516, -45.626163482666016
374,517336825,0.3197612,-0.044001985,-0.13368404,0.9369874,-0.48129579424858093,-4.601067066192627,15.967379570007324,-116.8900146484375,-77.41737365722656, -45.44039535522461
375,517353492,0.32363912,-0.034999784,-0.14394188,0.9345125,1.4376486539840698,-6.384310245513916,16.474702835083008,-48.66909408569336,-77.04884338378906, -42.051021575927734
376,517370159,0.32951164,-0.015094756,-0.13504316,0.934322,2.0461490154266357,2.0568110942840576,-9.630969047546387,101.46519470214844,-103.03242492675781, -55.94241714477539
377,517386826,0.3471512,0.023949241,-0.13855104,0.92720884,30.90383529663086,36.30145263671875,-25.691770553588867,59.958438873291016,-242.46112060546875, -166.27549743652344
378,517403493,0.35593045,0.061545145,-0.15338516,0.919782,29.110095977783203,-22.606765747070312,35.92507553100586,-15.211543083190918,-267.998291015625, -106.9411392211914
379,517420160,0.36902714,0.098163344,-0.15805314,0.9106054,3.125312089920044,-5.099238872528076,12.603998184204102,43.345191955566406,-232.6414337158203, -141.67543029785156
380,517436827,0.37739506,0.13224876,-0.15706858,0.903002,20.324268341064453,-0.21998362243175507,15.717507362365723,77.25942993164062,-206.53578186035156, -109.11988067626953
381,517453494,0.38440076,0.15229858,-0.17301728,0.89392745,20.637399673461914,-4.691605091094971,9.35769271850586,-64.7200927734375,-165.82334899902344, -73.78144073486328
382,517470161,0.39091745,0.16907556,-0.19107606,0.8843569,15.209601402282715,-3.681903123855591,10.80682373046875,-86.34683227539062,-152.06832885742188, -65.87356567382812
383,517486828,0.39891097,0.18273336,-0.2067521,0.8744898,6.706273078918457,-5.754898548126221,5.859076976776123,-68.87135314941406,-131.47250366210938, -48.1522331237793
384,517503495,0.40123662,0.19530246,-0.21516572,0.8686598,-0.2052004039287567,-1.7501380443572998,6.743181228637695,-28.685903549194336,-101.4306411743164, -36.604148864746094
385,517520162,0.40294018,0.20512809,-0.22058016,0.8642373,-5.410543918609619,-1.7313532829284668,7.114134311676025,-15.415488243103027,-75.90777587890625, -28.984079360961914
386,517536829,0.40464684,0.21354163,-0.22322208,0.86071664,-7.018950462341309,-2.769796371459961,5.991292953491211,-1.487505316734314,-58.76918029785156, -28.31816864013672
387,517553496,0.4062823,0.2219903,-0.22287762,0.85789317,-6.414841651916504,-3.3706653118133545,5.9910149574279785,17.479928970336914,-49.97601318359375, -30.47073745727539
388,517570163,0.40796453,0.23077682,-0.22046821,0.85539526,-3.469517469406128,-4.459042549133301,7.26198673248291,31.06443214416504,-45.839561462402344, -33.58818817138672
389,517586830,0.40889204,0.23903312,-0.21680379,0.8536198,0.4111442565917969,-4.406323432922363,8.737910270690918,39.299415588378906,-39.36591339111328, -28.392181396484375
390,517603497,0.40875956,0.24554557,-0.2130989,0.85276747,3.1224937438964844,-4.035051345825195,12.115272521972656,37.79657745361328,-29.19501495361328, -17.107913970947266
391,517620164,0.40836748,0.24957536,-0.2105346,0.8524221,3.6004910469055176,-1.5082565546035767,14.408419609069824,25.340251922607422,-17.47968101501465, -8.64578914642334
392,517636831,0.40748313,0.25110272,-0.20748286,0.85314476,2.3533482551574707,-0.7941880822181702,13.954850196838379,23.537582397460938,-0.4555099606513977, 0.008144854567945004
393,517653498,0.4056379,0.25108775,-0.20251033,0.8552208,0.8301853537559509,-1.7317540645599365,11.719420433044434,34.038978576660156,14.794320106506348, 8.308794975280762
394,517670165,0.40304062,0.25029632,-0.19663306,0.8580476,0.38536351919174194,-3.1694986820220947,10.219076156616211,39.52912139892578,21.994304656982422, 14.3165283203125
395,517686832,0.4003955,0.24913427,-0.19135709,0.8608126,-0.1785496324300766,-4.208804130554199,9.604883193969727,34.97538757324219,22.21895980834961, 15.918065071105957
396,517703499,0.3980688,0.2476847,-0.1881744,0.8630086,-0.7340384721755981,-4.336761951446533,9.261419296264648,20.544870376586914,17.47618865966797, 16.374481201171875
397,517720166,0.39622784,0.2454472,-0.18644534,0.8648684,-0.04839310050010681,-3.3082315921783447,9.28911304473877,8.547779083251953,18.09890365600586, 16.00843048095703
398,517736833,0.39488786,0.24186315,-0.1850435,0.86678994,0.8372631669044495,-1.8462765216827393,9.855782508850098,2.1960015296936035,25.8466796875, 15.432892799377441
399,517753500,0.39456832,0.23614815,-0.18356769,0.8688227,1.3676459789276123,-0.36953040957450867,10.253037452697754,-4.7025465965271,40.12809753417969, 12.216827392578125
400,517770167,0.39505598,0.22810921,-0.18104032,0.8712758,1.4067991971969604,-1.1582129001617432,10.019718170166016,-5.531208515167236,58.47186279296875, 9.754865646362305
401,517786834,0.3955052,0.2181925,-0.17796688,0.87424,0.7445323467254639,-1.9498980045318604,8.876630783081055,-6.675526142120361,71.87289428710938, 12.83747673034668
402,517803501,0.39499742,0.20646447,-0.1757974,0.8777499,0.6672706007957458,-2.4056355953216553,8.605323791503906,-14.926881790161133,79.87091064453125, 23.618148803710938
403,517820168,0.39347658,0.1931752,-0.17346755,0.88191205,2.85390043258667,-2.211766242980957,9.323905944824219,-15.961755752563477,89.3582992553711, 33.130496978759766
404,517836835,0.39164427,0.1773428,-0.17055665,0.8866088,5.667402744293213,-2.270214319229126,9.626932144165039,-17.511781692504883,106.36134338378906, 40.26743698120117
405,517853502,0.3882043,0.15844642,-0.16646294,0.89245856,8.726858139038086,-5.211695194244385,8.274023056030273,-14.697355270385742,127.4815444946289, 56.715267181396484
406,517870169,0.38270694,0.13466127,-0.16088414,0.89973223,13.613168716430664,-7.015270233154297,9.707189559936523,-14.164443016052246,160.3428192138672, 78.93037414550781
407,517886836,0.3744938,0.10676021,-0.15006292,0.90875626,15.793513298034668,-9.031790733337402,9.599654197692871,10.150201797485352,199.3994903564453, 95.25983428955078
408,517903503,0.36349872,0.07781229,-0.12673609,0.9196478,16.381786346435547,-6.684848308563232,11.741363525390625,89.716552734375,236.90420532226562, 109.37864685058594
409,517920170,0.35053405,0.042890754,-0.09775866,0.9304459,11.93543815612793,-2.4908313751220703,16.523466110229492,111.5986557006836,287.3282470703125, 123.84579467773438
410,517936837,0.33501866,0.000051727984,-0.06332671,0.9400811,9.437959671020508,-5.879467487335205,14.660429000854492,127.40909576416016,349.3179626464844, 141.14816284179688
411,517953504,0.32224223,-0.04410898,-0.026457883,0.945259,4.419679164886475,-0.2659038305282593,18.117103576660156,138.2682342529297,364.8334655761719, 113.77713012695312
412,517970171,0.3159133,-0.077575184,0.002907766,0.945607,19.00621223449707,10.438023567199707,1.8360116481781006,114.20671081542969,281.3161926269531, 56.92308044433594
413,517986838,0.3091936,-0.10940824,0.0028683,0.9446804,16.417264938354492,27.067800521850586,-3.4875612258911133,-73.84970092773438,207.85548400878906, 41.0411491394043
414,518003505,0.2944057,-0.15299572,-0.030915732,0.9428477,0.3004322946071625,-0.16812309622764587,9.44674015045166,-324.7240905761719,213.7213592529297, 65.89422607421875
415,518020172,0.27897352,-0.19011761,-0.046564,0.9401389,3.670530080795288,-11.649775505065918,6.103112697601318,-194.81204223632812,209.29940795898438, 86.04829406738281
416,518036839,0.26697847,-0.21538949,-0.045135844,0.9382392,1.5825881958007812,-0.7698158025741577,4.347778797149658,-56.678348541259766,165.5452117919922, 84.00717163085938
417,518053506,0.25838017,-0.23156422,-0.04027277,0.93701446,-5.3303542137146,-2.5207571983337402,1.5090761184692383,-12.55804443359375,113.25717163085938, 65.60781860351562
418,518070173,0.25522023,-0.23731741,-0.028918648,0.9368601,-11.484453201293945,-0.9318897724151611,1.869281530380249,56.781219482421875,57.351802825927734, 39.90098571777344
419,518086840,0.25591373,-0.23502603,-0.020608583,0.9374681,-11.346739768981934,4.070584297180176,2.2054457664489746,57.739681243896484,-0.48376572132110596, 9.793806076049805
420,518103507,0.2577024,-0.22853842,-0.020328764,0.93858755,-11.077890396118164,4.726807594299316,5.132959365844727,15.125378608703613,-42.5205078125, -10.017572402954102
421,518120174,0.25982755,-0.22008263,-0.028899688,0.9397968,-10.674103736877441,2.3833794593811035,7.602881908416748,-38.06513595581055,-71.15930938720703, -26.28011703491211
422,518136841,0.26302725,-0.21028073,-0.039502952,0.9407647,-9.027920722961426,-0.676196813583374,8.680480003356934,-47.28691482543945,-83.04635620117188, -37.035614013671875
423,518153508,0.2676841,-0.19899046,-0.048147287,0.94150424,-8.968064308166504,-2.0745484828948975,9.295100212097168,-29.90203285217285,-88.50879669189453, -44.458187103271484
424,518170175,0.27462432,-0.18501659,-0.052852634,0.9421026,-8.03958511352539,-2.868049144744873,10.162957191467285,3.611480474472046,-97.78720092773438, -55.00568771362305
425,518186842,0.282592,-0.16935317,-0.05440835,0.94260347,-7.370294094085693,-1.7730391025543213,11.796004295349121,28.48394775390625,-102.37642669677734, -58.453006744384766
426,518203509,0.28969926,-0.15472572,-0.05613663,0.94285905,-7.188096046447754,-1.9451146125793457,12.7515230178833,24.244184494018555,-96.10598754882812, -53.17306137084961
427,518220176,0.29508772,-0.14254272,-0.057928067,0.94300014,-6.616193771362305,-3.003110408782959,11.850674629211426,17.079145431518555,-80.99657440185547, -41.384761810302734
428,518236843,0.29880807,-0.13175257,-0.05931566,0.94331163,-5.2768683433532715,-3.0846993923187256,9.448201179504395,15.316046714782715,-72.04729461669922, -29.273157119750977
429,518253510,0.3018712,-0.120171405,-0.061186362,0.94376326,-4.164591312408447,-1.2298475503921509,8.129490852355957,13.292722702026367,-78.62538146972656, -25.480180740356445
430,518270177,0.30560884,-0.10783619,-0.06689074,0.9436633,-4.226372718811035,1.1980491876602173,9.043763160705566,-9.69804859161377,-90.78408813476562, -34.48640060424805
431,518286844,0.30960685,-0.09529869,-0.07823759,0.9428367,-2.9872541427612305,-0.17976132035255432,10.654226303100586,-46.07683563232422,-103.3454360961914, -41.98225402832031
432,518303511,0.31425244,-0.08088447,-0.09011451,0.94158506,0.049315162003040314,-2.516967296600342,9.792221069335938,-45.35535430908203,-116.04228973388672, -48.437255859375
433,518320178,0.3206545,-0.06066317,-0.09354234,0.9406118,2.6165573596954346,-3.9490530490875244,10.54836654663086,23.054975509643555,-134.43310546875, -58.083770751953125
434,518336845,0.32738313,-0.0356599,-0.0923238,0.93969405,2.7110180854797363,-3.862802267074585,12.260096549987793,63.859046936035156,-154.8780975341797, -61.1751708984375
435,518353512,0.33397186,-0.010983316,-0.09684247,0.9375308,1.2791146039962769,-0.43883341550827026,0.7914764285087585,25.258901596069336,-165.41490173339844, -64.24124145507812
436,518370179,0.35175845,0.03750539,-0.09971575,0.9300087,26.338539123535156,28.653636932373047,-36.01594543457031,87.87177276611328,-307.3750305175781, -164.48922729492188
437,518386846,0.35986304,0.07285204,-0.12750976,0.9213754,31.238306045532227,-26.913862228393555,37.9773063659668,-101.9727554321289,-289.976806640625, -89.55628204345703
438,518403513,0.3705646,0.111406624,-0.14024648,0.9113735,-6.495218753814697,-0.276375412940979,8.975664138793945,-0.7474944591522217,-271.02435302734375, -119.72785949707031
439,518420180,0.37614068,0.14260443,-0.148016,0.9034787,16.980342864990234,-6.275721073150635,12.136137008666992,17.573835372924805,-215.73422241210938, -78.92657470703125
440,518436847,0.37950194,0.1711955,-0.15137246,0.89652485,23.576244354248047,0.4396415948867798,10.89914321899414,41.45440673828125,-189.2440185546875, -64.38932800292969
441,518453514,0.3846402,0.18872456,-0.16149756,0.88901836,24.00257682800293,-1.5498790740966797,17.35691261291504,-31.831787109375,-137.201904296875, -57.219120025634766
442,518470181,0.39266133,0.2014052,-0.17798494,0.8795309,15.447511672973633,-3.964453935623169,10.538406372070312,-81.1507797241211,-126.68231964111328, -49.360172271728516
443,518486848,0.398729,0.21128589,-0.19121231,0.8716716,5.808798789978027,-2.431889295578003,9.697321891784668,-67.76345825195312,-99.66226196289062, -42.12058639526367
444,518503515,0.40176436,0.21921685,-0.20216261,0.865829,-2.180220365524292,-2.483487367630005,8.02253532409668,-57.25769805908203,-80.97908020019531, -28.17589569091797
445,518520182,0.40370923,0.22493932,-0.21056971,0.86144173,-7.905821323394775,-2.2555534839630127,6.4377851486206055,-44.535640716552734,-60.26231002807617, -18.437149047851562
446,518536849,0.40436986,0.23030055,-0.21609847,0.85834044,-8.063575744628906,-2.4041948318481445,5.195265293121338,-24.626920700073242,-50.20396423339844, -11.225444793701172
447,518553516,0.4041353,0.23588996,-0.22010984,0.85591054,-6.186280250549316,-3.703402042388916,7.384220123291016,-12.602673530578613,-47.78348159790039, -6.864109992980957
448,518570183,0.4035564,0.24153794,-0.2223952,0.8540154,-2.1166226863861084,-3.5572447776794434,9.370027542114258,-0.8847326040267944,-43.162208557128906, -6.297603607177734
449,518586850,0.40328613,0.24630968,-0.22325589,0.8525542,0.7827334403991699,-3.6061627864837646,12.668124198913574,5.221816062927246,-33.0081901550293, -7.975942611694336
450,518603517,0.40319866,0.2500235,-0.22172111,0.8519149,1.2868242263793945,-1.8327573537826538,13.485219955444336,17.28977394104004,-18.621925354003906, -9.240175247192383
451,518620184,0.4026857,0.25201148,-0.21895093,0.8522882,-0.036788128316402435,-2.3240694999694824,13.97693157196045,22.000085830688477,-4.125726699829102, -3.4514071941375732
452,518636851,0.40131828,0.2527614,-0.21445826,0.8538519,0.7707095146179199,-1.6408411264419556,11.676668167114258,31.927488327026367,8.522754669189453, 3.7041549682617188
453,518653518,0.39926523,0.25240377,-0.20795389,0.85652494,1.5417273044586182,-2.5491533279418945,10.25292682647705,43.49691390991211,21.380043029785156, 8.910279273986816
454,518670185,0.39666572,0.25105023,-0.2007319,0.859847,2.0309572219848633,-3.101980447769165,10.1165771484375,46.870208740234375,29.475719451904297, 14.062832832336426
455,518686852,0.39490876,0.24855785,-0.1944481,0.8628188,1.478210210800171,-3.0751123428344727,10.152341842651367,36.29378890991211,34.133209228515625, 11.288804054260254
456,518703519,0.39448658,0.24448107,-0.19001722,0.8651606,0.398070752620697,-3.5630078315734863,9.264942169189453,17.890914916992188,39.12801742553711, 6.91427755355835
457,518720186,0.39493945,0.23935343,-0.18638107,0.8671765,-0.0879702940583229,-4.624095916748047,8.439494132995605,8.440500259399414,43.73320388793945, 3.4960873126983643
458,518736853,0.39587364,0.23290847,-0.18309596,0.8692029,-0.06449148058891296,-3.3895480632781982,8.446775436401367,2.0335071086883545,51.18537521362305, 2.8730480670928955
459,518753520,0.39689732,0.2242811,-0.18090066,0.8714618,0.5860714912414551,-2.1574180126190186,9.16147518157959,-10.245362281799316,61.66720962524414, 7.427626132965088
460,518770187,0.3974246,0.21347788,-0.17901391,0.8743198,0.7146686911582947,-1.4754372835159302,9.40616226196289,-16.515380859375,74.09681701660156, 15.196419715881348
461,518786854,0.39663997,0.20059721,-0.17581278,0.87836635,1.1812729835510254,-0.5687705278396606,9.672904968261719,-11.80571460723877,90.57193756103516, 25.181352615356445
462,518803521,0.39575973,0.18390748,-0.17380118,0.8828055,2.5378262996673584,0.7481073141098022,10.348484992980957,-28.584869384765625,110.65718078613281, 33.36012649536133
463,518820188,0.39436054,0.16337317,-0.17255877,0.8877008,3.2978224754333496,-3.244061231613159,9.053077697753906,-42.15040969848633,131.67388916015625, 44.123878479003906
464,518836855,0.39100465,0.14052805,-0.16813958,0.893922,6.447545051574707,-5.458853721618652,7.1718668937683105,-24.391616821289062,153.0798797607422, 60.98997497558594
465,518853522,0.3841096,0.11468052,-0.16135834,0.9018159,11.5951566696167,-8.59741497039795,8.963090896606445,-13.110723495483398,175.8084259033203, 86.88468170166016
466,518870189,0.3742197,0.086578846,-0.14620209,0.91164076,17.636634826660156,-9.665475845336914,9.390074729919434,37.47093200683594,210.2486114501953, 106.43977355957031
467,518886856,0.36033297,0.055741746,-0.11854565,0.92358005,19.294633865356445,-8.431614875793457,11.739615440368652,113.43730926513672,257.0667419433594, 132.2808074951172
468,518903523,0.34375045,0.017694237,-0.08321865,0.9351991,16.19074821472168,-2.7203376293182373,17.553504943847656,145.19583129882812,319.86663818359375, 151.61143493652344
469,518920190,0.32485992,-0.029517472,-0.04476452,0.944241,8.81054401397705,-6.9513630867004395,22.029041290283203,142.48606872558594,384.8601989746094, 165.30828857421875
470,518936857,0.31161672,-0.07340325,-0.0075915162,0.9473381,11.83820629119873,3.120922803878784,17.58083152770996,140.9783172607422,363.4155578613281, 114.0640640258789
471,518953524,0.30673373,-0.11053679,-0.0012173608,0.94535434,28.305259704589844,26.474342346191406,-8.479568481445312,-41.35810089111328,256.51300048828125, 32.79964065551758
472,518970191,0.29193324,-0.15141031,-0.02924405,0.94392514,10.704442977905273,19.85248565673828,0.7756422758102417,-280.8811950683594,208.23733520507812, 72.36557006835938
473,518986858,0.28052998,-0.18089025,-0.038917996,0.9418424,-1.9967727661132812,-15.06305980682373,6.163669109344482,-135.69284057617188,172.6072235107422, 65.81277465820312
474,519003525,0.27511695,-0.19661853,-0.02644485,0.9407191,0.7977715730667114,0.7009380459785461,2.180206537246704,42.21257781982422,126.6468276977539, 52.78472137451172
475,519020192,0.27036867,-0.20783357,-0.020398067,0.939835,-3.749922752380371,-0.04188133031129837,1.6185712814331055,10.121360778808594,85.10901641845703, 39.41011047363281
476,519036859,0.26913184,-0.2099226,-0.014030425,0.93984246,-9.810723304748535,1.8634692430496216,4.6214280128479,34.30498123168945,25.897573471069336, 17.534759521484375
477,519053526,0.27068874,-0.20501894,-0.011225071,0.9405154,-11.643783569335938,1.6120330095291138,5.181239128112793,28.282316207885742,-26.69440460205078, -5.144505023956299
478,519070193,0.27469432,-0.19545345,-0.013106836,0.9413657,-12.28828239440918,3.1094608306884766,7.416621208190918,10.073960304260254,-65.7733383178711, -27.651309967041016
479,519086860,0.27978608,-0.18446745,-0.021781,0.9419222,-10.418776512145996,1.0886629819869995,8.903203010559082,-29.845075607299805,-87.45213317871094, -44.52324295043945
480,519103527,0.28561756,-0.17380992,-0.0340147,0.9418364,-8.991791725158691,-1.4272855520248413,10.517633438110352,-52.73318099975586,-91.36463928222656, -55.023529052734375
481,519120194,0.291625,-0.16425067,-0.04431835,0.94128245,-8.504924774169922,-4.035254001617432,11.183436393737793,-42.30158996582031,-79.9522476196289, -54.51543045043945
482,519136861,0.2975781,-0.15527499,-0.04817496,0.94075316,-9.17299747467041,-4.5437445640563965,11.805124282836914,-1.7747811079025269,-63.37651443481445, -46.651588439941406
483,519153528,0.30255884,-0.14826712,-0.04860095,0.940273,-9.766307830810547,-4.020078659057617,11.624282836914062,15.39879322052002,-44.097557067871094, -35.95204162597656
484,519170195,0.30586594,-0.14426745,-0.0491379,0.93979704,-9.284087181091309,-3.7812814712524414,10.673941612243652,6.7444868087768555,-25.54898452758789, -24.24298858642578
485,519186862,0.3074817,-0.14211674,-0.04956989,0.9395747,-8.566697120666504,-4.38364315032959,9.655583381652832,1.9685240983963013,-14.30530071258545, -12.065133094787598
486,519203529,0.3083819,-0.13952802,-0.047298282,0.9397848,-7.777827262878418,-3.8849196434020996,9.402876853942871,19.846158981323242,-12.178606033325195, -4.046788692474365
487,519220196,0.3093012,-0.13538107,-0.042764153,0.9403063,-6.874608993530273,-2.452483654022217,9.008761405944824,37.920753479003906,-17.824359893798828, -1.854601502418518
488,519236863,0.3107249,-0.12957418,-0.039686445,0.94078976,-5.465120315551758,0.3106802999973297,8.726272583007812,32.50577163696289,-31.53917694091797, -7.046964168548584
489,519253530,0.31101203,-0.123194814,-0.04186832,0.9414572,-4.359077453613281,-0.0700080543756485,9.077796936035156,-1.2809908390045166,-47.00241470336914, -4.15064811706543
490,519270197,0.31059885,-0.1159257,-0.048875995,0.9421788,-3.0284109115600586,-0.8035717606544495,9.060190200805664,-31.21413230895996,-63.36178207397461, -3.848299026489258
491,519286864,0.31140453,-0.1070816,-0.061783556,0.94220155,-1.723425030708313,-0.6416980624198914,8.423093795776367,-65.34371185302734,-85.21427154541016, -18.46875762939453
492,519303531,0.31483722,-0.09382693,-0.07813059,0.9412596,-1.9988549947738647,-0.7206280827522278,12.248257637023926,-76.67071533203125,-119.33122253417969, -41.95600128173828
493,519320198,0.3201338,-0.07275889,-0.09163109,0.94011927,3.2128865718841553,-3.491438388824463,10.233931541442871,-40.26116180419922,-162.61663818359375, -56.80331802368164
494,519336865,0.33321357,-0.026810486,-0.08233062,0.93886715,10.14688777923584,15.246743202209473,-37.798397064208984,165.79898071289062,-268.3201904296875, -111.62572479248047
495,519353532,0.35423684,0.019603467,-0.10720117,0.9287842,51.10942077636719,16.530078887939453,23.148590087890625,-57.44050598144531,-343.4554443359375, -189.6821746826172
496,519370199,0.35902813,0.063434295,-0.12758763,0.92238635,4.807774066925049,-31.899005889892578,31.07899284362793,-30.446069717407227,-326.74102783203125, -75.41785430908203
497,519386866,0.36903384,0.10368225,-0.13661511,0.91345537,15.915582656860352,1.273982286453247,5.760897159576416,28.644136428833008,-272.48370361328125, -116.649169921875
498,519403533,0.37324277,0.13450924,-0.14762007,0.9059832,15.587260246276855,-5.286251068115234,17.174551010131836,-2.209322929382324,-222.50357055664062, -66.19319915771484
499,519420200,0.37823126,0.14984687,-0.17483878,0.8966152,28.345762252807617,-4.07890510559082,16.471637725830078,-145.58555603027344,-168.4630126953125, -45.15433120727539
500,519436867,0.38707197,0.16569558,-0.19602557,0.88560396,16.85835838317871,-1.8034672737121582,12.45025634765625,-112.99012756347656,-152.71896362304688, -79.91138458251953
501,519453534,0.39702606,0.18304075,-0.20619835,0.8754134,5.259548664093018,-2.2273142337799072,7.124274253845215,-36.169620513916016,-133.61050415039062, -85.81806182861328
502,519470201,0.40363815,0.19498412,-0.2123171,0.8683197,-1.4196151494979858,-2.9525303840637207,4.280401229858398,-21.380138397216797,-88.6243896484375, -62.817222595214844
503,519486868,0.40728402,0.20535423,-0.21563481,0.8633952,-6.110326290130615,-3.39243745803833,5.743448257446289,-4.993707656860352,-71.21234893798828, -46.76797103881836
504,519503535,0.41000372,0.21440804,-0.21819758,0.8592533,-7.532543659210205,-4.1282243728637695,5.06501579284668,-1.0771235227584839,-62.01720428466797, -37.04170227050781
505,519520202,0.41213822,0.22233765,-0.21946616,0.85588706,-7.7901387214660645,-4.961637020111084,3.4209647178649902,5.455697536468506,-51.6038818359375, -31.673551559448242
506,519536869,0.41318235,0.22988658,-0.22009078,0.8532248,-5.6731157302856445,-5.386401653289795,5.32232141494751,10.939101219177246,-48.23722839355469, -23.7381649017334
507,519553536,0.41303182,0.23802353,-0.21925378,0.85127985,-0.6319280862808228,-3.6545250415802,9.794257164001465,24.201068878173828,-48.326171875, -17.957883834838867
508,519570203,0.4130628,0.24522921,-0.21839662,0.84943795,3.882686138153076,-0.8630123734474182,13.050716400146484,21.547664642333984,-42.470977783203125, -17.392383575439453
509,519586870,0.4138159,0.25061253,-0.21637867,0.8480155,6.571382999420166,0.8613011240959167,13.8335599899292,22.54267692565918,-26.81119155883789, -19.635766983032227
510,519603537,0.41424724,0.2534503,-0.2130898,0.8477943,6.4829206466674805,0.30500078201293945,13.750450134277344,25.011470794677734,-6.810436248779297, -12.722736358642578
511,519620204,0.41362402,0.25375402,-0.20962876,0.84886974,4.528370380401611,-1.834998607635498,12.302056312561035,22.50498390197754,9.115687370300293, 0.548618733882904
512,519636871,0.41207513,0.25246304,-0.20713748,0.8506178,1.833694338798523,-2.4613771438598633,10.87302017211914,14.889851570129395,15.44704532623291, 11.845303535461426
513,519653538,0.41058573,0.25025526,-0.205676,0.8523434,-1.140280842781067,-3.633761167526245,9.699678421020508,6.139305591583252,17.862518310546875, 14.507696151733398
514,519670205,0.4095628,0.24817187,-0.20361602,0.8539377,-2.332624673843384,-3.924206256866455,8.676382064819336,9.028090476989746,19.159852981567383, 10.163068771362305
515,519686872,0.40900677,0.24578369,-0.20133728,0.8554339,-1.7931876182556152,-3.8848445415496826,8.405529022216797,8.543152809143066,21.951519012451172, 7.160001277923584
516,519703539,0.4088289,0.24301894,-0.1983885,0.85699636,0.11037103086709976,-3.364337682723999,8.905426979064941,10.900918960571289,26.59581184387207, 4.474583625793457
517,519720206,0.4094908,0.2387815,-0.19585931,0.8584521,1.355973243713379,-2.318408966064453,10.507196426391602,2.7575459480285645,34.98948669433594, 1.908173680305481
518,519736873,0.4107016,0.23265079,-0.19278044,0.860252,2.710469961166382,-1.2336418628692627,10.612125396728516,0.23745091259479523,48.94775390625, 1.2688829898834229
519,519753540,0.41181186,0.2241861,-0.18877807,0.8628526,3.1610333919525146,-1.5733513832092285,10.342633247375488,0.3226802349090576,66.45654296875, 5.73671293258667
520,519770207,0.41263658,0.21336283,-0.18484524,0.86604846,1.3573753833770752,-2.1358633041381836,9.686454772949219,-5.55926513671875,80.75902557373047, 12.277680397033691
521,519786874,0.41267127,0.19983071,-0.18318996,0.86960435,0.4146493971347809,-1.7615671157836914,8.842320442199707,-26.716209411621094,90.55042266845703, 21.628211975097656
522,519803541,0.4115792,0.18390496,-0.18250632,0.8737695,-0.07746812701225281,-2.847409248352051,8.227981567382812,-37.0041389465332,101.56015014648438, 34.16963577270508
523,519820208,0.40955645,0.16451392,-0.18262999,0.87854713,2.2264907360076904,-4.001612186431885,7.5951642990112305,-49.32874298095703,119.56806182861328, 47.41791534423828
524,519836875,0.40596062,0.14250804,-0.18132038,0.8843136,4.86454439163208,-5.815648555755615,6.902332782745361,-44.59907150268555,138.39894104003906, 62.054298400878906
525,519853542,0.39985374,0.117708705,-0.17841169,0.8913086,8.295759201049805,-7.103363037109375,7.6754865646362305,-37.882789611816406,157.43185424804688, 84.71892547607422
526,519870209,0.39013326,0.09183834,-0.16851571,0.9005356,13.506089210510254,-8.09819221496582,8.907631874084473,7.718271732330322,180.65391540527344, 108.64373779296875
527,519886876,0.37653098,0.06499606,-0.14280453,0.9130208,18.658954620361328,-7.622092247009277,11.324507713317871,109.36056518554688,226.8169403076172, 132.58236694335938
528,519903543,0.36064482,0.031478047,-0.10532924,0.9262022,18.656831741333008,-2.566528797149658,16.49237632751465,167.75306701660156,297.5181884765625, 150.08517456054688
529,519920210,0.34168103,-0.0115453,-0.06420941,0.937549,15.0597505569458,-8.097456932067871,19.15806770324707,166.7655487060547,364.75244140625, 171.3140869140625
530,519936877,0.3258967,-0.055530272,-0.01819965,0.9435976,4.120715141296387,-2.9778831005096436,20.24493980407715,194.0574188232422,384.4618225097656, 139.1908721923828
531,519953544,0.3218616,-0.087777376,0.011819354,0.94263494,24.401735305786133,17.83820915222168,-5.6593804359436035,120.14530944824219,276.4964294433594, 39.60689926147461
532,519970211,0.31402272,-0.124140136,-0.00902998,0.9412213,20.644031524658203,34.258338928222656,-8.355740547180176,-221.2244415283203,191.46237182617188, 32.247535705566406
533,519986878,0.29923195,-0.15722486,-0.0375566,0.9403884,-3.7822628021240234,-15.837979316711426,6.2775163650512695,-270.18646240234375,152.9916229248047, 71.77424621582031
534,520003545,0.29059097,-0.1691597,-0.033942267,0.9411642,-0.01678185537457466,-1.6127276420593262,4.863010883331299,-11.494068145751953,82.13021850585938, 64.63615417480469
535,520020212,0.28399286,-0.17788433,-0.035185892,0.94152397,-1.3531209230422974,1.7118875980377197,3.6286017894744873,-34.2132568359375,52.621707916259766, 44.19272994995117
536,520036879,0.28064325,-0.18110813,-0.034802187,0.9419278,-6.824946880340576,-2.4207637310028076,8.470963478088379,-8.97623348236084,20.912391662597656, 23.905847549438477
537,520053546,0.28180483,-0.17744187,-0.03156938,0.9423926,-9.401357650756836,1.766050100326538,10.324175834655762,28.414752960205078,-17.26255226135254, -3.302706480026245
538,520070213,0.28497082,-0.1707386,-0.032626778,0.94264287,-9.996969223022461,2.1677634716033936,9.982885360717773,8.85014533996582,-44.63467025756836, -22.624277114868164
539,520086880,0.28882298,-0.16288878,-0.038719367,0.94262904,-9.737140655517578,0.35740378499031067,10.740809440612793,-20.846914291381836,-61.55746841430664, -33.77703857421875
540,520103547,0.2928929,-0.1549522,-0.047725793,0.9422984,-9.260246276855469,-1.8104476928710938,11.948018074035645,-39.43528747558594,-67.58103942871094, -39.11152267456055
541,520120214,0.29735225,-0.14736305,-0.055840183,0.9416728,-8.531989097595215,-3.709796905517578,12.76449966430664,-34.0479621887207,-63.171634674072266, -41.166847229003906
542,520136881,0.30227062,-0.14050518,-0.060133707,0.9408906,-8.697545051574707,-4.604129791259766,14.048494338989258,-10.388769149780273,-50.360572814941406, -40.30936813354492
543,520153548,0.30706602,-0.134539,-0.059252776,0.9402654,-8.96993637084961,-5.055656433105469,14.139747619628906,21.196170806884766,-34.11086654663086, -33.827903747558594
544,520170215,0.31095943,-0.12984544,-0.055318706,0.9398852,-9.148221015930176,-3.907348394393921,14.025912284851074,37.53717803955078,-20.10597038269043, -24.148815155029297
545,520186882,0.31362414,-0.12773578,-0.052909903,0.9394276,-8.602684020996094,-3.3580708503723145,12.578688621520996,21.042417526245117,-7.144911766052246, -16.76762580871582
546,520203549,0.3152686,-0.12743117,-0.052499544,0.93894136,-7.86140251159668,-2.972729444503784,10.383671760559082,3.3465631008148193,-0.2159920036792755, -11.350054740905762
547,520220216,0.31640226,-0.12704648,-0.052584235,0.9386075,-7.007476806640625,-2.8217859268188477,8.22951889038086,-0.05621988698840141,-2.19386887550354, -8.19662857055664
548,520236883,0.31754932,-0.124406986,-0.050571796,0.93868417,-6.179047584533691,-2.8405656814575195,6.748435020446777,18.557754516601562,-12.601241111755371, -6.382530212402344
549,520253550,0.31953222,-0.118269846,-0.046749882,0.9390028,-6.028188228607178,-1.6381255388259888,6.5405802726745605,38.69096374511719,-31.19822120666504, -10.924670219421387
550,520270217,0.32263234,-0.10969946,-0.046486538,0.9389962,-3.4976553916931152,1.470835566520691,5.713379859924316,21.87181282043457,-54.159305572509766, -22.533327102661133
551,520286884,0.324782,-0.09936517,-0.05137407,0.9391506,-0.47158095240592957,1.416457176208496,3.546363115310669,-8.165501594543457,-77.4289321899414, -20.488704681396484
552,520303551,0.32661858,-0.08515138,-0.056144144,0.9396369,-0.647304356098175,-1.253620982170105,6.172918319702148,1.1360756158828735,-102.55490112304688, -19.009679794311523
553,520320218,0.32884422,-0.06608024,-0.061770316,0.94004214,0.3260771632194519,-2.206141233444214,6.924903392791748,6.715439796447754,-135.66261291503906, -24.072786331176758
554,520336885,0.33299246,-0.04410914,-0.07254051,0.9390998,0.23505538702011108,-0.360465943813324,0.7909700870513916,-19.65888214111328,-164.60279846191406, -43.1068115234375
555,520353552,0.35646874,0.014610739,-0.073864155,0.9312685,24.684701919555664,38.28803253173828,-50.52629852294922,127.99337768554688,-368.7550048828125, -199.2498779296875
556,520370219,0.36505714,0.041440673,-0.1258955,0.9215022,36.70439147949219,-25.256141662597656,54.43103790283203,-274.93017578125,-296.24591064453125, -87.12098693847656
557,520386886,0.3763901,0.081633136,-0.13373002,0.9131171,-0.5820966958999634,-7.458785057067871,9.321913719177246,39.42724609375,-266.7719421386719, -125.1539306640625
558,520403553,0.38189447,0.1165794,-0.13597131,0.9066851,19.764331817626953,-13.431869506835938,16.720317840576172,66.1003189086914,-223.62818908691406, -81.82466888427734
559,520420220,0.3855157,0.14788167,-0.13480347,0.9007424,25.81571388244629,-0.25060003995895386,12.106966972351074,79.87062072753906,-193.14498901367188, -68.16126251220703
560,520436887,0.39017567,0.16351268,-0.15473814,0.8927949,30.12049102783203,-0.5665425062179565,20.945510864257812,-95.30550384521484,-152.85507202148438, -43.87809753417969
561,520453554,0.39687067,0.17535824,-0.17761385,0.88328743,16.02360725402832,-2.4327986240386963,14.870269775390625,-127.48896789550781,-136.8820343017578, -53.140625
562,520470221,0.40544713,0.18594116,-0.1939789,0.87373376,3.1952316761016846,-0.21755670011043549,8.214673042297363,-90.8611068725586,-110.82503509521484, -64.06956481933594
563,520486888,0.41030422,0.19332278,-0.20328745,0.8677274,-4.604297161102295,-1.3329581022262573,5.885168552398682,-50.59803009033203,-70.78824615478516, -43.00365447998047
564,520503555,0.41334045,0.1993784,-0.2094145,0.8634486,-9.73473072052002,-1.199385643005371,5.573081016540527,-31.844135284423828,-53.48945617675781, -32.42188262939453
565,520520222,0.41575193,0.20555697,-0.2131036,0.8599324,-9.886312484741211,-3.0867466926574707,4.667989730834961,-13.938589096069336,-47.93886184692383, -27.719083786010742
566,520536889,0.41668049,0.21258634,-0.21381725,0.8575936,-7.69821310043335,-4.962383270263672,3.8223719596862793,9.923274993896484,-45.10927963256836, -21.075536727905273
567,520553556,0.41555735,0.2201398,-0.21378326,0.8562402,-4.634738922119141,-6.344808578491211,6.295588493347168,20.317834854125977,-47.739017486572266, -8.071857452392578
568,520570223,0.4126496,0.22818753,-0.21297683,0.8557404,0.945002019405365,-3.5735974311828613,9.681467056274414,30.279468536376953,-49.86271667480469, 2.919952869415283
569,520586890,0.41044044,0.23474489,-0.2132733,0.854955,4.387301921844482,-0.5295172333717346,13.899516105651855,18.062788009643555,-43.70609664916992, 1.8871138095855713
570,520603557,0.40885338,0.239268,-0.2127808,0.85458416,5.739109039306641,-0.015101630240678787,13.824249267578125,16.544179916381836,-27.99643325805664, 1.1193623542785645
571,520620224,0.40704897,0.24159823,-0.21083787,0.85527116,4.298525810241699,-1.9037466049194336,13.175570487976074,20.783843994140625,-9.655545234680176, 6.2067694664001465
572,520636891,0.4051143,0.24183886,-0.20899199,0.8565739,2.0413405895233154,-3.633739948272705,11.103116035461426,15.46802043914795,3.142035484313965, 11.882303237915039
573,520653558,0.40268007,0.24077101,-0.20735759,0.85841787,0.7770921587944031,-3.6308064460754395,9.639172554016113,12.198527336120605,10.382916450500488, 18.541065216064453
574,520670225,0.40089968,0.23842886,-0.20612344,0.8602004,-1.1087512969970703,-2.9040935039520264,9.841650009155273,5.153112888336182,17.566267013549805, 16.966751098632812
575,520686892,0.4000548,0.23500946,-0.2051887,0.8617566,-1.7073957920074463,-2.9886722564697266,9.413496971130371,-1.4350192546844482,23.989229202270508, 12.806401252746582
576,520703559,0.39984936,0.23125756,-0.20253693,0.86349267,-1.1246535778045654,-3.5528223514556885,8.875083923339844,7.051389694213867,31.795969009399414, 7.185613632202148
577,520720226,0.3997495,0.22659066,-0.1993305,0.8655197,0.20251575112342834,-3.0686824321746826,9.000784873962402,8.079239845275879,39.294246673583984, 7.7249884605407715
578,520736893,0.3995748,0.22022624,-0.19651817,0.86788297,1.6811243295669556,-2.2272465229034424,9.651384353637695,1.6556771993637085,48.6785774230957, 12.016912460327148
579,520753560,0.39893666,0.21205728,-0.1931411,0.87096375,2.7106289863586426,-1.941602110862732,10.15447998046875,1.219995141029358,61.67153549194336, 17.25543975830078
580,520770227,0.39807776,0.20168497,-0.18929484,0.8746571,3.410322904586792,-2.2003915309906006,9.99158763885498,-0.763890266418457,76.6729965209961, 22.684234619140625
581,520786894,0.3974373,0.18835245,-0.18675123,0.87845945,3.8645200729370117,-2.0681681632995605,10.617372512817383,-16.841033935546875,91.32962799072266, 27.300777435302734
582,520803561,0.3970439,0.17198646,-0.18607894,0.88212895,4.3537139892578125,-2.4762351512908936,10.103991508483887,-36.63115310668945,104.50226593017578, 32.433773040771484
583,520820228,0.39585817,0.15316693,-0.18548687,0.8862455,5.462465286254883,-4.585637092590332,8.552814483642578,-42.28289031982422,118.66387176513672, 41.730430603027344
584,520836895,0.39218628,0.13289359,-0.18279558,0.89169234,7.425182819366455,-8.163414001464844,7.104418754577637,-28.894397735595703,131.29769897460938, 60.807029724121094
585,520853562,0.38620594,0.11039879,-0.1772496,0.8984653,8.763954162597656,-9.227807998657227,6.915170192718506,-13.36782455444336,150.74485778808594, 79.4826431274414
586,520870229,0.37622836,0.084885,-0.16549817,0.9076658,10.404775619506836,-7.609718322753906,6.818404674530029,22.69045066833496,183.2909698486328, 108.27457427978516
587,520886896,0.36242175,0.05394894,-0.14405552,0.9192324,11.181114196777344,-3.5627238750457764,11.210861206054688,74.15396118164062,239.34127807617188, 138.82508850097656
588,520903563,0.34520492,0.015006509,-0.11319411,0.93155545,12.070516586303711,-4.557072639465332,15.394926071166992,115.7972640991211,310.47607421875, 166.76441955566406
589,520920230,0.32776603,-0.02975561,-0.0698574,0.9417028,7.061920166015625,-5.4722795486450195,20.679563522338867,180.3136749267578,377.17352294921875, 166.32986450195312
590,520936897,0.3154007,-0.07142045,-0.023838032,0.945967,15.16834545135498,-2.792513370513916,13.959927558898926,202.91192626953125,366.8389587402344, 119.26094055175781
591,520953564,0.31449476,-0.10184661,0.00386284,0.943772,21.925331115722656,27.539817810058594,-6.988522529602051,112.63020324707031,259.0674133300781, 19.833309173583984
592,520970231,0.3018739,-0.14873122,-0.031056328,0.9411625,12.47296142578125,25.377643585205078,3.1456212997436523,-338.007568359375,231.35044860839844, 50.71580123901367
593,520986898,0.28997543,-0.18423581,-0.051099524,0.9377421,-1.1274393796920776,-17.397695541381836,6.206501007080078,-217.70594787597656,189.6260223388672, 57.1540412902832
594,521003565,0.28352964,-0.20489755,-0.05005319,0.9354799,3.1085548400878906,4.026003360748291,2.8768959045410156,-44.577667236328125,136.3776092529297, 45.843528747558594
595,521020232,0.2784935,-0.22066094,-0.05519628,0.93311495,-4.081390380859375,-0.44325506687164307,3.1804754734039307,-72.93280792236328,93.46513366699219, 26.174711227416992
596,521036899,0.27725178,-0.22509955,-0.050883725,0.9326696,-9.30406665802002,-6.04315185546875,3.8983309268951416,15.9010648727417,37.406089782714844, 15.547784805297852
597,521053566,0.28017506,-0.21975353,-0.043903694,0.93342537,-10.065585136413574,0.11400710046291351,6.8242316246032715,58.5775146484375,-20.731731414794922, -8.178991317749023
598,521070233,0.28435233,-0.21092474,-0.04457235,0.9341671,-10.327095985412598,0.49304908514022827,8.986382484436035,18.066539764404297,-57.49100875854492, -28.88814926147461
599,521086900,0.2890296,-0.20048425,-0.052085847,0.93464184,-9.379744529724121,-1.5594359636306763,10.528166770935059,-22.135906219482422,-80.75631713867188, -43.059898376464844
600,521103567,0.2952111,-0.18794383,-0.05923332,0.9348899,-8.470810890197754,-4.197902679443359,11.528524398803711,-13.633943557739258,-92.73211669921875, -53.43013381958008
601,521120234,0.30288917,-0.1735009,-0.062125765,0.9350381,-7.67940616607666,-5.406450271606445,12.878037452697754,19.482786178588867,-95.63536071777344, -58.53173828125
602,521136901,0.3109018,-0.15857536,-0.0610684,0.9351281,-7.769463062286377,-5.339571952819824,14.57326889038086,46.276206970214844,-90.34014892578125, -56.30080795288086
603,521153568,0.31737924,-0.14719644,-0.06137056,0.9347927,-9.157554626464844,-4.558969020843506,16.4263858795166,28.117597579956055,-70.6620101928711, -47.336727142333984
604,521170235,0.3209502,-0.14157632,-0.065458395,0.93416405,-8.092164039611816,-5.289872646331787,13.3168363571167,-11.838888168334961,-42.892066955566406, -30.704421997070312
605,521186902,0.32254657,-0.13880776,-0.06832212,0.9338246,-6.3528151512146,-5.0892744064331055,10.816974639892578,-12.038095474243164,-23.097972869873047, -14.915217399597168
606,521203569,0.3232702,-0.13516055,-0.0680847,0.9341267,-5.4355292320251465,-2.949852466583252,9.138040542602539,9.317132949829102,-22.92449378967285, -5.34899377822876
607,521220236,0.32307494,-0.12905207,-0.064400904,0.9353185,-5.013034343719482,-3.6197829246520996,7.948022842407227,36.49344253540039,-32.364784240722656, 4.573819637298584
608,521236903,0.3232099,-0.11972088,-0.056598652,0.937016,-5.079328536987305,-3.138554811477661,7.861246109008789,70.67473602294922,-44.27767562866211, 5.793780326843262
609,521253570,0.32416573,-0.10790064,-0.049043797,0.93854624,-5.220602989196777,-2.856342077255249,7.369284629821777,75.2396011352539,-60.442447662353516, -1.0449042320251465
610,521270237,0.32575682,-0.09183207,-0.040401656,0.94011563,-2.6511430740356445,-2.3698925971984863,5.39679479598999,92.22660064697266,-85.29010009765625, -5.689435005187988
611,521286904,0.3283979,-0.07146137,-0.034821715,0.9411884,0.3276844322681427,2.6492269039154053,3.6948883533477783,82.61181640625,-119.3735122680664, -16.718509674072266
612,521303571,0.33111197,-0.050249413,-0.041353453,0.94134474,1.4299798011779785,3.8148765563964844,4.364566326141357,5.913588047027588,-151.69171142578125, -25.40853500366211
613,521320238,0.33398598,-0.029472604,-0.058741275,0.94028413,2.108217239379883,1.2300653457641602,6.250319004058838,-65.68342590332031,-173.11517333984375, -32.82991409301758
614,521336905,0.33705217,-0.009891445,-0.08216262,0.9378419,1.6652801036834717,-1.7307111024856567,8.767067909240723,-107.9811019897461,-178.867431640625, -37.972660064697266
615,521353572,0.34847772,0.03140464,-0.089543246,0.9325016,10.280510902404785,17.455358505249023,-36.234291076660156,44.74102783203125,-276.8412780761719, -109.78515625
616,521370239,0.36405563,0.06294495,-0.12931055,0.9202067,45.734619140625,-0.3943026661872864,23.011524200439453,-191.6763916015625,-290.7684631347656, -140.0281219482422
617,521386906,0.36749312,0.099548444,-0.14457263,0.9133116,-0.8502522706985474,-29.82228660583496,22.6032772064209,-13.837098121643066,-269.4404296875, -64.64934539794922
618,521403573,0.3743206,0.13428335,-0.14667535,0.9057254,16.833415985107422,3.11598801612854,11.895525932312012,61.32502365112305,-221.5995635986328, -94.97128295898438
619,521420240,0.37600505,0.16091861,-0.15084933,0.8999834,22.7056884765625,-5.055091857910156,10.947380065917969,34.12819290161133,-179.8307342529297, -48.06359100341797
620,521436907,0.3800361,0.17452282,-0.16518588,0.89321226,22.13428497314453,-1.0009993314743042,20.054712295532227,-64.1039047241211,-125.30353546142578, -34.37228775024414
621,521453574,0.38908783,0.18512966,-0.18586949,0.8830575,14.305533409118652,0.9924116730690002,12.217676162719727,-119.63294982910156,-122.49150848388672, -60.49711227416992
622,521470241,0.39553535,0.19357309,-0.19710323,0.8759177,3.618786334991455,0.3334577977657318,8.283111572265625,-61.534671783447266,-83.08316040039062, -48.18068313598633
623,521486908,0.40003794,0.19811688,-0.20605358,0.8707822,-3.8064751625061035,-1.5821527242660522,7.841468811035156,-53.95309829711914,-52.82391357421875, -31.05374526977539
624,521503575,0.40292594,0.20139775,-0.21343404,0.8669116,-8.817418098449707,-2.6199793815612793,7.119237899780273,-44.746822357177734,-41.14925003051758, -19.955333709716797
625,521520242,0.40349358,0.20565149,-0.21767156,0.86459225,-8.856674194335938,-2.1612119674682617,4.991824626922607,-18.761484146118164,-39.02060317993164, -9.68109130859375
626,521536909,0.40323332,0.21060604,-0.22061402,0.8627732,-7.886224746704102,-3.6492106914520264,6.217578887939453,-6.962841033935547,-40.38144302368164, -5.806612968444824
627,521553576,0.4024386,0.21679188,-0.22164252,0.86134726,-4.1790056228637695,-4.7304158210754395,8.77701187133789,9.233165740966797,-42.74929428100586, -6.150214672088623
628,521570243,0.40134844,0.22296228,-0.22088714,0.8604744,-0.9776413440704346,-4.6373138427734375,12.64696216583252,20.74029541015625,-37.24201965332031, -6.1737518310546875
629,521586910,0.39954877,0.2284289,-0.21743332,0.8607577,1.2879644632339478,-2.4776508808135986,14.012789726257324,37.61653137207031,-25.021621704101562, -1.882956624031067
630,521603577,0.39730105,0.23149617,-0.21264419,0.862174,2.8538904190063477,-1.104038953781128,13.986700057983398,41.317195892333984,-6.117669582366943, 5.359739780426025
631,521620244,0.39503855,0.2318414,-0.20734024,0.8644098,3.7187395095825195,-2.8212153911590576,11.8528470993042,38.137996673583984,12.647366523742676, 10.848729133605957
632,521636911,0.39286864,0.2302868,-0.20222692,0.8670218,3.0130715370178223,-4.096889972686768,10.760187149047852,32.23521423339844,24.11292839050293, 14.321822166442871
633,521653578,0.39091694,0.22764081,-0.19786638,0.8696048,1.260280966758728,-3.4075334072113037,10.37165641784668,24.427837371826172,28.805919647216797, 15.631168365478516
634,521670245,0.3897109,0.22440624,-0.19438095,0.8717702,-1.3397033214569092,-3.3325536251068115,9.696023941040039,15.887331008911133,30.284311294555664, 12.203067779541016
635,521686912,0.38934684,0.22115825,-0.19073284,0.8735669,-1.4803491830825806,-2.6245503425598145,9.0159273147583,15.426361083984375,31.093080520629883, 6.728877067565918
636,521703579,0.39002413,0.21688275,-0.1875453,0.8750257,-0.5719078779220581,-1.3607869148254395,10.1963529586792,7.832972049713135,36.84636306762695, 1.5086276531219482
637,521720246,0.3911785,0.21050048,-0.18501358,0.8766066,1.1339319944381714,-1.1241896152496338,9.53145694732666,-2.3319528102874756,48.49909973144531, 2.662276029586792
638,521736913,0.39122102,0.20237656,-0.18139762,0.8792525,2.287212610244751,-1.7908562421798706,9.214128494262695,2.334111452102661,62.07012939453125, 12.57280445098877
639,521753580,0.3897542,0.19259098,-0.1775992,0.8828697,2.8664979934692383,-3.151165008544922,9.863324165344238,2.242457389831543,72.06349182128906, 26.062313079833984
640,521770247,0.38743648,0.18069705,-0.17391929,0.8871266,3.8537402153015137,-2.9608235359191895,9.629728317260742,-2.1858010292053223,84.30681610107422, 35.75811004638672
641,521786914,0.3848773,0.16617951,-0.17076331,0.89168036,3.253603935241699,-3.9296514987945557,9.289233207702637,-11.617657661437988,98.90663146972656, 42.12239456176758
642,521803581,0.382197,0.1484312,-0.16910794,0.896268,3.602489471435547,-4.232326984405518,8.244227409362793,-29.094552993774414,114.53258514404297, 48.819000244140625
643,521820248,0.37792754,0.12757872,-0.16759826,0.9015573,6.448781490325928,-5.643059730529785,7.943633556365967,-35.71024703979492,132.10406494140625, 64.32780456542969
644,521836915,0.37153953,0.10208903,-0.16449605,0.9080074,11.063253402709961,-7.577508449554443,8.697783470153809,-34.67438507080078,163.51853942871094, 84.66447448730469
645,521853582,0.36119792,0.073209845,-0.15039779,0.91736424,14.109580993652344,-7.680833339691162,7.625833988189697,31.140525817871094,210.8495635986328, 111.36968231201172
646,521870249,0.34813926,0.039866824,-0.12412545,0.9283332,14.217503547668457,-3.969550609588623,15.036861419677734,99.96771240234375,267.3978271484375, 131.02842712402344
647,521886916,0.33253723,-0.0011626489,-0.090072595,0.93877834,13.500433921813965,-5.657932758331299,17.884902954101562,131.5318145751953,332.95062255859375, 150.4969482421875
648,521903583,0.31884596,-0.045020908,-0.048055895,0.9455162,5.086087703704834,-4.330682277679443,18.94155502319336,174.26669311523438,370.7999572753906, 131.53091430664062
649,521920250,0.313624,-0.08302304,-0.016311115,0.94577014,17.922014236450195,8.72907543182373,4.386545658111572,120.76762390136719,314.94915771484375, 57.09737777709961
650,521936917,0.31228286,-0.121335596,-0.028840363,0.9417672,23.751052856445312,33.88999557495117,-9.138176918029785,-166.24159240722656,224.47598266601562, -2.545501232147217
651,521953584,0.29958704,-0.16470234,-0.06543577,0.9374643,2.2295174598693848,2.6401638984680176,4.523293495178223,-342.94268798828125,203.79148864746094, 51.33039093017578
652,521970251,0.29360238,-0.18743876,-0.068046905,0.93489784,-0.7786327004432678,-10.860151290893555,5.454622745513916,-72.86931610107422,141.7948455810547, 40.858070373535156
653,521986918,0.29062578,-0.20108347,-0.066039726,0.933135,-0.12620510160923004,3.8541088104248047,3.6963353157043457,-20.470853805541992,93.04438781738281, 24.861345291137695
654,522003585,0.2886108,-0.21114573,-0.07354154,0.9309742,-4.642624855041504,-2.923582077026367,3.7489047050476074,-73.21944427490234,52.0489501953125, 3.1206822395324707
655,522020252,0.28951553,-0.21277799,-0.073860936,0.9302961,-9.250320434570312,-4.950605869293213,7.68620491027832,-5.511204242706299,11.629448890686035, -6.4603471755981445
656,522036919,0.29307133,-0.20786205,-0.07048215,0.9305563,-10.242271423339844,-1.342221736907959,8.784734725952148,35.55581283569336,-22.978710174560547, -19.477733612060547
657,522053586,0.2980237,-0.19938858,-0.068123594,0.9310131,-9.088101387023926,-1.7833006381988525,9.824835777282715,38.27122497558594,-47.46617889404297, -31.223257064819336
658,522070253,0.30344638,-0.18927112,-0.06871011,0.9313301,-8.863965034484863,-3.955371379852295,11.403238296508789,23.353008270263672,-63.66677474975586, -39.34440612792969
659,522086920,0.3093439,-0.17797904,-0.069709025,0.9315419,-8.618220329284668,-5.360927104949951,12.814805030822754,23.73611068725586,-71.73709869384766, -43.705867767333984
660,522103587,0.31531507,-0.16685012,-0.07007426,0.93157244,-8.536083221435547,-5.756500244140625,14.141694068908691,27.467065811157227,-69.13199615478516, -43.716552734375
661,522120254,0.32043228,-0.15802875,-0.0705791,0.9313264,-9.18253231048584,-5.706212043762207,14.788154602050781,20.47538948059082,-54.791709899902344, -37.90148162841797
662,522136921,0.32378742,-0.1533701,-0.07287559,0.9307679,-8.824628829956055,-4.52042818069458,13.645174980163574,-2.217292547225952,-32.6493034362793, -27.24152946472168
663,522153588,0.3254769,-0.15191036,-0.07598793,0.93016887,-7.7709808349609375,-4.067450046539307,10.948136329650879,-16.327444076538086,-14.837973594665527, -15.939718246459961
664,522170255,0.3264116,-0.15030201,-0.07622879,0.9300828,-6.862593173980713,-3.8830294609069824,8.507631301879883,1.8595792055130005,-10.341620445251465, -7.052089214324951
665,522186922,0.3272331,-0.1461145,-0.07188354,0.93080705,-6.319069862365723,-3.5886855125427246,7.544532299041748,37.298030853271484,-17.484575271606445, -1.131486177444458
666,522203589,0.32812178,-0.13888964,-0.064566515,0.93213576,-5.778458118438721,-3.4174013137817383,6.1473894119262695,63.532875061035156,-30.853256225585938, 1.2734538316726685
667,522220256,0.3295245,-0.12993371,-0.058458794,0.9333347,-5.4733428955078125,-0.7543447017669678,6.827682971954346,60.14004135131836,-44.364261627197266, -4.2447099685668945
668,522236923,0.3301724,-0.12163094,-0.059882637,0.9341339,-3.5201103687286377,-1.0428236722946167,7.338618278503418,9.484964370727539,-57.22099685668945, -6.7781877517700195
669,522253590,0.33097357,-0.10835445,-0.060829055,0.9354227,-1.224695086479187,-3.1217029094696045,4.313675880432129,24.167015075683594,-88.44861602783203, -8.302117347717285
670,522270257,0.3335107,-0.08956824,-0.06272686,0.93638325,0.588411271572113,0.5262761116027832,7.668398380279541,31.767162322998047,-125.0864028930664, -23.22700309753418
671,522286924,0.33618885,-0.068496786,-0.07190291,0.93654436,2.457193374633789,-1.6106624603271484,7.2819647789001465,-10.12960147857666,-155.92539978027344, -31.431093215942383
672,522303591,0.34052193,-0.04522094,-0.084456086,0.9353433,2.1601970195770264,-1.8015384674072266,7.6235833168029785,-26.671010971069336,-176.4425506591797, -47.91149139404297
673,522320258,0.3557004,0.0018917794,-0.08502563,0.9307226,15.337028503417969,24.675413131713867,-36.332061767578125,107.64014434814453,-294.39251708984375, -135.82208251953125
674,522336925,0.3668914,0.02744416,-0.1349176,0.92001885,37.79697036743164,-13.104965209960938,33.9633903503418,-264.5782470703125,-279.35528564453125, -111.85978698730469
675,522353592,0.37398988,0.065837644,-0.14393312,0.91382724,6.658107280731201,-12.651710510253906,15.554160118103027,31.56709861755371,-260.00848388671875, -94.12168884277344
676,522370259,0.38044882,0.09845886,-0.15067467,0.9071173,11.525949478149414,-7.687053680419922,16.060667037963867,30.868568420410156,-218.70053100585938, -86.77726745605469
677,522386926,0.385311,0.12336245,-0.15753295,0.9008333,19.941078186035156,-0.09893935918807983,12.266467094421387,11.505062103271484,-172.1517791748047, -67.63386535644531
678,522403593,0.38962248,0.13710912,-0.17171508,0.8943765,17.920024871826172,-4.807619571685791,17.060546875,-63.160789489746094,-123.04655456542969, -46.34017562866211
679,522420260,0.39560243,0.15056197,-0.19028692,0.8857882,9.099934577941895,-3.2804927825927734,9.221961975097656,-95.02840423583984,-132.95156860351562, -57.80208969116211
680,522436927,0.40095997,0.16258018,-0.20183656,0.87867004,0.456520140171051,-2.771056890487671,6.7751851081848145,-52.034324645996094,-105.83137512207031, -50.60176086425781
681,522453594,0.4055973,0.17109212,-0.20919594,0.87318707,-1.7070194482803345,-0.8172572255134583,8.46229362487793,-33.841819763183594,-71.73966979980469, -43.488765716552734
682,522470261,0.40986437,0.17839846,-0.21288309,0.8688303,-2.798691749572754,-0.47771596908569336,7.633329391479492,-13.815095901489258,-52.89906692504883, -42.700687408447266
683,522486928,0.4135092,0.18464427,-0.21467312,0.86535096,-4.220870494842529,-1.5961042642593384,6.5938029289245605,-3.7441821098327637,-40.86439514160156, -38.075679779052734
684,522503595,0.4163007,0.1897173,-0.215036,0.8628215,-4.8580145835876465,-2.0976269245147705,6.708253383636475,3.5543296337127686,-29.696352005004883, -31.2042179107666
685,522520262,0.41833025,0.19435804,-0.21426359,0.86099714,-4.198032379150391,-3.1041345596313477,8.423405647277832,11.107223510742188,-24.191911697387695, -25.46173095703125
686,522536929,0.4197721,0.19946654,-0.21222845,0.85963,-1.4534015655517578,-2.971578598022461,10.659016609191895,21.194107055664062,-23.535367965698242, -23.506427764892578
687,522553596,0.42090634,0.20457172,-0.20939672,0.85856944,1.3896074295043945,-2.7892308235168457,11.78624153137207,26.82988929748535,-21.375946044921875, -21.73836898803711
688,522570263,0.4213083,0.20886464,-0.20593062,0.85817707,4.046493053436279,-3.4039855003356934,11.727968215942383,30.64336395263672,-15.197341918945312, -14.25161361694336
689,522586930,0.42078698,0.21084905,-0.2045132,0.85828644,5.046034812927246,-3.6468923091888428,11.993452072143555,13.910737991333008,-8.127582550048828, -1.1523422002792358
690,522603597,0.4196737,0.21082526,-0.20514576,0.85868615,3.095238447189331,-3.156735420227051,11.21843147277832,-2.720517635345459,-2.6423864364624023, 8.965044021606445
691,522620264,0.41791958,0.20987266,-0.20537493,0.8597198,1.0600906610488892,-2.2883408069610596,10.068058967590332,-1.1894420385360718,3.984513521194458, 15.292671203613281
692,522636931,0.41613865,0.20786838,-0.20484458,0.8611958,-0.4217371344566345,-2.3623697757720947,10.004172325134277,0.9426833987236023,12.93803882598877, 17.10355567932129
