PacketCounter,SampleTimeFine,Quat_W,Quat_X,Quat_Y,Quat_Z,Acc_X,Acc_Y,Acc_Z,Gyr_X,Gyr_Y,Gyr_Z 
2,1565754228,0.9693535,0.107918866,0.11991712,0.18527612,16.224748611450195,3.748278856277466,-25.030927658081055,-144.40234375,-181.9257049560547, -10.477374076843262
3,1565770895,0.96415985,0.17641127,0.03965037,0.19417249,8.672940254211426,-7.526811599731445,12.832916259765625,-195.16177368164062,-190.13233947753906, 0.7000182271003723
4,1565787562,0.9631707,0.16575973,-0.06727191,0.20074993,6.636376857757568,-4.856979846954346,3.318875312805176,-63.31428909301758,-203.37071228027344, -9.732376098632812
5,1565804229,0.9557469,0.13993137,-0.16107649,0.20253809,-0.4678384065628052,2.5334079265594482,7.419862747192383,-95.48106384277344,-214.0756072998047, -17.695905685424805
6,1565820896,0.9480586,0.1283227,-0.21157078,0.19989042,1.5243648290634155,0.8975404500961304,4.993112564086914,-57.425636291503906,-179.89920043945312, -13.450094223022461
7,1565837563,0.9406725,0.12775911,-0.24468446,0.197339,4.751220226287842,1.8492754697799683,5.455504417419434,-0.37500181794166565,-154.72137451171875, -14.913969039916992
8,1565854230,0.93419135,0.12793349,-0.27100208,0.19359061,7.074244976043701,1.7675646543502808,8.829058647155762,-16.78230857849121,-126.24459838867188, -14.109763145446777
9,1565870897,0.9284207,0.12617728,-0.29306808,0.19033042,8.173166275024414,-1.9507765769958496,8.93397331237793,-32.72446823120117,-106.99374389648438, -4.226831912994385
10,1565887564,0.9225011,0.12475406,-0.3130414,0.18823726,9.026565551757812,-4.179830551147461,7.814823150634766,-11.907693862915039,-99.6331787109375, -8.734742164611816
11,1565904231,0.9163961,0.12065258,-0.3320268,0.18820092,8.53724479675293,-1.9377405643463135,8.133190155029297,-9.288322448730469,-88.88040161132812, -2.9434685707092285
12,1565920898,0.9103807,0.11717385,-0.34846416,0.18986872,9.048824310302734,-4.489137649536133,7.631451606750488,0.4192056357860565,-77.83908081054688, 4.495541572570801
13,1565937565,0.90403646,0.11676528,-0.36242408,0.19425051,8.696930885314941,-3.873894214630127,8.593226432800293,33.97871017456055,-68.45584869384766, 7.229455471038818
14,1565954232,0.89848906,0.11751353,-0.3729576,0.19952603,8.301788330078125,-2.4642932415008545,9.621720314025879,47.43175506591797,-53.10118103027344, 4.9572930335998535
15,1565970899,0.8938861,0.11883676,-0.38002205,0.20598206,8.412604331970215,-2.7678587436676025,9.866933822631836,54.57722091674805,-37.772762298583984, 9.648130416870117
16,1565987566,0.8892167,0.12252039,-0.38494518,0.21470818,9.271245002746582,-2.002316474914551,11.70048999786377,75.595458984375,-33.34584045410156, 18.0325927734375
17,1566004233,0.8847228,0.12879467,-0.3871666,0.22534275,7.181215286254883,-1.1448564529418945,10.952116012573242,97.13024139404297,-25.72916603088379, 23.624332427978516
18,1566020900,0.8800959,0.13596866,-0.38826036,0.23706064,7.834901809692383,-1.0177717208862305,11.111958503723145,103.56871032714844,-26.619253158569336, 31.308382034301758
19,1566037567,0.87553203,0.14260511,-0.38915753,0.24832301,7.216256618499756,0.15994955599308014,10.565367698669434,96.18647766113281,-29.385332107543945, 33.3072509765625
20,1566054234,0.8726182,0.15058623,-0.38693553,0.25718117,7.058041572570801,3.0594229698181152,12.189949035644531,97.92463684082031,-14.06501579284668, 13.696712493896484
21,1566070901,0.8707957,0.15407668,-0.38577497,0.26296994,5.166867733001709,2.302523612976074,11.125317573547363,54.74559783935547,-16.501142501831055, 12.671812057495117
22,1566087568,0.86823326,0.15415788,-0.38863754,0.26714677,5.980589866638184,3.0756924152374268,9.269820213317871,20.14475440979004,-41.106136322021484, 21.771831512451172
23,1566104235,0.8647638,0.14999898,-0.39613613,0.26974115,6.586346626281738,0.7971141934394836,7.264115333557129,-20.414505004882812,-65.14495086669922, 33.78828811645508
24,1566120902,0.8603335,0.14797848,-0.4049657,0.27190325,8.311254501342773,1.7116193771362305,10.110564231872559,-11.876626968383789,-78.21673583984375, 29.608549118041992
25,1566137569,0.8561603,0.14694624,-0.41309157,0.2734081,7.209680080413818,1.1100435256958008,13.252187728881836,-8.488543510437012,-75.35794067382812, 23.329044342041016
26,1566154236,0.85180247,0.14944774,-0.4191696,0.27639654,6.53638219833374,1.9792736768722534,14.31054973602295,19.54533576965332,-71.19705200195312, 21.38504409790039
27,1566170903,0.8474857,0.15257595,-0.42470714,0.27948612,6.782130718231201,2.3992397785186768,12.77695083618164,23.24846076965332,-71.76382446289062, 21.12457275390625
28,1566187570,0.8432365,0.15619248,-0.4299015,0.28238449,6.167326927185059,2.1747841835021973,11.82900333404541,24.925670623779297,-71.99848937988281, 19.69529151916504
29,1566204237,0.83918405,0.16019613,-0.43430984,0.28545108,6.307783126831055,2.1662778854370117,11.993303298950195,28.101713180541992,-68.2208480834961, 19.56768035888672
30,1566220904,0.83528167,0.16530262,-0.43745083,0.2891653,6.227428913116455,2.3572192192077637,13.245282173156738,38.026161193847656,-62.56846618652344, 19.440427780151367
31,1566237571,0.83190775,0.17120974,-0.4388823,0.29325634,6.1578240394592285,2.8667547702789307,14.846385955810547,45.969688415527344,-53.4247932434082, 17.31978988647461
32,1566254238,0.82997423,0.17557026,-0.43887177,0.29615846,6.022377014160156,3.5030763149261475,13.722626686096191,34.19993591308594,-40.69169998168945, 11.748302459716797
33,1566270905,0.8291166,0.17750368,-0.43842244,0.29806733,6.226787090301514,2.6150550842285156,12.014209747314453,16.356807708740234,-32.06051254272461, 11.797390937805176
34,1566287572,0.82839817,0.17935409,-0.43751895,0.30027637,6.477818965911865,1.860910177230835,9.269874572753906,17.26396942138672,-28.477699279785156, 13.43375015258789
35,1566304239,0.82728,0.18263951,-0.43614584,0.3033608,6.716259002685547,2.0353784561157227,9.398037910461426,29.430686950683594,-27.725963592529297, 14.551774978637695
36,1566320906,0.8259791,0.18624,-0.43498155,0.30637312,6.638987064361572,2.646256446838379,9.327193260192871,30.693862915039062,-29.121397018432617, 14.105504989624023
37,1566337573,0.8250394,0.18901655,-0.4337628,0.30892205,6.387847900390625,2.7401435375213623,9.2555513381958,24.086307525634766,-25.594833374023438, 13.496864318847656
38,1566354240,0.8246095,0.19060001,-0.43260446,0.31071565,6.674234390258789,3.224043369293213,8.893582344055176,14.104844093322754,-21.997312545776367, 12.04954719543457
39,1566370907,0.82483214,0.19050439,-0.4316926,0.3114513,6.856891632080078,2.849332094192505,8.122772216796875,-0.16590653359889984,-18.32229232788086, 10.250454902648926
40,1566387574,0.8249307,0.19067115,-0.4311089,0.3118957,7.4345903396606445,2.5811455249786377,7.864868640899658,-0.20025323331356049,-20.414138793945312, 8.587203979492188
41,1566404241,0.82486,0.19152135,-0.43060076,0.31226385,7.486602783203125,2.5415420532226562,8.475835800170898,3.4722237586975098,-21.757808685302734, 6.579446315765381
42,1566420908,0.8246357,0.19309035,-0.43008855,0.3125961,7.44511604309082,2.9935429096221924,8.673883438110352,7.659603118896484,-22.87432861328125, 4.564775466918945
43,1566437575,0.82455146,0.19480315,-0.42967224,0.3123276,7.620809078216553,3.098132848739624,8.436116218566895,6.275553226470947,-23.34014320373535, 0.657959520816803
44,1566454242,0.82433206,0.19820912,-0.42826086,0.3127023,8.199869155883789,2.779026985168457,7.9873433113098145,20.074180603027344,-20.082101821899414, -1.610966444015503
45,1566470909,0.82447296,0.20132613,-0.42604253,0.313369,9.76363754272461,4.007715702056885,7.4151763916015625,20.574846267700195,-12.510587692260742, -0.9234294295310974
46,1566487576,0.8259268,0.20019922,-0.4241652,0.3128085,9.837995529174805,4.130651950836182,6.984375953674316,-9.794109344482422,-2.0144269466400146, 2.3640851974487305
47,1566504243,0.8284389,0.19605424,-0.422562,0.3109553,9.936344146728516,3.3411178588867188,6.408198356628418,-32.937522888183594,5.301433563232422, 1.9461696147918701
48,1566520910,0.8315887,0.1927246,-0.41955578,0.30869168,8.574823379516602,2.215834379196167,6.955629825592041,-27.426288604736328,13.935219764709473, -6.200164318084717
49,1566537577,0.8351336,0.19181463,-0.4145183,0.30648637,8.439727783203125,2.4575507640838623,7.446547031402588,-9.542104721069336,22.38212776184082, -16.689054489135742
50,1566554244,0.8396016,0.19183494,-0.40795827,0.3030486,9.269526481628418,3.207500457763672,7.332454681396484,-5.6278395652771,30.786190032958984, -30.58563804626465
51,1566570911,0.8454378,0.19060571,-0.4000966,0.2980391,9.196194648742676,2.221788167953491,7.6586833000183105,-16.317968368530273,43.35783386230469, -40.84596252441406
52,1566587578,0.8522709,0.18866569,-0.39064425,0.29229578,9.420992851257324,1.8780137300491333,7.475625514984131,-20.36052894592285,56.42406463623047, -47.616676330566406
53,1566604245,0.85987407,0.18633763,-0.37936455,0.28631744,9.090229034423828,0.4905017614364624,7.082820415496826,-20.410444259643555,70.30198669433594, -52.26875686645508
54,1566620912,0.867866,0.18432657,-0.3660733,0.280754,8.564212799072266,0.45971548557281494,7.369068145751953,-13.674699783325195,83.76882934570312, -54.56171417236328
55,1566637579,0.8764861,0.18055181,-0.3514686,0.27503297,8.438109397888184,0.7644444108009338,7.6890950202941895,-22.55802345275879,96.94986724853516, -54.487735748291016
56,1566654246,0.88564473,0.17518802,-0.33537886,0.2691908,8.23094654083252,-0.011135559529066086,8.034723281860352,-30.042808532714844,110.56902313232422, -54.747291564941406
57,1566670913,0.8945266,0.17157033,-0.31727502,0.26405013,7.738924503326416,-0.37724635004997253,7.951629638671875,-13.403021812438965,120.29602813720703, -56.970890045166016
58,1566687580,0.90332836,0.16795927,-0.29751265,0.2593719,7.093347549438477,-0.5255429148674011,7.3602614402771,-8.891491889953613,131.3466339111328, -56.467979431152344
59,1566704247,0.91204685,0.16340858,-0.27649453,0.25498798,6.726650714874268,-0.412119060754776,7.462429046630859,-11.44833755493164,141.50796508789062, -54.49763488769531
60,1566720914,0.9202292,0.15809192,-0.25534362,0.25096786,6.375680446624756,-0.08234337717294693,6.9838175773620605,-14.409675598144531,143.5698699951172, -50.395050048828125
61,1566737581,0.9279858,0.15096457,-0.23443876,0.24716549,5.651731014251709,-0.15874707698822021,6.989300727844238,-25.20254898071289,145.1542510986328, -45.20613098144531
62,1566754248,0.9351274,0.14281552,-0.21357034,0.2439844,5.149367809295654,-0.1452798992395401,7.0821709632873535,-29.90776252746582,146.77781677246094, -38.85065460205078
63,1566770915,0.9415757,0.13412608,-0.19259362,0.24156404,4.778550148010254,0.046309374272823334,7.284682273864746,-31.188583374023438,148.53793334960938, -32.4069709777832
64,1566787582,0.947237,0.12537137,-0.17178096,0.23982434,4.700332164764404,0.44284841418266296,7.354974746704102,-30.082406997680664,147.57064819335938, -26.702098846435547
65,1566804249,0.9521751,0.11588141,-0.15187985,0.23846745,4.3171210289001465,0.7803066372871399,7.889491558074951,-35.18914031982422,142.7384033203125, -21.56003761291504
66,1566820916,0.95625407,0.10696995,-0.13339949,0.23736113,3.702744960784912,0.8290092945098877,7.416329860687256,-32.71964645385742,132.15933227539062, -18.140478134155273
67,1566837583,0.9596955,0.0978168,-0.116321854,0.23640172,3.1637322902679443,0.9631535410881042,8.417119026184082,-35.9554557800293,123.1955337524414, -15.008965492248535
68,1566854250,0.962531,0.08900762,-0.10030807,0.23569097,2.5335187911987305,0.726423442363739,9.0965576171875,-34.77943801879883,115.55989074707031, -12.051898956298828
69,1566870917,0.9648837,0.08042405,-0.085123464,0.2351289,1.86622953414917,1.092908501625061,9.039690017700195,-34.17516326904297,109.65634155273438, -10.022333145141602
70,1566887584,0.96692574,0.07075287,-0.07136488,0.23442666,1.3371716737747192,1.222942590713501,7.872457504272461,-43.60639572143555,101.83683013916016, -9.098270416259766
71,1566904251,0.96862257,0.061297238,-0.058758568,0.23358218,1.0408456325531006,0.7663179636001587,7.208733558654785,-43.97139358520508,93.72318267822266, -9.09664535522461
72,1566920918,0.969881,0.054033916,-0.04673566,0.23286738,0.41598179936408997,0.03228692337870598,6.456075668334961,-30.072879791259766,86.32679748535156, -8.227081298828125
73,1566937585,0.97072095,0.049351096,-0.03502523,0.2324624,0.16822634637355804,0.13795454800128937,6.575197696685791,-13.047080039978027,80.18181610107422, -6.247749328613281
74,1566954252,0.9711657,0.047794044,-0.023557242,0.23237476,-0.008441898971796036,0.057611823081970215,6.106813907623291,7.681774616241455,73.65650177001953, -4.180867671966553
75,1566970919,0.97125775,0.049706273,-0.012392798,0.23245232,-0.375143826007843,0.1067810207605362,5.9063191413879395,30.548946380615234,66.1590576171875, -2.9615492820739746
76,1566987586,0.9711325,0.053669438,-0.0024940283,0.23241188,-0.5908725261688232,0.757560133934021,4.702920436859131,42.32430648803711,54.41844177246094, -3.1088576316833496
77,1567004253,0.97086275,0.058326375,0.006028728,0.23235193,-1.0316736698150635,0.7431067824363708,5.302731990814209,44.774078369140625,44.15269470214844, -2.4597373008728027
78,1567020920,0.9705115,0.062957145,0.012825812,0.23233452,-1.2972276210784912,1.0652083158493042,5.287719249725342,41.852508544921875,32.69362258911133, -1.3024187088012695
79,1567037587,0.97024554,0.06583045,0.017459672,0.23234713,-1.1578221321105957,1.736487865447998,5.323157787322998,26.58466339111328,21.047761917114258, -0.41102147102355957
80,1567054254,0.9701261,0.0665525,0.017975787,0.23260084,-1.4203064441680908,1.8917620182037354,1.988736629486084,5.457868576049805,-2.899639844894409, 2.5973010063171387
81,1567070921,0.9703337,0.063029505,0.0074909097,0.2332895,-1.0712239742279053,1.4514577388763428,-13.961174964904785,-40.806610107421875,-69.3671646118164, 9.484468460083008
82,1567087588,0.9706225,0.059471715,-0.023365732,0.23196787,13.770146369934082,-1.0934877395629883,-24.7891845703125,-73.94749450683594,-206.12612915039062, 4.755257606506348
83,1567104255,0.96991754,0.05298106,-0.055523694,0.23102017,3.4497032165527344,-4.470095634460449,16.435386657714844,-95.2648696899414,-208.61788940429688, 9.662334442138672
84,1567120922,0.9683347,0.052957147,-0.08539478,0.22854164,3.23000168800354,-1.890049695968628,5.11018705368042,-48.18895721435547,-204.31198120117188, -2.6031413078308105
85,1567137589,0.966034,0.048050746,-0.11672719,0.22548693,-0.2139425128698349,1.760713815689087,5.968253135681152,-82.86312103271484,-206.7356719970703, -2.0162770748138428
86,1567154256,0.96334046,0.044234857,-0.14246891,0.22298287,0.32149484753608704,1.5203031301498413,4.910075664520264,-66.49396514892578,-171.512451171875, -0.46017423272132874
87,1567170923,0.9604298,0.04257795,-0.16407548,0.22100028,4.4987335205078125,1.0815794467926025,3.496793031692505,-45.38176727294922,-147.53170776367188, -0.024833595380187035
88,1567187590,0.9576652,0.044301588,-0.1811554,0.21931145,7.00786828994751,3.233826160430908,8.148055076599121,-15.963827133178711,-122.1891860961914, -3.424203872680664
89,1567204257,0.9551564,0.04259713,-0.19706428,0.21685864,8.542868614196777,1.230898141860962,9.821420669555664,-38.035316467285156,-108.85244750976562, -4.8121867179870605
90,1567220924,0.95255184,0.040087167,-0.21196094,0.21473463,9.102425575256348,-3.7152321338653564,7.668400287628174,-41.41810989379883,-100.64186096191406, -1.6717720031738281
91,1567237591,0.9498498,0.03702647,-0.22555347,0.21340147,7.696676731109619,-2.302476644515991,7.771655559539795,-41.61470413208008,-90.72077941894531, 3.93841814994812
92,1567254258,0.9473275,0.03455467,-0.23631372,0.2133839,8.62276840209961,-3.6721622943878174,6.214390277862549,-31.444494247436523,-72.16230010986328, 10.535561561584473
93,1567270925,0.9450268,0.034908935,-0.24419644,0.21464857,9.679964065551758,-2.5589001178741455,9.169275283813477,-6.594940662384033,-56.615318298339844, 13.180371284484863
94,1567287592,0.94299954,0.037591394,-0.24980964,0.21664278,10.033907890319824,-2.480539083480835,9.454141616821289,13.091736793518066,-44.55525588989258, 13.0319185256958
95,1567304259,0.94102496,0.04273099,-0.253426,0.22004898,9.665919303894043,-1.8395289182662964,9.702105522155762,34.4207649230957,-34.78063201904297, 17.35971450805664
96,1567320926,0.9388904,0.051853012,-0.25512156,0.22518757,8.4413423538208,-0.710290253162384,11.460097312927246,66.13751983642578,-28.181222915649414, 21.313982009887695
97,1567337593,0.9369515,0.06283911,-0.254561,0.23102395,9.053549766540527,1.4034672975540161,11.768364906311035,82.77467346191406,-16.00984764099121, 21.46380043029785
98,1567354260,0.93650717,0.082283564,-0.24493055,0.23705037,9.035400390625,1.3034595251083374,12.774726867675781,151.29966735839844,31.621536254882812, 1.6266907453536987
99,1567370927,0.9337868,0.103713624,-0.24098536,0.24333541,4.315997123718262,1.0572361946105957,8.926456451416016,156.50987243652344,-11.965499877929688, 6.888320446014404
100,1567387594,0.9298715,0.118951514,-0.2434362,0.24885419,6.712843418121338,2.77065110206604,9.723915100097656,105.6174087524414,-45.27014923095703, 18.798871994018555
101,1567404261,0.92563903,0.12574448,-0.25138256,0.25335276,6.156015396118164,1.4825724363327026,8.284546852111816,40.75019836425781,-67.343017578125, 31.46327018737793
102,1567420928,0.92100054,0.13224897,-0.2617036,0.25647536,7.510046005249023,1.9382450580596924,8.871358871459961,32.75094223022461,-83.86077880859375, 25.96646499633789
103,1567437595,0.9167794,0.1373024,-0.2725777,0.25761476,7.653363227844238,2.5541489124298096,12.404069900512695,18.635162353515625,-85.86016845703125, 15.788742065429688
104,1567454262,0.9131962,0.13942173,-0.28426754,0.2565668,7.756875514984131,3.8820111751556396,13.917320251464844,-6.008476734161377,-86.70108795166016, 7.146652698516846
105,1567470929,0.9099006,0.13909411,-0.29686913,0.2541704,7.540532112121582,4.087706565856934,13.7793550491333,-25.901498794555664,-88.87107849121094, 3.842270851135254
106,1567487596,0.90654945,0.13736974,-0.3102035,0.25114062,6.816962242126465,3.1144299507141113,13.583809852600098,-37.17022705078125,-91.7615737915039, 3.5401368141174316
107,1567504263,0.9026034,0.13699664,-0.32353237,0.24872853,6.463037490844727,1.9976708889007568,12.377269744873047,-26.858932495117188,-94.77442169189453, 5.536098957061768
108,1567520930,0.89805436,0.13982308,-0.33555567,0.24769007,7.173905372619629,1.5986006259918213,11.400915145874023,-1.14163076877594,-92.21144104003906, 6.744533538818359
109,1567537597,0.8931613,0.14599699,-0.34568408,0.2478917,6.9478349685668945,1.749818205833435,12.037726402282715,25.952505111694336,-85.82313537597656, 5.441117286682129
110,1567554264,0.8881041,0.15538807,-0.35353732,0.24927333,6.76696252822876,1.8368991613388062,13.263206481933594,52.55946731567383,-76.55612182617188, 3.036778688430786
111,1567570931,0.88324046,0.16590351,-0.35947466,0.25127757,6.627486705780029,2.2792165279388428,13.96593189239502,64.02029418945312,-65.67330169677734, 1.728812336921692
112,1567587598,0.8791456,0.17518581,-0.364178,0.25256184,6.42402982711792,2.7564234733581543,12.831891059875488,56.009849548339844,-54.99892807006836, -2.327348470687866
113,1567604265,0.8759303,0.18193242,-0.36813542,0.25322613,6.286779880523682,1.8060225248336792,11.093376159667969,39.366756439208984,-44.652732849121094, -2.1444501876831055
114,1567620932,0.87295645,0.1887961,-0.3708691,0.2544791,6.644968032836914,1.1913518905639648,10.002274513244629,43.394954681396484,-36.1504020690918, -0.8472648859024048
115,1567637599,0.8703365,0.19515513,-0.37279093,0.2558439,6.849450588226318,2.2875616550445557,9.693880081176758,41.61967468261719,-29.349449157714844, -0.5665709376335144
116,1567654266,0.86816823,0.20014812,-0.3745479,0.2567859,6.503330707550049,1.9666577577590942,9.277033805847168,32.04507827758789,-25.370548248291016, -0.6095985174179077
117,1567670933,0.8663458,0.20377436,-0.3761924,0.25768277,7.168808460235596,2.547929048538208,9.111059188842773,23.495885848999023,-21.460302352905273, 1.8756053447723389
118,1567687600,0.8652031,0.20475289,-0.3780827,0.25798014,7.270779132843018,2.442945718765259,8.446016311645508,4.785604000091553,-17.314462661743164, 4.295158863067627
119,1567704267,0.8640318,0.20518379,-0.38000512,0.25873762,7.781588554382324,1.9473545551300049,8.387218475341797,2.7055559158325195,-15.956180572509766, 8.551650047302246
120,1567720934,0.86238307,0.20677091,-0.38183314,0.26027825,7.984711170196533,1.8849852085113525,8.335596084594727,12.462454795837402,-17.58912467956543, 10.89608097076416
121,1567737601,0.86037844,0.20929778,-0.38348445,0.26245615,8.03830623626709,2.1284492015838623,8.172930717468262,20.531816482543945,-18.245790481567383, 12.591071128845215
122,1567754268,0.8582191,0.21227573,-0.3850912,0.26477143,8.194822311401367,2.598726511001587,8.3407564163208,23.864118576049805,-19.001237869262695, 12.427656173706055
123,1567770935,0.8561845,0.21477489,-0.38673326,0.26694122,7.832063674926758,2.3721983432769775,8.547364234924316,20.40605354309082,-18.217498779296875, 12.665461540222168
124,1567787602,0.8542806,0.21750598,-0.38768134,0.26944214,9.058876037597656,2.771986246109009,7.588636875152588,23.73192596435547,-13.724366188049316, 12.735065460205078
125,1567804269,0.8532454,0.21777856,-0.38825473,0.27166778,10.586871147155762,3.6518356800079346,7.016929626464844,7.948289394378662,-5.054492950439453, 15.504056930541992
126,1567820936,0.85362977,0.21313933,-0.3891393,0.27287146,11.222516059875488,3.9038383960723877,5.873414039611816,-26.311735153198242,4.576565265655518, 20.44055938720703
127,1567837603,0.85551494,0.2044255,-0.3898084,0.27267903,10.302816390991211,3.127446413040161,5.710049629211426,-55.77092742919922,15.48816967010498, 20.020845413208008
128,1567854270,0.85833436,0.19457376,-0.38935414,0.27167422,9.751863479614258,2.0692038536071777,6.256556034088135,-63.85858917236328,25.616342544555664, 14.96369457244873
129,1567870937,0.8611994,0.188594,-0.38667732,0.2706452,9.507431983947754,1.7615888118743896,6.429838180541992,-36.9824333190918,31.60521125793457, 1.3943605422973633
130,1567887604,0.8645244,0.18581739,-0.38179192,0.2688951,9.568777084350586,2.6893815994262695,7.388059139251709,-16.419597625732422,39.0235710144043, -15.114032745361328
131,1567904271,0.8689901,0.18284734,-0.37507692,0.265971,9.261858940124512,2.188992500305176,7.595935821533203,-18.733015060424805,51.755741119384766, -26.027313232421875
132,1567920938,0.87466764,0.17857908,-0.36632743,0.26243177,9.019379615783691,1.0267351865768433,7.062499046325684,-25.880996704101562,68.64041900634766, -31.129474639892578
133,1567937605,0.8811216,0.17460465,-0.35521808,0.25876334,9.075820922851562,0.2616516649723053,6.750889301300049,-21.12912940979004,84.10723114013672, -36.95371627807617
134,1567954272,0.8878238,0.17248566,-0.34173226,0.255415,8.662090301513672,-0.29128724336624146,6.5415778160095215,-5.167603492736816,96.20899963378906, -42.85760498046875
135,1567970939,0.8948998,0.17048386,-0.32627144,0.25226325,8.083271980285645,-0.22273702919483185,7.076164245605469,-0.9494199156761169,109.18675994873047, -44.9471321105957
136,1567987606,0.9023647,0.16739969,-0.30933857,0.24904805,8.103736877441406,0.35631778836250305,7.353882312774658,-5.640862941741943,120.93053436279297, -45.32670974731445
137,1568004273,0.9101384,0.16239676,-0.29144627,0.24563049,8.32452392578125,-0.0011645350605249405,7.836073875427246,-16.67786979675293,130.6057891845703, -44.14322280883789
138,1568020940,0.91735345,0.15830709,-0.27313763,0.242482,7.982766628265381,-0.05461427569389343,6.505008220672607,-9.08392333984375,130.864013671875, -43.82517623901367
139,1568037607,0.9246275,0.15165603,-0.25483647,0.23900416,7.071345806121826,0.11280055344104767,6.402698040008545,-25.92387580871582,134.86712646484375, -41.19469451904297
140,1568054274,0.93164873,0.14349931,-0.23612082,0.23597814,5.911885738372803,-0.34956642985343933,6.845320224761963,-33.74934768676758,140.0279083251953, -35.70608139038086
141,1568070941,0.93809664,0.1352842,-0.2168723,0.23375037,5.120227813720703,-0.14978721737861633,6.612137794494629,-31.382123947143555,143.40342712402344, -30.100862503051758
142,1568087608,0.9440513,0.12619768,-0.19739977,0.23210907,4.6391801834106445,0.2551649808883667,6.8386969566345215,-35.29682540893555,146.0666961669922, -24.436141967773438
143,1568104275,0.9493491,0.11690273,-0.17782769,0.23118663,4.660552978515625,0.8393810987472534,6.726621150970459,-34.93925476074219,146.7826385498047, -18.526626586914062
144,1568120942,0.9539337,0.107087076,-0.15864217,0.23103212,4.658810138702393,0.9683701992034912,6.511362075805664,-37.44070816040039,144.84327697753906, -11.42678165435791
145,1568137609,0.95772743,0.09792673,-0.14003329,0.23142904,4.006739616394043,0.8629631400108337,6.376344680786133,-32.878910064697266,139.5793914794922, -6.8421735763549805
146,1568154276,0.960741,0.089904286,-0.122312255,0.23223646,3.5510706901550293,1.337735652923584,6.994808197021484,-25.880800247192383,131.45941162109375, -3.390631914138794
147,1568170943,0.963311,0.08178498,-0.10561957,0.23278259,2.610161304473877,1.7171505689620972,7.927116870880127,-28.117706298828125,124.29376220703125, -3.6860196590423584
148,1568187610,0.9655962,0.072680704,-0.08979511,0.23297757,2.181037425994873,1.7251089811325073,8.922786712646484,-36.14004135131836,119.7101058959961, -4.3471245765686035
149,1568204277,0.9677382,0.06173866,-0.07544178,0.2323358,2.2388696670532227,2.5875344276428223,9.10748291015625,-51.15553283691406,112.3711929321289, -7.793942451477051
150,1568220944,0.9698332,0.0471786,-0.063060045,0.23069747,1.9647737741470337,1.978989601135254,8.228240966796875,-78.90391540527344,104.58263397216797, -11.629093170166016
151,1568237611,0.9715354,0.032059044,-0.05175899,0.22893764,1.5506701469421387,0.31960687041282654,7.9261474609375,-84.2950668334961,98.05433654785156, -11.21823501586914
152,1568254278,0.9726886,0.020281779,-0.040847335,0.22759044,1.0834565162658691,-0.4196242094039917,7.45684289932251,-62.3099250793457,90.0849838256836, -8.696330070495605
153,1568270945,0.9733771,0.012821795,-0.029902294,0.22688894,0.4224243462085724,-0.8228399753570557,7.366727828979492,-33.12671661376953,83.50680541992188, -4.869407653808594
154,1568287612,0.97370714,0.010580775,-0.019033879,0.22676067,0.08011946082115173,-0.8348601460456848,6.533535480499268,1.8465518951416016,74.81744384765625, -1.5401732921600342
155,1568304279,0.9737548,0.013263838,-0.008386141,0.22705822,-0.4100399613380432,-0.586142897605896,5.857847690582275,34.55878829956055,65.64429473876953, 1.1234651803970337
156,1568320946,0.9735853,0.019032916,0.0017504694,0.22752243,-0.6554816961288452,-0.26261669397354126,5.874665260314941,54.46177291870117,57.389686584472656, 2.445791244506836
157,1568337613,0.97319937,0.027437799,0.011702762,0.2280207,-1.038941502571106,-0.055193111300468445,6.873469352722168,71.8514633178711,52.02062225341797, 3.065521478652954
158,1568354280,0.97266454,0.036528494,0.020942386,0.228366,-1.0069671869277954,0.26883047819137573,6.467726230621338,75.36836242675781,46.1362419128418, 2.4669485092163086
159,1568370947,0.9721069,0.0450503,0.028765941,0.22836646,-1.1543785333633423,0.7868445515632629,5.739948749542236,69.39663696289062,37.45573043823242, 0.47123923897743225
160,1568387614,0.9716164,0.052843373,0.034288205,0.22802167,-1.2727867364883423,1.3584364652633667,4.616726875305176,60.9529914855957,23.077686309814453, -1.3689422607421875
161,1568404281,0.971264,0.058353864,0.036850154,0.22777888,-1.578805685043335,1.972589373588562,4.1325249671936035,40.97218322753906,6.862766265869141, -0.36553385853767395
162,1568420948,0.9711242,0.061476834,0.03685109,0.22755383,-1.6653155088424683,2.1773998737335205,4.6367082595825195,20.901081085205078,-6.574100494384766, -0.15480342507362366
163,1568437615,0.9711816,0.063272245,0.034789033,0.22714093,-1.8537979125976562,2.573023557662964,5.73184871673584,8.745513916015625,-18.428377151489258, -1.1787108182907104
164,1568454282,0.9714539,0.063408226,0.03148764,0.22641964,-1.867921233177185,3.4342002868652344,7.658417701721191,-4.321396827697754,-24.328096389770508, -3.428292989730835
165,1568470949,0.9719456,0.061086368,0.027143009,0.2255077,-1.8576008081436157,3.447200059890747,8.0990629196167,-22.457904815673828,-27.62961769104004, -5.1150712966918945
166,1568487616,0.9726032,0.054470126,0.02114115,0.22501002,-1.7835344076156616,2.977309465408325,6.780834674835205,-53.91276931762695,-31.932621002197266, -2.706352472305298
167,1568504283,0.9730816,0.041535255,0.0033511422,0.22666296,2.7430286407470703,0.9651497602462769,-16.42059898376465,-114.69215393066406,-100.19023895263672, 15.452784538269043
168,1568520950,0.9736566,0.021627834,-0.03126048,0.22482932,17.12567901611328,-1.1194868087768555,-7.949429512023926,-187.58847045898438,-202.84292602539062, -3.3849377632141113
169,1568537617,0.97224957,0.019110495,-0.058686353,0.22565885,2.545989990234375,-5.968292713165283,17.146669387817383,-59.13865280151367,-181.22518920898438, 12.697854995727539
170,1568554284,0.9709096,0.015374399,-0.08771,0.22227345,6.785562992095947,1.5431007146835327,-0.6296851634979248,-71.33841705322266,-190.5380401611328, -14.888928413391113
171,1568570951,0.96885806,0.008920007,-0.11660172,0.21826366,-0.4257121682167053,3.085637331008911,3.8083605766296387,-89.61966705322266,-185.84974670410156, -16.326618194580078
172,1568587618,0.9662843,0.003704542,-0.1399393,0.21609801,2.3884174823760986,1.058939814567566,4.407199382781982,-71.57808685302734,-151.0462646484375, -4.560918807983398
173,1568604285,0.9637558,0.0069567207,-0.15943007,0.21379633,5.40203332901001,1.698056936264038,7.8348588943481445,-9.754518508911133,-138.00863647460938, -13.760746002197266
174,1568620952,0.96112835,0.006021431,-0.1766396,0.21212055,7.740918159484863,-0.12692688405513763,9.537324905395508,-33.498931884765625,-116.75364685058594, -4.962603569030762
175,1568637619,0.9584902,0.0029558474,-0.19220981,0.21057916,7.589570045471191,-2.0378880500793457,8.338521003723145,-45.02310562133789,-102.72927856445312, -1.517632246017456
176,1568654286,0.9560835,0.001388088,-0.20551485,0.20896542,9.145822525024414,-3.2312886714935303,5.9812750816345215,-31.933849334716797,-89.57657623291016, -4.352389812469482
177,1568670953,0.9536772,0.0036631222,-0.2164163,0.2089274,9.254473686218262,-2.910054922103882,8.613299369812012,-0.9295565485954285,-79.14000701904297, 0.5387558341026306
178,1568687620,0.9514602,0.00753533,-0.22504906,0.20981023,9.20652961730957,-4.336155891418457,7.340041160583496,14.219162940979004,-66.14252471923828, 3.8577382564544678
179,1568704287,0.94935286,0.014157784,-0.2314395,0.21204929,9.308640480041504,-4.35026741027832,8.745797157287598,37.621551513671875,-55.08377456665039, 8.15945816040039
180,1568720954,0.9473764,0.023298716,-0.23562253,0.21544738,9.046605110168457,-3.9527010917663574,9.569371223449707,59.19375228881836,-43.928035736083984, 11.262746810913086
181,1568737621,0.94535506,0.034675118,-0.23765957,0.2204992,9.343775749206543,-2.889127016067505,9.621363639831543,79.69825744628906,-32.992313385009766, 18.079866409301758
182,1568754288,0.9431116,0.04899368,-0.23729199,0.2276687,9.07880973815918,-2.1198172569274902,11.822928428649902,106.03933715820312,-21.601789474487305, 26.74154281616211
183,1568770955,0.94209635,0.072761655,-0.22796139,0.23493443,9.034991264343262,1.349604845046997,12.929458618164062,181.1442108154297,23.804922103881836, 6.936397552490234
184,1568787622,0.93998814,0.09642119,-0.221512,0.24095203,4.623709678649902,1.737813115119934,10.230006217956543,174.3436737060547,3.001905918121338, 2.1789841651916504
185,1568804289,0.93608695,0.11411748,-0.2229912,0.24696907,5.415472984313965,3.5952937602996826,8.190376281738281,123.81798553466797,-41.14502716064453, 19.450523376464844
186,1568820956,0.9323506,0.120578565,-0.23017256,0.25140423,7.081326961517334,3.4098360538482666,8.4232816696167,39.19795227050781,-59.751651763916016, 30.69121551513672
187,1568837623,0.9282674,0.12610722,-0.23950441,0.25505817,7.0915846824646,2.912095069885254,8.418216705322266,28.499629974365234,-73.07857513427734, 29.556407928466797
188,1568854290,0.9244359,0.130998,-0.24931306,0.25710115,7.7894287109375,3.2434394359588623,11.649567604064941,20.678518295288086,-75.94559478759766, 20.30769920349121
189,1568870957,0.92056894,0.13652468,-0.25872606,0.2587954,7.058085918426514,3.089012384414673,12.829424858093262,24.811983108520508,-74.93110656738281, 16.724369049072266
190,1568887624,0.9165964,0.14110586,-0.2687951,0.2601721,8.020049095153809,4.200719356536865,12.192095756530762,17.163158416748047,-77.93690490722656, 17.221582412719727
191,1568904291,0.91224766,0.14494734,-0.27979147,0.26174703,6.874019145965576,2.9196982383728027,12.100638389587402,11.513628959655762,-82.98261260986328, 21.45035171508789
192,1568920958,0.9070548,0.15086965,-0.29106218,0.2641459,6.551188945770264,2.7939839363098145,12.395428657531738,26.476360321044922,-89.31138610839844, 24.436283111572266
193,1568937625,0.9014872,0.15744045,-0.30212644,0.26693332,6.6074323654174805,2.525458812713623,12.149751663208008,32.04352951049805,-89.6363754272461, 26.05233383178711
194,1568954292,0.8957235,0.16518402,-0.31197578,0.27030554,6.70116662979126,2.326321840286255,12.940984725952148,42.962379455566406,-84.12490844726562, 26.307491302490234
195,1568970959,0.8901495,0.17373337,-0.32002142,0.2739296,6.141493797302246,2.4396328926086426,14.125082015991211,51.60327911376953,-73.94215393066406, 23.74530601501465
196,1568987626,0.8851659,0.18198484,-0.3262893,0.27730572,6.318637847900391,3.0607073307037354,14.042061805725098,51.88556671142578,-61.67253875732422, 19.6726131439209
197,1569004293,0.8814646,0.18684728,-0.33181265,0.27930096,6.29362678527832,3.5201690196990967,12.898473739624023,27.972095489501953,-49.71096420288086, 15.536603927612305
198,1569020960,0.8786955,0.18864667,-0.33699736,0.2806061,6.240074157714844,2.0108089447021484,10.82724380493164,7.2678141593933105,-40.69944763183594, 16.171003341674805
199,1569037627,0.87588555,0.19125451,-0.34089872,0.2829039,6.309896469116211,1.7041605710983276,10.491943359375,16.988309860229492,-33.43109893798828, 18.729778289794922
200,1569054294,0.87341756,0.19325627,-0.34394354,0.28547707,6.595019340515137,3.071314811706543,10.0608549118042,15.215402603149414,-26.04339599609375, 20.031457901000977
201,1569070961,0.87159264,0.19302091,-0.34669986,0.28786954,6.259581089019775,3.1849734783172607,9.920405387878418,1.041447639465332,-18.738975524902344, 22.636655807495117
202,1569087628,0.8702066,0.19088432,-0.34943646,0.29016927,6.874390125274658,3.614915370941162,8.862016677856445,-11.145519256591797,-14.044041633605957, 25.769697189331055
203,1569104295,0.8693961,0.18650886,-0.35228616,0.29199237,6.955202102661133,3.7433431148529053,8.428020477294922,-26.716318130493164,-9.564244270324707, 27.356388092041016
204,1569120962,0.86863446,0.18134452,-0.35556018,0.29353982,6.993034839630127,3.3969945907592773,8.006877899169922,-33.07379913330078,-10.807342529296875, 28.13014793395996
205,1569137629,0.8677566,0.17636527,-0.35898262,0.29500115,7.169732570648193,3.6559531688690186,7.713350772857666,-32.389286041259766,-12.502041816711426, 27.64183235168457
206,1569154296,0.8668159,0.1713773,-0.36266756,0.29619673,7.522198677062988,3.71394419670105,7.645553112030029,-33.624900817871094,-14.560245513916016, 26.590757369995117
207,1569170963,0.86580575,0.16666633,-0.36671224,0.29685917,7.973593711853027,3.5508596897125244,7.11814546585083,-34.03005599975586,-18.092681884765625, 23.362234115600586
208,1569187630,0.8650223,0.1628833,-0.36997408,0.297195,9.058489799499512,3.1528396606445312,7.851129531860352,-28.06902313232422,-15.123948097229004, 17.79012107849121
209,1569204297,0.8641409,0.16061175,-0.37219846,0.29821604,9.88265323638916,3.2840895652770996,8.376616477966309,-15.176159858703613,-11.511910438537598, 17.121980667114258
210,1569220964,0.86383444,0.15710597,-0.37395436,0.29877448,9.883038520812988,3.8906009197235107,7.253201484680176,-23.44292449951172,-5.21952486038208, 15.903226852416992
211,1569237631,0.86447734,0.15185028,-0.37510106,0.2981947,9.738889694213867,3.4454238414764404,6.7860283851623535,-36.637245178222656,3.255537986755371, 11.121648788452148
212,1569254298,0.8656332,0.147298,-0.37534866,0.29681012,9.684920310974121,2.7065765857696533,6.705404281616211,-33.3187370300293,7.700240135192871, 2.6110012531280518
213,1569270965,0.8668708,0.14655289,-0.37406936,0.2951776,9.813127517700195,2.2986831665039062,6.648303508758545,-8.343344688415527,9.042627334594727, -10.344593048095703
214,1569287632,0.8684929,0.14862403,-0.3713627,0.29278162,10.151944160461426,3.20772123336792,7.234265327453613,8.922690391540527,12.128729820251465, -24.30689239501953
215,1569304299,0.87140954,0.14890358,-0.36751035,0.2888071,10.776041984558105,2.854722023010254,7.624121189117432,-4.920126914978027,24.332422256469727, -32.863529205322266
216,1569320966,0.87534237,0.1484789,-0.36225048,0.28373381,10.85401725769043,1.6807997226715088,7.029942989349365,-10.250020027160645,35.67607879638672, -41.07377624511719
217,1569337633,0.880304,0.14813009,-0.3552333,0.27736625,10.213196754455566,0.7430145740509033,7.1407976150512695,-10.696389198303223,47.441200256347656, -52.84488296508789
218,1569354300,0.8857732,0.15036848,-0.3456307,0.27080402,9.608121871948242,0.16359469294548035,7.960753917694092,8.87272834777832,59.275299072265625, -63.972652435302734
219,1569370967,0.89177245,0.15408678,-0.33368847,0.26391566,9.372140884399414,-0.17336685955524445,7.872398376464844,20.917585372924805,71.73374938964844, -72.93490600585938
220,1569387634,0.89843166,0.15710531,-0.31983852,0.2565975,9.352307319641113,-0.09426054358482361,8.126763343811035,18.412336349487305,85.80823516845703, -77.26174926757812
221,1569404301,0.90599895,0.1562688,-0.30460712,0.2489195,9.318389892578125,-0.25949525833129883,8.627206802368164,-4.720509052276611,102.80421447753906, -74.18782806396484
222,1569420968,0.9139829,0.15236516,-0.28814706,0.24164394,8.463850021362305,-1.1074222326278687,8.020635604858398,-21.298173904418945,117.06465911865234, -67.38897705078125
223,1569437635,0.9221631,0.14674252,-0.27016047,0.23472431,7.629161357879639,-1.158352017402649,7.707089424133301,-28.995952606201172,130.3392791748047, -63.791107177734375
224,1569454302,0.92989725,0.1425652,-0.25024763,0.22878577,7.088325023651123,-0.8517889380455017,7.3285813331604,-14.376021385192871,140.44573974609375, -61.59746170043945
225,1569470969,0.93729883,0.13786833,-0.22939214,0.22325516,6.977028846740723,-0.32542359828948975,7.433536529541016,-15.123495101928711,147.19676208496094, -58.606712341308594
226,1569487636,0.94407576,0.13296545,-0.2082429,0.21834943,6.343203544616699,-0.4444243609905243,7.799188137054443,-14.370800018310547,149.1109619140625, -53.6641845703125
227,1569504303,0.9501872,0.12770264,-0.18687916,0.21427307,5.348432540893555,-0.3817994296550751,7.684000492095947,-14.525753021240234,150.93377685546875, -47.05541229248047
228,1569520970,0.9556789,0.12193168,-0.16512446,0.21105683,4.6548333168029785,-0.7028768658638,7.457695960998535,-15.54931354522705,154.26438903808594, -40.285457611083984
229,1569537637,0.9603465,0.11615493,-0.14335993,0.20902413,4.5804762840271,-0.6837332248687744,7.162106037139893,-13.451488494873047,154.45726013183594, -31.391000747680664
230,1569554304,0.96441436,0.107983254,-0.12240385,0.2079957,4.125846862792969,-0.15321926772594452,6.794382095336914,-28.866954803466797,152.8632049560547, -20.9544677734375
231,1569570971,0.9679699,0.096680425,-0.10277653,0.20766473,3.7231035232543945,0.3975880444049835,7.081918239593506,-50.498268127441406,148.71441650390625, -12.018811225891113
232,1569587638,0.9709254,0.08336882,-0.08438873,0.20792444,3.0907979011535645,0.2301548272371292,7.298668384552002,-64.78181457519531,143.39462280273438, -5.010371685028076
233,1569604305,0.97333366,0.069228895,-0.066772185,0.2082567,2.5777711868286133,0.8024494647979736,8.19899845123291,-71.01138305664062,139.23104858398438, -2.82734751701355
234,1569620972,0.97520715,0.054647535,-0.050019667,0.20852622,2.223909616470337,0.949923574924469,8.336174011230469,-74.96214294433594,133.86204528808594, -1.863645076751709
235,1569637639,0.97658813,0.03981036,-0.034503628,0.20856765,2.001351833343506,1.0197129249572754,7.785635948181152,-78.34608459472656,125.73785400390625, -2.1267483234405518
236,1569654306,0.9774596,0.026485657,-0.020336794,0.20846558,1.5728477239608765,0.9201489686965942,7.127558708190918,-70.03810119628906,114.41289520263672, -2.3340539932250977
237,1569670973,0.97794324,0.015523824,-0.007024303,0.20817558,1.0595306158065796,0.7652750611305237,6.407948017120361,-55.363704681396484,105.25273132324219, -3.205871105194092
238,1569687640,0.97809553,0.008507874,0.005864542,0.20790043,0.40801846981048584,-0.04345206171274185,6.027787208557129,-29.428068161010742,96.78335571289062, -2.7741219997406006
239,1569704307,0.9779974,0.007214446,0.018148761,0.20770179,-0.09935449063777924,-0.18792439997196198,5.182695388793945,8.21739673614502,84.56512451171875, -1.645747184753418
240,1569720974,0.9776507,0.011164671,0.029855838,0.20780611,-0.7681035995483398,-0.48071378469467163,5.351787567138672,42.649070739746094,73.2334976196289, 1.4127360582351685
241,1569737641,0.97707725,0.019663135,0.040905617,0.20799156,-0.8729550242424011,0.039394229650497437,4.992147445678711,72.32618713378906,62.32719802856445, 3.2374534606933594
242,1569754308,0.9762975,0.030361013,0.051198557,0.20808728,-1.2814366817474365,0.664673924446106,5.462648868560791,86.09078979492188,54.098270416259766, 3.6153831481933594
243,1569770975,0.975374,0.041387532,0.05990587,0.20819299,-1.4114556312561035,1.0215115547180176,5.092285633087158,86.04460906982422,42.973819732666016, 4.303849220275879
244,1569787642,0.97449356,0.05044103,0.066419095,0.20834337,-1.5877445936203003,1.26362144947052,5.066559791564941,69.61703491210938,31.009889602661133, 4.324441432952881
245,1569804309,0.97384936,0.05650165,0.07018629,0.20856448,-1.6219323873519897,1.5887298583984375,4.843130588531494,45.48442459106445,16.7392578125, 4.028378963470459
246,1569820976,0.97354215,0.05954952,0.070799336,0.2089436,-1.6029249429702759,1.5682885646820068,4.126458644866943,20.533931732177734,-0.2348431944847107, 4.37015438079834
247,1569837643,0.97358245,0.06006771,0.06877569,0.20928368,-1.928912878036499,1.7713035345077515,4.938743591308594,-0.3602685034275055,-14.510578155517578, 3.4616544246673584
248,1569854310,0.97391057,0.059497435,0.06489563,0.20915806,-1.9821168184280396,1.8009980916976929,6.236187934875488,-10.272193908691406,-25.78952407836914, 0.1967252790927887
249,1569870977,0.974382,0.057695184,0.060303703,0.20884159,-2.1655285358428955,2.257225275039673,8.226110458374023,-19.56661033630371,-29.013011932373047, -1.525652527809143
250,1569887644,0.97502726,0.05278502,0.05448361,0.2087285,-1.9513823986053467,3.129875421524048,7.580076217651367,-42.36405944824219,-32.857757568359375, -1.1927952766418457
251,1569904311,0.97585905,0.04214265,0.042744197,0.20999162,-0.6739344596862793,3.3756861686706543,-3.4400784969329834,-89.9920883178711,-63.96461868286133, 7.793774604797363
252,1569920978,0.97710264,0.032953985,0.013652357,0.20975794,13.760589599609375,1.4077634811401367,-20.71843147277832,-105.20301818847656,-183.1226806640625, 2.6550521850585938
253,1569937645,0.9772656,0.023063738,-0.01804031,0.20998864,5.728404521942139,-5.877954006195068,12.255939483642578,-113.66160583496094,-198.55593872070312, 7.883078098297119
254,1569954312,0.97634745,0.02513,-0.04510607,0.2099532,4.296987533569336,-3.5635242462158203,9.697430610656738,-26.088529586791992,-184.55343627929688, 5.491389751434326
255,1569970979,0.975283,0.022978878,-0.074741974,0.20666197,3.7218167781829834,0.8928491473197937,-0.8823359608650208,-58.863426208496094,-196.12161254882812, -14.37798023223877
256,1569987646,0.97349095,0.019542646,-0.10011471,0.20472147,0.274202436208725,0.6208935976028442,4.727721214294434,-60.666969299316406,-165.6323699951172, -4.229249000549316
257,1570004313,0.9712943,0.018605432,-0.12108555,0.20391195,4.014062404632568,0.6410988569259644,5.266969680786133,-36.933135986328125,-139.8640594482422, 1.6620728969573975
258,1570020980,0.96899855,0.024678407,-0.13954066,0.20239012,5.822751998901367,1.7813924551010132,9.966872215270996,12.798467636108398,-132.90695190429688, -9.078201293945312
259,1570037647,0.9663608,0.025682174,-0.15712954,0.20198518,7.0159735679626465,0.6073637008666992,10.98199462890625,-18.74070930480957,-120.04340362548828, 3.6129164695739746
260,1570054314,0.9636806,0.026665049,-0.17372592,0.20106812,8.252992630004883,0.3440897762775421,8.6117525100708,-18.075233459472656,-113.35623168945312, 0.1605798602104187
261,1570070981,0.9605804,0.026850836,-0.18988864,0.20126365,8.506813049316406,-0.2753567099571228,7.650864124298096,-21.359783172607422,-109.38236999511719, 9.035362243652344
262,1570087648,0.95753187,0.024632229,-0.20479548,0.20145772,8.550530433654785,-1.0160573720932007,8.460366249084473,-35.48372268676758,-97.3857421875, 11.90110969543457
263,1570104315,0.95461273,0.025317013,-0.2168916,0.2025639,9.083863258361816,-1.8876248598098755,8.185287475585938,-11.14253044128418,-82.2999496459961, 13.184677124023438
264,1570120982,0.9519538,0.028617654,-0.22610182,0.20455728,9.14972972869873,-1.72471284866333,10.116090774536133,11.438417434692383,-66.17597198486328, 14.215571403503418
265,1570137649,0.94958633,0.032901816,-0.23280095,0.20738307,8.942530632019043,-2.01778507232666,9.557127952575684,22.743677139282227,-50.293312072753906, 17.182720184326172
266,1570154316,0.94736916,0.03946048,-0.23737356,0.21116044,8.885266304016113,-1.9077922105789185,10.41840934753418,42.23296356201172,-38.996795654296875, 18.978248596191406
267,1570170983,0.94512784,0.049001403,-0.24018364,0.21597391,8.537662506103516,-1.544876217842102,10.861847877502441,66.03080749511719,-31.448490142822266, 20.306243896484375
268,1570187650,0.94255024,0.061193302,-0.24215657,0.22184509,7.476278305053711,-1.6104377508163452,10.64566421508789,86.46340942382812,-30.035303115844727, 22.88285255432129
269,1570204317,0.9395498,0.073458694,-0.24449557,0.22819385,8.834259986877441,-1.1919794082641602,9.400975227355957,87.471923828125,-32.9832878112793, 26.491168975830078
270,1570220984,0.9366479,0.08556696,-0.2461436,0.23405719,8.396406173706055,0.10381963849067688,11.411764144897461,86.77971649169922,-28.21011734008789, 22.95478630065918
271,1570237651,0.93458,0.0993686,-0.24388117,0.23918286,7.524856090545654,0.1021447479724884,11.544093132019043,102.27989959716797,-4.736029148101807, 11.557515144348145
272,1570254318,0.93145066,0.11226561,-0.24403332,0.24544752,4.957301616668701,0.7541933655738831,10.860668182373047,95.1865005493164,-19.79369354248047, 23.642248153686523
273,1570270985,0.9276894,0.11901,-0.24960218,0.2508551,6.830000400543213,3.438098192214966,10.031172752380371,45.73225402832031,-45.973670959472656, 33.643089294433594
274,1570287652,0.9235494,0.12044922,-0.2601388,0.25470927,6.970343112945557,2.573316812515259,8.548233985900879,0.8751736879348755,-70.44754028320312, 37.60311508178711
275,1570304319,0.9186793,0.12293296,-0.27283233,0.25783467,8.269369125366211,1.800146460533142,8.181267738342285,2.973311424255371,-87.85188293457031, 34.21772003173828
276,1570320986,0.9132533,0.12768422,-0.28502136,0.26158893,7.2628278732299805,1.119473934173584,11.382031440734863,19.816537857055664,-89.10279083251953, 34.5013542175293
277,1570337653,0.9072607,0.13494644,-0.29679963,0.26566508,7.625384330749512,2.873283863067627,11.516223907470703,37.47970199584961,-91.97285461425781, 32.23664474487305
278,1570354320,0.9016855,0.14025162,-0.30850545,0.26854703,7.425440788269043,3.722783327102661,10.922612190246582,22.51683807373047,-88.31636047363281, 27.99001121520996
279,1570370987,0.8963512,0.14477202,-0.31967106,0.2709361,6.760249137878418,3.0588200092315674,11.461350440979004,17.266088485717773,-83.6040267944336, 25.7227783203125
280,1570387654,0.89088255,0.15126327,-0.3293521,0.27381667,6.647496223449707,3.0623300075531006,12.628496170043945,33.32682418823242,-78.13015747070312, 23.26442527770996
281,1570404321,0.8855303,0.15856473,-0.3379046,0.276612,6.8406548500061035,3.7240490913391113,12.856433868408203,40.041141510009766,-72.8401107788086, 19.580039978027344
282,1570420988,0.8808318,0.1643523,-0.3455456,0.27878752,6.260514259338379,3.1192445755004883,12.452388763427734,30.323659896850586,-63.85774612426758, 17.18608856201172
283,1570437655,0.8763183,0.16997689,-0.35224405,0.2812451,6.610968112945557,2.144251823425293,10.917227745056152,31.553665161132812,-57.39171600341797, 17.94724464416504
284,1570454322,0.87189746,0.17611387,-0.35774153,0.28425378,6.896937370300293,2.8819150924682617,10.396212577819824,38.17884063720703,-50.515811920166016, 18.48400115966797
285,1570470989,0.8679068,0.18139662,-0.36234438,0.28729767,6.8549065589904785,3.2372004985809326,11.15424633026123,34.32989501953125,-42.59324645996094, 18.94046401977539
286,1570487656,0.86466527,0.18505242,-0.3663511,0.28964958,6.575538635253906,3.5283453464508057,10.6522855758667,23.094158172607422,-35.07400131225586, 16.73406982421875
287,1570504323,0.8624644,0.18546633,-0.3704047,0.29078886,7.059103488922119,3.9187426567077637,8.956153869628906,-0.7117027044296265,-28.068084716796875, 15.794532775878906
288,1570520990,0.8606347,0.18377209,-0.37496465,0.29144087,7.438564300537109,2.8416266441345215,7.970991134643555,-16.02629852294922,-26.68596839904785, 18.31556510925293
289,1570537657,0.85839087,0.18374853,-0.37887707,0.29300874,7.393179416656494,2.0211565494537354,8.290104866027832,-2.0076205730438232,-26.207101821899414, 19.52665138244629
290,1570554324,0.8557041,0.18593103,-0.3822483,0.29510483,7.508406162261963,2.901418685913086,6.9378557205200195,14.022677421569824,-28.057661056518555, 17.152294158935547
291,1570570991,0.85326594,0.18764037,-0.3856408,0.29666525,8.257550239562988,3.219336748123169,7.528310775756836,9.409839630126953,-27.302072525024414, 14.84979248046875
292,1570587658,0.8509979,0.19006635,-0.3884079,0.29802197,7.792306900024414,2.464071035385132,8.607014656066895,14.062103271484375,-24.958105087280273, 10.694046974182129
293,1570604325,0.8486194,0.1933083,-0.39093703,0.2994091,7.552250385284424,2.5538628101348877,7.946032524108887,19.517549514770508,-25.619831085205078, 8.668684005737305
294,1570620992,0.84673226,0.19574279,-0.39351237,0.2997965,8.36763858795166,3.053644895553589,7.157248497009277,11.332989692687988,-24.34366798400879, 4.122317314147949
295,1570637659,0.8454053,0.19770621,-0.395799,0.29924208,8.279929161071777,2.4307193756103516,7.638573169708252,5.822781562805176,-21.48823356628418, -1.545793056488037
296,1570654326,0.84412193,0.20148899,-0.39658812,0.29929712,9.743313789367676,2.485607624053955,7.372893333435059,21.044466018676758,-15.654623031616211, -5.0273118019104
297,1570670993,0.84378225,0.20327312,-0.39662358,0.29900134,10.690573692321777,3.578533172607422,6.4691057205200195,8.693344116210938,-5.090628623962402, -4.560714244842529
298,1570687660,0.8450834,0.20097223,-0.3963498,0.29723996,10.12818431854248,2.8444693088531494,5.843841075897217,-20.745710372924805,7.58721923828125, -5.64764928817749
299,1570704327,0.847517,0.196898,-0.3950844,0.29471147,9.239017486572266,2.391547679901123,6.207298755645752,-32.7435188293457,19.0609130859375, -8.904610633850098
300,1570720994,0.850721,0.19322994,-0.39231068,0.29159716,9.207104682922363,1.7757771015167236,6.3596086502075195,-30.005611419677734,28.3375186920166, -16.989200592041016
301,1570737661,0.85437816,0.19222173,-0.38746998,0.28802168,9.307230949401855,1.9809201955795288,6.727289199829102,-12.183883666992188,35.71091079711914, -30.512893676757812
302,1570754328,0.85892826,0.19182704,-0.38089916,0.28347978,9.286212921142578,1.859108805656433,6.80774450302124,-8.952057838439941,45.75968551635742, -41.87710952758789
303,1570770995,0.8644377,0.19063832,-0.37286335,0.27816916,9.50331974029541,1.8645740747451782,6.6081132888793945,-14.106099128723145,57.45612716674805, -48.15000534057617
304,1570787662,0.8710841,0.18708484,-0.36359,0.27205592,9.608227729797363,0.9469121694564819,6.328904151916504,-29.388736724853516,71.22039794921875, -50.676002502441406
305,1570804329,0.8782476,0.18301786,-0.35271814,0.26603764,9.618572235107422,0.7588048577308655,6.588282585144043,-29.915205001831055,83.220458984375, -51.91362762451172
306,1570820996,0.885662,0.17919777,-0.34015548,0.26035708,9.091017723083496,0.3915412127971649,6.694623947143555,-24.830780029296875,94.06909942626953, -53.138710021972656
307,1570837663,0.8929934,0.17685452,-0.32572982,0.25531563,8.73144245147705,0.6819493770599365,6.566036701202393,-10.891191482543945,103.41473388671875, -54.945213317871094
308,1570854330,0.9005327,0.17414963,-0.30993167,0.2503108,8.6532621383667,0.23630160093307495,6.899518966674805,-10.870656967163086,113.04833984375, -56.03689193725586
309,1570870997,0.90786415,0.17189163,-0.29310596,0.2456122,8.419248580932617,0.08299686759710312,7.329484462738037,-5.404505729675293,118.63093566894531, -56.078216552734375
310,1570887664,0.91515654,0.16881791,-0.27572912,0.24075523,7.945606231689453,0.5634154677391052,7.515495300292969,-9.793536186218262,123.24468994140625, -56.126739501953125
311,1570904331,0.9225615,0.16354734,-0.2579105,0.23582867,6.503551483154297,-0.06475800275802612,7.751966953277588,-23.11644172668457,129.85012817382812, -53.19426345825195
312,1570920998,0.92960876,0.15783076,-0.2396072,0.2313135,6.028189182281494,0.26076826453208923,7.274113178253174,-23.95761489868164,133.4822235107422, -49.854610443115234
313,1570937665,0.93661946,0.14944375,-0.22113247,0.22696126,5.914921760559082,-0.27620720863342285,7.453772068023682,-40.3939094543457,138.96536254882812, -44.62128448486328
314,1570954332,0.9432135,0.13981554,-0.20220344,0.22341466,5.758995056152344,-0.5231250524520874,8.612549781799316,-45.94013977050781,144.06033325195312, -37.44390106201172
315,1570970999,0.9491038,0.12991045,-0.18298483,0.22100371,5.414448261260986,-0.1656210571527481,8.709198951721191,-44.92276382446289,146.50262451171875, -28.967269897460938
316,1570987666,0.9543766,0.118290685,-0.16425557,0.21953039,4.976193904876709,0.47684767842292786,8.474270820617676,-55.02782440185547,146.01026916503906, -19.36750030517578
317,1571004333,0.9589485,0.10527889,-0.14657937,0.2187443,4.873884201049805,1.0816278457641602,7.78008508682251,-64.3470687866211,141.01100158691406, -11.400964736938477
318,1571021000,0.9627031,0.09284095,-0.12942362,0.2187079,4.185088634490967,0.6801791787147522,8.327925682067871,-59.98099899291992,136.50938415527344, -5.440743446350098
319,1571037667,0.9657322,0.081718445,-0.11285571,0.21896863,3.4717018604278564,1.2948246002197266,8.374067306518555,-51.39338302612305,130.23141479492188, -3.1901543140411377
320,1571054334,0.9682236,0.07119771,-0.096856005,0.2193015,3.1026573181152344,1.280205249786377,8.30817985534668,-47.896915435791016,125.20401000976562, -2.04573917388916
321,1571071001,0.97024995,0.06128401,-0.08172896,0.21950004,2.5230937004089355,1.482546091079712,7.887142181396484,-45.04160690307617,118.13065338134766, -2.2116785049438477
322,1571087668,0.9719631,0.05146972,-0.06769109,0.21921882,2.137460708618164,1.7621625661849976,7.993032455444336,-46.188377380371094,110.35319519042969, -4.530436038970947
323,1571104335,0.97335184,0.04347342,-0.05388045,0.21861778,1.5741316080093384,0.9225453734397888,7.860938549041748,-34.465240478515625,105.838623046875, -6.942306041717529
324,1571121002,0.97439915,0.03869353,-0.039847597,0.21785833,0.9611976742744446,0.5120657682418823,7.370832443237305,-12.57290267944336,102.30973052978516, -8.753189086914062
325,1571137669,0.9751027,0.03652948,-0.026064204,0.21716684,0.5605208277702332,0.4169713258743286,7.438353538513184,4.6954569816589355,96.61930847167969, -8.447758674621582
326,1571154336,0.97548467,0.036596227,-0.013157214,0.21660529,0.260556161403656,0.4683702290058136,6.425390243530273,18.45956039428711,87.35273742675781, -7.296866416931152
327,1571171003,0.9755648,0.03907576,-0.0006970116,0.21620972,-0.03124820813536644,0.2585253417491913,6.582108974456787,34.07615661621094,80.7404556274414, -5.86361026763916
328,1571187670,0.97535,0.04401001,0.011326796,0.21593504,-0.4136117696762085,0.1969110518693924,6.1942644119262695,49.99616622924805,74.15128326416016, -4.5356125831604
329,1571204337,0.9749843,0.049762018,0.02192003,0.2155215,-0.6470707654953003,0.7145430445671082,4.570446491241455,53.441871643066406,63.256813049316406, -4.776295185089111
330,1571221004,0.97453606,0.054614414,0.030461773,0.21533598,-1.2070645093917847,0.6587668061256409,4.4602813720703125,44.364227294921875,50.8659782409668, -2.5821473598480225
331,1571237671,0.9741088,0.05851694,0.03583571,0.21541601,-1.4084446430206299,1.529157280921936,3.5781078338623047,33.251220703125,31.056936264038086, 0.14639686048030853
332,1571254338,0.9739419,0.059829995,0.038115386,0.21541904,-1.3535399436950684,1.8672136068344116,3.550981283187866,11.197943687438965,13.982481002807617, -0.15047478675842285
333,1571271005,0.97391665,0.061574493,0.037717264,0.21511212,-1.3169491291046143,2.2877748012542725,3.847506046295166,10.085752487182617,-4.8365631103515625, -1.21720552444458
334,1571287672,0.97403324,0.063095585,0.035350915,0.21454409,-1.61463463306427,2.1977896690368652,5.10431432723999,5.610219478607178,-17.912250518798828, -2.3932790756225586
335,1571304339,0.9743265,0.062453765,0.030250095,0.21418038,-1.417843222618103,2.750417470932007,4.407222270965576,-13.09602165222168,-33.07823944091797, -0.6065625548362732
336,1571321006,0.97488153,0.055367205,0.013509215,0.21531083,1.0537571907043457,0.1602918654680252,-15.10053825378418,-73.9285888671875,-101.05795288085938, 12.712990760803223
337,1571337673,0.97596836,0.04018872,-0.021005176,0.21314369,16.727331161499023,-0.3015052378177643,-12.220724105834961,-154.495361328125,-209.5283660888672, -4.097448348999023
338,1571354340,0.97528845,0.03387744,-0.051873937,0.21207236,1.0805799961090088,-5.82808780670166,16.052650451660156,-89.01786804199219,-197.15359497070312, 3.5963666439056396
339,1571371007,0.97392595,0.030947313,-0.082315914,0.20913035,5.710179328918457,-3.642744541168213,0.7390543818473816,-65.88607788085938,-199.94876098632812, -9.195219993591309
340,1571387674,0.97170687,0.02926321,-0.11132908,0.20624332,0.7190993428230286,1.8065578937530518,5.709681987762451,-55.090938568115234,-192.39999389648438, -8.576345443725586
341,1571404341,0.96922195,0.02777619,-0.13480087,0.20412491,1.8067368268966675,3.4113595485687256,4.586904048919678,-45.34345626831055,-155.75296020507812, -4.261579990386963
342,1571421008,0.96648705,0.030775422,-0.15465747,0.20257744,5.670135021209717,1.6289916038513184,7.649090766906738,-9.938206672668457,-138.08145141601562, -4.877435684204102
343,1571437675,0.96359384,0.03271085,-0.1726054,0.20155677,7.7431135177612305,0.717979371547699,10.089014053344727,-13.813559532165527,-123.8499755859375, -0.37929368019104004
344,1571454342,0.96059686,0.032332826,-0.1899515,0.20031922,8.915107727050781,-1.9402709007263184,8.566011428833008,-28.55576515197754,-116.67131042480469, 0.9786917567253113
345,1571471009,0.95724905,0.03371998,-0.20634001,0.19990443,8.607378959655762,-1.9224216938018799,7.712088108062744,-14.319894790649414,-112.84205627441406, 4.382859230041504
346,1571487676,0.9540863,0.03072884,-0.22129527,0.19951004,8.454445838928223,-2.006077766418457,7.396244525909424,-41.08009719848633,-96.9332504272461, 10.140294075012207
347,1571504343,0.95085526,0.029489448,-0.23439199,0.20016484,9.158740997314453,-2.4154834747314453,7.952141761779785,-25.326034545898438,-86.85624694824219, 14.059053421020508
348,1571521010,0.94787073,0.03300865,-0.24424106,0.20198733,9.545790672302246,-2.0485501289367676,8.622488021850586,12.198413848876953,-71.36772918701172, 12.997852325439453
349,1571537677,0.9452837,0.03925436,-0.25077748,0.20496164,9.498299598693848,-1.359798550605774,9.821000099182129,36.50291061401367,-52.478660583496094, 14.5687837600708
350,1571554344,0.9425988,0.04784538,-0.25526103,0.2099073,9.422704696655273,-0.8601995706558228,10.196432113647461,58.125770568847656,-41.96363830566406, 22.854522705078125
351,1571571011,0.9398706,0.059407514,-0.257579,0.21625891,8.70379638671875,0.28677040338516235,11.55573844909668,83.04096221923828,-31.73973274230957, 26.024194717407227
352,1571587678,0.93793404,0.07684238,-0.25412765,0.22314811,9.934698104858398,0.6278515458106995,12.497758865356445,130.20773315429688,-1.54843270778656, 15.468348503112793
353,1571604345,0.93623513,0.09993649,-0.24768819,0.22831511,6.407407283782959,0.2375698983669281,9.825533866882324,168.15023803710938,8.580889701843262, -7.60930871963501
354,1571621012,0.93247366,0.11738652,-0.2483589,0.23458913,6.630173683166504,1.4332945346832275,10.005330085754395,123.97364807128906,-31.12910270690918, 17.114145278930664
355,1571637679,0.928606,0.12489887,-0.25407314,0.23987232,6.208517551422119,1.2692689895629883,9.802659034729004,50.518985748291016,-48.45735549926758, 31.902786254882812
356,1571654346,0.9246329,0.12729268,-0.263487,0.24377455,7.144973278045654,1.580126404762268,8.153251647949219,9.439240455627441,-65.06066131591797, 35.35964584350586
357,1571671013,0.9203424,0.12932377,-0.27463633,0.24661951,8.33445930480957,1.4590215682983398,8.268643379211426,2.5887832641601562,-76.97207641601562, 31.34859848022461
358,1571687680,0.91599447,0.13179947,-0.28619462,0.24834815,7.577038764953613,1.9048972129821777,11.06934928894043,2.656827688217163,-81.36976623535156, 23.91328239440918
359,1571704347,0.91181135,0.1343086,-0.29757115,0.24902496,8.183749198913574,3.5795514583587646,13.020512580871582,0.9462904930114746,-80.97863006591797, 16.795429229736328
360,1571721014,0.9076135,0.13529165,-0.3097093,0.2490278,7.38769006729126,3.564704179763794,12.069235801696777,-11.35000228881836,-83.90352630615234, 16.492801666259766
361,1571737681,0.9029874,0.13681288,-0.32205978,0.24934772,7.1705732345581055,1.828187346458435,11.450827598571777,-7.343289375305176,-86.89185333251953, 18.3382625579834
362,1571754348,0.8976268,0.14162986,-0.33366022,0.25075614,7.26561164855957,2.0376105308532715,11.785759925842285,17.5019474029541,-88.61743927001953, 18.38119125366211
363,1571771015,0.89237154,0.1476005,-0.34375986,0.25242236,7.2689208984375,2.7892305850982666,12.584208488464355,27.68941879272461,-80.99905395507812, 15.70709228515625
364,1571787682,0.8876,0.15332195,-0.3524036,0.2539116,6.5062432289123535,2.6616547107696533,13.536492347717285,27.748615264892578,-70.85267639160156, 12.935766220092773
365,1571804349,0.88310754,0.16016588,-0.35929835,0.25568283,6.364764213562012,2.8343517780303955,13.51196575164795,38.0233039855957,-61.408775329589844, 9.648887634277344
366,1571821016,0.8793822,0.16571179,-0.36506557,0.25681642,7.064292907714844,3.6701576709747314,12.139448165893555,29.68343162536621,-51.34074783325195, 6.441219806671143
367,1571837683,0.8764007,0.16980317,-0.36972168,0.25767317,6.602356910705566,2.528127431869507,11.129203796386719,21.26213836669922,-40.69865417480469, 5.912166118621826
368,1571854350,0.8737435,0.17440777,-0.37294534,0.25897273,6.735213279724121,2.490373134613037,10.410016059875488,27.625247955322266,-31.81578254699707, 5.070674419403076
369,1571871017,0.8715154,0.17851958,-0.3752005,0.2604172,6.593171119689941,2.5303232669830322,9.9415922164917,26.232933044433594,-24.002920150756836, 5.3158698081970215
370,1571887684,0.86938703,0.18265878,-0.3767728,0.262384,6.568116664886475,2.156768560409546,9.349748611450195,28.832782745361328,-19.20777702331543, 7.3986639976501465
371,1571904351,0.86742634,0.18638131,-0.3778851,0.26464555,6.766796112060547,2.4861555099487305,8.652990341186523,27.722183227539062,-15.030908584594727, 9.38586711883545
372,1571921018,0.86598873,0.18812102,-0.37906122,0.26643464,7.169047832489014,2.961564064025879,7.790549278259277,13.86794662475586,-11.151273727416992, 10.883614540100098
373,1571937685,0.86465734,0.18852018,-0.38096496,0.26775795,7.523965835571289,2.836344003677368,7.112039566040039,3.171816349029541,-13.418712615966797, 12.398404121398926
374,1571954352,0.86320835,0.18912412,-0.38299567,0.2691074,7.509161949157715,2.758439540863037,8.021611213684082,4.34527063369751,-14.860302925109863, 12.439624786376953
375,1571971019,0.8615419,0.18998472,-0.38533682,0.27049574,7.448173999786377,2.416957378387451,7.936473369598389,5.6575927734375,-17.763898849487305, 12.842107772827148
376,1571987686,0.85959774,0.19149595,-0.38768935,0.2722476,7.856147289276123,1.809837818145752,7.654735565185547,10.803154945373535,-19.366601943969727, 13.834553718566895
377,1572004353,0.8575824,0.19390701,-0.39005464,0.27351555,8.061373710632324,2.7752842903137207,8.016942977905273,14.904650688171387,-21.998422622680664, 8.738007545471191
378,1572021020,0.85610634,0.19474308,-0.39235532,0.2742539,9.00825023651123,3.661224365234375,7.9124436378479,3.578425884246826,-17.97012710571289, 8.777247428894043
379,1572037687,0.85547334,0.19257352,-0.39482054,0.2742238,10.007898330688477,4.360395431518555,6.847707748413086,-17.668394088745117,-12.058164596557617, 11.053292274475098
380,1572054354,0.855899,0.18730961,-0.39717022,0.2731462,9.529738426208496,3.617584228515625,6.3609137535095215,-39.96605682373047,-4.038712024688721, 11.218297004699707
381,1572071021,0.8566799,0.18241072,-0.3986541,0.27184844,9.412449836730957,3.0994486808776855,6.348596572875977,-37.30371856689453,1.075822114944458, 7.202834129333496
382,1572087688,0.8576218,0.17999712,-0.39862686,0.27052462,9.046931266784668,2.2883400917053223,6.194331169128418,-20.157915115356445,5.755700588226318, -1.9145394563674927
383,1572104355,0.8586979,0.18126264,-0.39637432,0.26957452,8.778979301452637,2.0393145084381104,6.565698146820068,6.505781173706055,12.879101753234863, -12.778909683227539
384,1572121022,0.8606368,0.1828882,-0.39245573,0.26802167,9.370763778686523,2.661940097808838,7.7368292808532715,8.97992992401123,23.647724151611328, -20.98548698425293
385,1572137689,0.86383253,0.1827095,-0.38729933,0.26535028,9.966858863830566,2.2080559730529785,7.536899089813232,-4.047308921813965,36.26044464111328, -26.58769416809082
386,1572154356,0.86829495,0.18083613,-0.38094595,0.2612347,9.765872955322266,1.7301888465881348,6.98040246963501,-17.392126083374023,48.01811981201172, -34.46834182739258
387,1572171023,0.8739045,0.17838855,-0.37265125,0.25612527,9.445735931396484,1.1011662483215332,7.187611103057861,-21.37775230407715,62.42060852050781, -43.38392639160156
388,1572187690,0.88044345,0.1757949,-0.36213368,0.2505501,9.499788284301758,0.9602023959159851,7.733270645141602,-20.68104362487793,77.84767150878906, -50.21015930175781
389,1572204357,0.8876545,0.17338023,-0.34949806,0.24466473,9.528491020202637,0.7101759910583496,7.764994144439697,-17.531293869018555,91.66011047363281, -56.295196533203125
390,1572221024,0.8953735,0.17092171,-0.33482653,0.23871371,8.982832908630371,-0.012701928615570068,7.517786026000977,-15.127758026123047,105.31356811523438, -59.9273567199707
391,1572237691,0.90338343,0.16809091,-0.3182042,0.23321834,8.419336318969727,-0.1244259923696518,7.507043838500977,-13.484460830688477,119.15741729736328, -59.1103515625
392,1572254358,0.91143864,0.16450033,-0.3000732,0.22842114,8.408153533935547,-0.4604240655899048,7.3427534103393555,-14.275399208068848,130.67198181152344, -55.003822326660156
393,1572271025,0.9192925,0.1602952,-0.28110498,0.2240259,8.065213203430176,-0.5175681710243225,7.246574401855469,-15.710200309753418,136.96163940429688, -51.93254470825195
394,1572287692,0.92666626,0.15594232,-0.26173845,0.22014928,7.172728061676025,-0.18448930978775024,7.387762546539307,-14.445462226867676,139.39840698242188, -48.14555740356445
395,1572304359,0.93376553,0.14942974,-0.24251819,0.21665311,6.420955181121826,0.002769624814391136,7.8035149574279785,-27.40441131591797,141.68455505371094, -41.328311920166016
396,1572321026,0.94031733,0.14210957,-0.22328486,0.21389922,6.023326396942139,-0.09006210416555405,7.555717945098877,-30.723819732666016,142.8429412841797, -34.466453552246094
397,1572337693,0.94638604,0.1337329,-0.20378888,0.21199052,5.265253067016602,-0.4255421757698059,7.83729362487793,-35.34993362426758,146.2095489501953, -26.97403335571289
398,1572354360,0.9518755,0.12470746,-0.18418375,0.21085185,5.0035505294799805,0.5359048247337341,7.920053958892822,-37.73820877075195,147.7809600830078, -20.351398468017578
399,1572371027,0.956897,0.11365703,-0.1651815,0.21010996,4.582326889038086,0.7885537147521973,7.444799900054932,-50.93033218383789,146.54275512695312, -14.018735885620117
400,1572387694,0.9613928,0.10153003,-0.14685325,0.20940518,4.210651874542236,1.3703036308288574,7.968675136566162,-58.5155029296875,143.12586975097656, -11.281147956848145
401,1572404361,0.96535265,0.08913616,-0.12900087,0.20858712,3.3849334716796875,1.2791391611099243,8.669703483581543,-60.705684661865234,139.76885986328125, -10.663213729858398
402,1572421028,0.9687622,0.07721734,-0.11148592,0.2076271,3.2896432876586914,1.5746384859085083,8.76272201538086,-57.82304382324219,136.276611328125, -11.027915954589844
403,1572437695,0.97164994,0.06550063,-0.094587766,0.20654279,2.91342830657959,1.3651795387268066,8.744911193847656,-57.18924331665039,131.4253387451172, -10.939775466918945
404,1572454362,0.9740314,0.054031454,-0.078357816,0.20543721,2.724862575531006,1.0724607706069946,8.533782958984375,-56.281009674072266,126.282470703125, -10.221068382263184
405,1572471029,0.9758436,0.044059716,-0.06260049,0.20462127,2.215660333633423,0.5380545258522034,7.95922327041626,-46.559112548828125,120.82069396972656, -8.113125801086426
406,1572487696,0.9771477,0.03661604,-0.04717807,0.20400196,1.5358741283416748,0.30694401264190674,7.313634872436523,-29.822406768798828,114.87265014648438, -7.065755844116211
407,1572504363,0.9779246,0.033279207,-0.032070357,0.20378476,0.8697863221168518,0.036425042897462845,6.810416221618652,-2.399340867996216,106.93199920654297, -4.890340328216553
408,1572521030,0.9782734,0.03353443,-0.017376011,0.20385177,0.4663148820400238,0.1299089938402176,6.399654865264893,21.351741790771484,99.08273315429688, -3.086864471435547
409,1572537697,0.9782308,0.037230164,-0.0029149347,0.20413487,-0.07168114930391312,-0.20033642649650574,6.7596635818481445,44.296871185302734,92.68175506591797, -1.4611821174621582
410,1572554364,0.97788715,0.043099936,0.010527743,0.20437568,-0.38246598839759827,0.1978537142276764,5.898288726806641,57.593814849853516,82.73875427246094, -1.1215819120407104
411,1572571031,0.97732633,0.04936361,0.022541288,0.20466907,-0.8299289345741272,0.728076696395874,6.02691125869751,58.31033706665039,72.57831573486328, -0.029404275119304657
412,1572587698,0.9767012,0.054617975,0.032486577,0.2049815,-1.061779260635376,1.1150957345962524,5.392889976501465,48.638790130615234,60.078372955322266, 0.7217874526977539
413,1572604365,0.97617126,0.05794038,0.0400216,0.20526065,-1.3678723573684692,1.3960578441619873,4.955397129058838,32.23109436035156,46.53999328613281, 0.8287914395332336
414,1572621032,0.97587943,0.05880213,0.04464785,0.20544913,-1.6042484045028687,1.6498525142669678,3.9007370471954346,11.524045944213867,30.34137725830078, 0.36429712176322937
415,1572637699,0.9758414,0.05847255,0.046239175,0.20537211,-1.876141905784607,1.9580795764923096,3.0260775089263916,-0.8055198192596436,11.422879219055176, -0.9143738746643066
416,1572654366,0.97597,0.05803964,0.045000635,0.2051587,-2.0349342823028564,2.0625922679901123,2.7386369705200195,-5.559481620788574,-7.585970878601074, -0.953561007976532
417,1572671033,0.9763113,0.055769395,0.0403491,0.20513183,-2.1103298664093018,2.463751792907715,1.7709879875183105,-22.89031410217285,-27.951353073120117, 0.80312180519104
418,1572687700,0.9769306,0.05158153,0.026263835,0.20556566,-0.8294290900230408,0.3872447609901428,-12.575324058532715,-49.364139556884766,-88.54031372070312, 6.604430198669434
419,1572704367,0.97809416,0.04281019,-0.0061383806,0.20362408,17.557096481323242,0.3152017891407013,-16.356733322143555,-105.87199401855469,-206.11431884765625, -4.418501377105713
420,1572721034,0.9778821,0.03443465,-0.038401518,0.20270015,3.328681468963623,-5.248927593231201,16.03838348388672,-102.61854553222656,-204.9695587158203, 4.304313659667969
421,1572737701,0.9767952,0.030637043,-0.069688275,0.2001934,4.957129001617432,-3.303978204727173,2.7363216876983643,-70.49140930175781,-205.3308563232422, -6.530941009521484
422,1572754368,0.97470254,0.025950177,-0.10156246,0.19740346,0.011838153004646301,-0.9001083374023438,4.065621852874756,-77.09342193603516,-208.4749298095703, -6.46591329574585
423,1572771035,0.9720599,0.025303733,-0.12867548,0.19468802,0.29904821515083313,2.262847661972046,6.901464462280273,-43.36580276489258,-182.4476776123047, -8.866182327270508
424,1572787702,0.9692682,0.025275538,-0.15216838,0.19164121,3.824115037918091,5.371482849121094,6.83162260055542,-34.71327209472656,-159.31871032714844, -12.019943237304688
425,1572804369,0.96648747,0.025729503,-0.17236985,0.18849424,6.679370403289795,3.2933220863342285,8.854642868041992,-27.412307739257812,-137.98602294921875, -13.709957122802734
426,1572821036,0.96357995,0.022133755,-0.19102125,0.18583868,7.664328575134277,-0.6620023250579834,8.917582511901855,-51.795833587646484,-122.41645812988281, -5.704534530639648
427,1572837703,0.96047324,0.019156609,-0.20844287,0.18351342,8.967779159545898,-3.8853673934936523,6.469895839691162,-45.635475158691406,-115.17674255371094, -4.231677532196045
428,1572854370,0.9570305,0.019458827,-0.22447973,0.1825497,8.985825538635254,-2.368905782699585,8.945465087890625,-20.126070022583008,-110.32865142822266, 0.28894326090812683
429,1572871037,0.9537436,0.017701318,-0.23854902,0.18208688,9.11574935913086,-4.340177059173584,7.505041599273682,-30.390859603881836,-94.38580322265625, 6.309184551239014
430,1572887704,0.9505688,0.020062016,-0.24995963,0.18313453,9.234725952148438,-3.984452247619629,7.423407077789307,2.517000913619995,-81.62674713134766, 8.957275390625
431,1572904371,0.9476136,0.025453111,-0.2589231,0.18531293,9.273106575012207,-2.8222994804382324,9.386117935180664,27.418195724487305,-68.80914306640625, 10.483245849609375
432,1572921038,0.94485503,0.033321995,-0.2656824,0.18855445,9.598984718322754,-1.9945155382156372,9.421095848083496,48.29425811767578,-56.99650192260742, 12.317673683166504
433,1572937705,0.94219464,0.043961227,-0.27031836,0.19304432,8.903437614440918,-0.8815723061561584,11.258705139160156,71.34770202636719,-46.258567810058594, 14.702775001525879
434,1572954372,0.9395509,0.056620322,-0.27327672,0.19839215,8.47622013092041,0.9383922815322876,11.106356620788574,88.27082824707031,-37.76019287109375, 15.929768562316895
435,1572971039,0.9367721,0.070519306,-0.2750201,0.20457345,8.09177303314209,0.37172460556030273,10.094417572021484,99.53878784179688,-31.52440071105957, 18.6585750579834
436,1572987706,0.9344091,0.08960961,-0.2723548,0.21136306,9.9644775390625,1.0468676090240479,10.76501178741455,140.1324920654297,-9.34288501739502, 9.981346130371094
437,1573004373,0.9324017,0.10849133,-0.26867557,0.21603593,5.7930731773376465,2.7265706062316895,10.325470924377441,136.06797790527344,-3.128321647644043, -4.442275047302246
438,1573021040,0.92931604,0.11428891,-0.2736051,0.22011665,5.410763740539551,2.334484338760376,9.579235076904297,39.06681823730469,-41.36894989013672, 23.940296173095703
439,1573037707,0.9255559,0.112919286,-0.28442633,0.22293189,6.784316062927246,2.894144296646118,6.1071038246154785,-17.507564544677734,-70.47789001464844, 35.01194763183594
440,1573054374,0.92165565,0.1091251,-0.29729554,0.22418566,8.559402465820312,0.7249656915664673,9.072243690490723,-39.059749603271484,-81.24884033203125, 31.66045379638672
441,1573071041,0.9167858,0.11432374,-0.30704218,0.22838663,7.716799736022949,-0.8390023708343506,14.706887245178223,29.508371353149414,-75.07644653320312, 31.106361389160156
442,1573087708,0.9114476,0.12328117,-0.31518093,0.23393959,7.672261714935303,1.1847960948944092,14.594032287597656,59.00993347167969,-70.8711929321289, 31.125045776367188
443,1573104375,0.9063274,0.13012163,-0.32354718,0.23865807,7.246713638305664,2.421147108078003,12.306788444519043,43.399261474609375,-69.235107421875, 30.3118839263916
444,1573121042,0.9013217,0.13497287,-0.33284688,0.24210688,7.335123062133789,2.827746868133545,11.766350746154785,26.530717849731445,-72.75283813476562, 27.48650360107422
445,1573137709,0.89663494,0.13803464,-0.3426991,0.2440304,7.372951984405518,4.0073065757751465,11.909106254577637,10.709799766540527,-73.96214294433594, 22.138442993164062
446,1573154376,0.8928119,0.13889045,-0.35213998,0.24412067,6.844345569610596,3.1977386474609375,12.644031524658203,-7.384753704071045,-67.51564025878906, 14.251421928405762
447,1573171043,0.88933796,0.13956775,-0.36031985,0.24447894,7.204052925109863,0.7539577484130859,13.284521102905273,-6.078368663787842,-58.48826217651367, 14.586371421813965
448,1573187710,0.88566417,0.14432718,-0.3661874,0.24632666,6.770808696746826,1.4015839099884033,13.268214225769043,26.668855667114258,-50.40079879760742, 11.699527740478516
449,1573204377,0.88243526,0.14922693,-0.37058842,0.24840486,6.566531181335449,2.0118460655212402,11.542898178100586,30.15135383605957,-40.49431228637695, 10.551372528076172
450,1573221044,0.8791085,0.15557964,-0.37377417,0.2515103,6.502749443054199,2.0245862007141113,10.031360626220703,43.75129699707031,-34.90705871582031, 12.019533157348633
451,1573237711,0.8759293,0.16205561,-0.37631026,0.25471142,7.118242263793945,2.906067132949829,9.135043144226074,45.69554901123047,-30.795759201049805, 11.345890045166016
452,1573254378,0.87315756,0.16761748,-0.37833986,0.25760588,6.946991920471191,2.8316874504089355,9.682795524597168,39.807281494140625,-25.490312576293945, 10.617914199829102
453,1573271045,0.8708256,0.17133975,-0.38038597,0.260026,6.979353427886963,2.1910574436187744,9.58215045928955,26.973033905029297,-21.8060359954834, 11.82640552520752
454,1573287712,0.8687591,0.1742753,-0.38217518,0.262353,7.014125347137451,2.1597394943237305,9.105717658996582,22.159767150878906,-18.347387313842773, 12.56974983215332
455,1573304379,0.8667458,0.17702805,-0.38388196,0.26466686,7.234274864196777,2.364734649658203,8.345501899719238,21.108741760253906,-17.462844848632812, 12.794370651245117
456,1573321046,0.8646864,0.17966935,-0.38602117,0.26650602,7.2157511711120605,2.6899404525756836,7.258572101593018,18.44810676574707,-20.581466674804688, 10.892595291137695
457,1573337713,0.86275417,0.18223512,-0.38818505,0.26787972,7.546764373779297,2.6693239212036133,7.224947929382324,16.541065216064453,-20.853134155273438, 8.151128768920898
458,1573354380,0.86098486,0.18424028,-0.39040515,0.2689719,7.4841413497924805,2.546720027923584,7.841796875,12.13573932647705,-20.093910217285156, 7.772375583648682
459,1573371047,0.8592006,0.18613176,-0.3928209,0.2698565,8.041851043701172,2.902799129486084,7.4609479904174805,10.548529624938965,-21.379390716552734, 7.148987293243408
460,1573387714,0.8578381,0.18579575,-0.3955806,0.27039105,9.425592422485352,3.315565586090088,7.702176570892334,-4.753712177276611,-18.608617782592773, 10.784584045410156
461,1573404381,0.8568868,0.18393406,-0.39834544,0.2706209,9.9042329788208,3.1804304122924805,7.174284934997559,-15.141607284545898,-15.080931663513184, 12.412281036376953
462,1573421048,0.85640645,0.18167955,-0.4002134,0.2709083,9.449536323547363,2.7064993381500244,6.667494297027588,-16.251951217651367,-7.69561767578125, 11.846617698669434
463,1573437715,0.85648006,0.17871454,-0.4014234,0.27085754,9.1796236038208,3.16499924659729,6.667728424072266,-20.85279655456543,-1.3872630596160889, 9.979423522949219
464,1573454382,0.8574887,0.174242,-0.40203518,0.2696707,9.40335464477539,3.3822200298309326,7.182897567749023,-32.93251419067383,6.130634784698486, 5.0048627853393555
465,1573471049,0.85925955,0.17066394,-0.4013695,0.26730308,10.021627426147461,3.257667064666748,7.411946773529053,-29.49989891052246,12.691570281982422, -7.336158752441406
466,1573487716,0.8618208,0.16896716,-0.39859575,0.2642684,9.98876667022705,2.914844036102295,7.7849249839782715,-17.315488815307617,23.086406707763672, -20.365346908569336
467,1573504383,0.86588687,0.16669422,-0.3934579,0.26008675,9.945149421691895,2.8382251262664795,8.23144245147705,-21.355934143066406,40.92703628540039, -31.041133880615234
468,1573521050,0.87123287,0.16408032,-0.38600042,0.2550217,9.72230339050293,1.4528648853302002,8.127167701721191,-23.123733520507812,57.78204345703125, -40.30744552612305
469,1573537717,0.8774775,0.16249707,-0.37625983,0.2491144,9.833946228027344,1.1089102029800415,7.379552364349365,-16.209558486938477,71.07450103759766, -52.25038528442383
470,1573554384,0.8843268,0.16195025,-0.36453268,0.24260129,9.637340545654297,0.2902773320674896,7.013786792755127,-8.802864074707031,82.18022918701172, -61.85948181152344
471,1573571051,0.89149386,0.163265,-0.35063574,0.23587959,9.247108459472656,0.004194693174213171,7.224969387054443,5.260377407073975,92.84890747070312, -70.77908325195312
472,1573587718,0.8991395,0.1645133,-0.33466935,0.2290883,8.83372974395752,-0.17455868422985077,7.55412483215332,7.51837158203125,106.73390197753906, -74.18546295166016
473,1573604385,0.90727895,0.16405644,-0.31685093,0.22256969,8.634305953979492,-0.48440438508987427,8.318221092224121,-0.02288656495511532,122.32545471191406, -71.49894714355469
474,1573621052,0.91539174,0.1623421,-0.29790595,0.21669422,8.273321151733398,-0.9412105679512024,7.311368465423584,-4.6807732582092285,131.95201110839844, -66.02841186523438
475,1573637719,0.9233418,0.15940191,-0.27833936,0.21109143,7.606687068939209,-0.8432784080505371,7.0219550132751465,-10.694141387939453,137.68621826171875, -62.31132507324219
476,1573654386,0.9307772,0.15618786,-0.25847158,0.20604126,6.941407203674316,-0.62882399559021,7.035924434661865,-10.334124565124512,139.64561462402344, -57.9102668762207
477,1573671053,0.9378925,0.15125479,-0.2385894,0.20138593,6.19611120223999,-0.5761618614196777,7.186432361602783,-20.23671531677246,142.05223083496094, -51.93885803222656
478,1573687720,0.9446113,0.14461544,-0.21868567,0.19741866,5.875263690948486,-0.2080412358045578,7.362582683563232,-29.62843132019043,144.64056396484375, -44.21006774902344
479,1573704387,0.95076823,0.13657309,-0.19897602,0.19441554,5.467875003814697,-0.25737708806991577,6.983424186706543,-36.964881896972656,145.4193572998047, -34.91686248779297
480,1573721054,0.9563191,0.127626,-0.1793468,0.19235787,4.786283493041992,-0.00247318297624588,7.348150253295898,-41.09088134765625,146.18931579589844, -26.638477325439453
481,1573737721,0.9611166,0.118631884,-0.15984017,0.19139999,3.705639123916626,-0.3533356189727783,7.459043502807617,-39.51306915283203,145.50160217285156, -18.26059913635254
482,1573754388,0.96520114,0.109714866,-0.14082819,0.19109808,3.449726104736328,0.5606579780578613,7.142093658447266,-38.3162841796875,141.8880615234375, -12.685956001281738
483,1573771055,0.9686555,0.10061709,-0.12239143,0.19132274,3.246798276901245,0.6630431413650513,7.3747334480285645,-39.269649505615234,138.1061553955078, -7.76103401184082
484,1573787722,0.9715839,0.09121615,-0.10445426,0.19182032,3.0585625171661377,1.175246238708496,8.397156715393066,-41.33834457397461,134.93618774414062, -4.654743671417236
485,1573804389,0.9740125,0.081653535,-0.0873638,0.19235723,2.7319226264953613,1.51412832736969,8.692767143249512,-43.187835693359375,129.1682586669922, -3.086212158203125
486,1573821056,0.9761513,0.07066682,-0.071467556,0.1924283,2.2402777671813965,1.7457621097564697,8.15584659576416,-54.42539596557617,122.62749481201172, -4.2945237159729
487,1573837723,0.9779462,0.059424978,-0.056849774,0.1919881,1.649962067604065,1.3560057878494263,7.531078338623047,-57.92583084106445,113.97384643554688, -6.522445201873779
488,1573854390,0.9793031,0.050061435,-0.04307573,0.1913248,1.34006929397583,0.44351574778556824,7.2536725997924805,-46.32664489746094,105.5613784790039, -7.83156681060791
489,1573871057,0.9802187,0.043663494,-0.029778628,0.19073506,0.8777771592140198,0.12010136246681213,6.464287281036377,-26.804752349853516,98.3456802368164, -7.464135646820068
490,1573887724,0.9807253,0.039886985,-0.017223153,0.19050434,0.6455311179161072,0.02973802201449871,6.122396945953369,-9.904204368591309,89.93167877197266, -4.831718921661377
491,1573904391,0.9808442,0.039662164,-0.0053397142,0.19064255,-0.1351083368062973,0.013897608034312725,6.636847496032715,13.325840950012207,80.8018798828125, -2.0701186656951904
492,1573921058,0.98063195,0.0427103,0.0056541804,0.19106641,-0.4943661093711853,0.10520943999290466,6.284497261047363,34.34483337402344,70.56391143798828, 0.4075261354446411
493,1573937725,0.98021287,0.0473829,0.015646312,0.19155797,-0.805533230304718,0.39010339975357056,6.093943119049072,44.05012893676758,61.684940338134766, 1.487378716468811
494,1573954392,0.9796874,0.052000575,0.024270233,0.19214833,-1.2466440200805664,0.6124703288078308,6.135049819946289,41.907737731933594,52.5576057434082, 2.7285070419311523
495,1573971059,0.97918826,0.05538497,0.031059973,0.1927691,-1.3448368310928345,0.8223448991775513,5.582403659820557,31.165842056274414,41.8103141784668, 3.3467350006103516
496,1573987726,0.97881114,0.05729051,0.035837825,0.19329856,-1.4555643796920776,0.9147303104400635,4.9333600997924805,18.514904022216797,30.136716842651367, 3.0206143856048584
497,1574004393,0.97855735,0.05790902,0.038269665,0.19393156,-1.7478609085083008,1.045745611190796,4.170639991760254,6.657649993896484,16.040552139282227, 4.161728858947754
498,1574021060,0.97841626,0.057711683,0.038187973,0.19471627,-1.3594354391098022,1.679473638534546,3.77834153175354,-2.27563738822937,0.2144743651151657, 5.821620464324951
499,1574037727,0.978425,0.056179103,0.034218743,0.1958559,-1.8870245218276978,2.001532793045044,1.4514094591140747,-16.635589599609375,-24.073734283447266, 9.202306747436523
500,1574054394,0.9788075,0.055027846,0.018096266,0.1964237,-0.18869295716285706,1.7213994264602661,-18.241836547851562,-30.480056762695312,-106.6923828125, 9.64606761932373
501,1574071061,0.9798733,0.046091028,-0.0146567095,0.19367722,17.026227951049805,2.963538646697998,-10.528450012207031,-105.27188110351562,-209.48629760742188, -8.250567436218262
502,1574087728,0.97941583,0.03959925,-0.04550883,0.1926335,0.7979525327682495,-3.2880897521972656,17.315183639526367,-85.68170928955078,-199.21896362304688, 4.401259899139404
503,1574104395,0.97817,0.036737647,-0.0761095,0.18985029,4.628312110900879,-3.2529919147491455,0.40260374546051025,-61.141517639160156,-203.06988525390625, -7.450354099273682
504,1574121062,0.9760854,0.03197143,-0.10576818,0.18721765,-0.574059247970581,-0.5294668674468994,4.647891521453857,-72.37061309814453,-194.5693817138672, -4.578607082366943
505,1574137729,0.9735695,0.032529283,-0.13046709,0.18462063,1.0383864641189575,1.145129919052124,4.753560543060303,-30.114273071289062,-168.46658325195312, -8.728082656860352
506,1574154396,0.97074336,0.03351983,-0.15215631,0.18271434,4.799408435821533,2.536390781402588,6.965699672698975,-22.725915908813477,-148.99856567382812, -4.759207248687744
507,1574171063,0.9677792,0.035947125,-0.17137808,0.18095003,7.062315464019775,2.8445980548858643,10.327821731567383,-9.897074699401855,-134.4022216796875, -5.691379070281982
508,1574187730,0.96468,0.035171956,-0.1896099,0.17945951,7.184444904327393,-1.6183006763458252,9.3604736328125,-29.663562774658203,-123.86798095703125, -0.149343341588974
509,1574204397,0.96151227,0.035919048,-0.20661215,0.17753185,8.293350219726562,-2.543741464614868,6.27777624130249,-18.567873001098633,-117.73348999023438, -5.241659164428711
510,1574221064,0.9580351,0.037381675,-0.2223625,0.17699793,7.935150146484375,-0.004581817425787449,8.237874031066895,-10.2052583694458,-110.34062957763672, 3.0147387981414795
511,1574237731,0.9548197,0.035402738,-0.23614308,0.17693128,8.699164390563965,-2.1350250244140625,7.995787143707275,-29.8250732421875,-92.59913635253906, 10.53818130493164
512,1574254398,0.95186263,0.036794394,-0.24691653,0.17787093,8.665384292602539,-2.2038185596466064,7.855045795440674,-2.4303629398345947,-76.22798156738281, 10.611504554748535
513,1574271065,0.9491162,0.041443884,-0.25524017,0.17976499,9.070513725280762,-1.7052741050720215,9.162147521972656,23.492412567138672,-63.5210075378418, 10.43211555480957
514,1574287732,0.94661915,0.048511114,-0.26120704,0.18256983,9.05294132232666,-1.296043038368225,9.185555458068848,43.741912841796875,-50.383846282958984, 11.134244918823242
515,1574304399,0.94411474,0.058012333,-0.2653393,0.18675986,9.0497465133667,-0.6096765398979187,10.513705253601074,64.39875030517578,-41.00661087036133, 15.144911766052246
516,1574321066,0.94192696,0.06959411,-0.2666873,0.19186004,8.346940040588379,0.7544707655906677,10.923832893371582,83.03146362304688,-24.637094497680664, 15.713775634765625
517,1574337733,0.9413297,0.08932188,-0.25876918,0.19738464,10.071050643920898,1.2170621156692505,11.51037883758545,148.02708435058594,27.75661849975586, -3.044748306274414
518,1574354400,0.9390628,0.1101021,-0.25481224,0.20275941,4.702211856842041,1.2319812774658203,8.772361755371094,150.21499633789062,-2.3467965126037598, -1.2312618494033813
519,1574371067,0.9351962,0.12550563,-0.25719342,0.20859091,6.765146732330322,1.9415687322616577,7.9272871017456055,108.66631317138672,-38.25985336303711, 18.12969970703125
520,1574387734,0.9313378,0.13180742,-0.26401237,0.21339281,6.798511028289795,1.4604638814926147,9.009737014770508,41.93990707397461,-54.6048698425293, 31.40180778503418
521,1574404401,0.92712,0.13579905,-0.27347407,0.21730472,7.215648651123047,1.5519391298294067,8.18966007232666,21.987686157226562,-69.59754943847656, 32.8101921081543
522,1574421068,0.9229476,0.1396714,-0.28360173,0.219618,8.66137409210205,2.4976625442504883,12.041328430175781,17.184419631958008,-75.0631332397461, 23.38943099975586
523,1574437735,0.91924655,0.14274798,-0.2932547,0.2204827,7.691848278045654,2.7367591857910156,14.994041442871094,9.571833610534668,-71.33257293701172, 14.588981628417969
524,1574454402,0.9154734,0.1457265,-0.30314243,0.2208599,7.318565368652344,3.517627477645874,13.128020286560059,7.680836200714111,-73.35261535644531, 12.055212020874023
525,1574471069,0.91126245,0.1474934,-0.31448942,0.22123547,7.771600723266602,3.338388442993164,10.879561424255371,-1.74344801902771,-81.66319274902344, 16.71800422668457
526,1574487736,0.9064179,0.14957744,-0.3268349,0.22184257,7.8965301513671875,2.7167880535125732,10.703937530517578,-0.15041501820087433,-89.56319427490234, 19.479846954345703
527,1574504403,0.90101856,0.15323411,-0.33900636,0.22307359,7.528688907623291,3.069113254547119,11.963475227355957,11.881062507629395,-91.51070404052734, 20.517221450805664
528,1574521070,0.8956195,0.15776302,-0.3498083,0.22497304,7.482240200042725,2.8803176879882812,13.82548713684082,20.931055068969727,-83.71104431152344, 21.197410583496094
529,1574537737,0.8902371,0.16432743,-0.35865676,0.22768772,6.874196529388428,2.5135574340820312,14.616387367248535,38.428462982177734,-73.9849624633789, 19.193145751953125
530,1574554404,0.88513476,0.17169121,-0.36586785,0.23065424,7.093340873718262,3.097818613052368,13.518380165100098,46.19431686401367,-64.33956909179688, 16.486143112182617
531,1574571071,0.8806825,0.17783944,-0.37185133,0.23345232,6.983591079711914,2.735095262527466,11.898335456848145,39.548187255859375,-53.59280014038086, 16.054643630981445
532,1574587738,0.8764444,0.18404749,-0.37658834,0.23697051,6.763462543487549,2.1638097763061523,11.309640884399414,43.4907341003418,-44.78658676147461, 18.409420013427734
533,1574604405,0.87270683,0.18978967,-0.38004437,0.24068877,6.966680526733398,2.96836256980896,11.203288078308105,42.659507751464844,-34.83027648925781, 18.39125633239746
534,1574621072,0.869965,0.19296694,-0.3827515,0.24377905,7.052344799041748,3.077968120574951,11.059886932373047,25.568805694580078,-24.377187728881836, 18.719356536865234
535,1574637739,0.8679365,0.19422725,-0.38499755,0.24645644,7.250447750091553,3.0353293418884277,10.483457565307617,12.838678359985352,-17.14374542236328, 19.5067195892334
536,1574654406,0.8667304,0.19305901,-0.38713107,0.24827084,7.304293155670166,3.1558525562286377,9.867545127868652,-4.8463287353515625,-11.390193939208984, 19.264366149902344
537,1574671073,0.8660648,0.18936718,-0.38996303,0.24900383,7.557952880859375,2.4500069618225098,8.072763442993164,-24.683502197265625,-11.291722297668457, 19.56156349182129
538,1574687740,0.8652553,0.18657534,-0.39260113,0.24977912,8.263118743896484,2.411034107208252,6.611385345458984,-18.695018768310547,-12.034366607666016, 17.410058975219727
539,1574704407,0.86422145,0.18558651,-0.39460984,0.25092632,7.898559093475342,2.2062036991119385,7.787835597991943,-5.605781555175781,-11.515804290771484, 14.345619201660156
540,1574721074,0.8626021,0.18666242,-0.39649928,0.2527156,8.194364547729492,2.1532487869262695,7.736245632171631,9.353331565856934,-15.157711029052734, 13.426783561706543
541,1574737741,0.8608713,0.18836853,-0.39819974,0.2546703,9.25705623626709,2.9399335384368896,7.223178386688232,14.007543563842773,-15.23885726928711, 12.650041580200195
542,1574754408,0.85974884,0.18782546,-0.4000236,0.2560016,10.285337448120117,3.2648026943206787,6.87766170501709,-2.0307819843292236,-11.173847198486328, 14.227876663208008
543,1574771075,0.8593055,0.18545249,-0.40153044,0.25685996,9.954385757446289,2.513160228729248,6.707225322723389,-14.485170364379883,-4.808715343475342, 14.878484725952148
544,1574787742,0.85903245,0.18435828,-0.4020387,0.25776413,8.824341773986816,1.9466429948806763,6.017990589141846,-5.26806116104126,-0.6283438205718994, 10.05553150177002
545,1574804409,0.8594343,0.18311702,-0.40153363,0.25809658,8.576834678649902,2.542619228363037,6.112789154052734,-6.782692909240723,6.766922950744629, 4.611946105957031
546,1574821076,0.86062,0.18164216,-0.40009713,0.25741738,8.845580101013184,2.6080615520477295,6.51491641998291,-10.307138442993164,13.579465866088867, -3.2737679481506348
547,1574837743,0.86282784,0.17920086,-0.39783913,0.25522816,9.421677589416504,3.0888588428497314,7.096051216125488,-20.01464080810547,21.078279495239258, -12.370196342468262
548,1574854410,0.8662233,0.17568146,-0.39413455,0.2518998,9.419498443603516,2.2453389167785645,7.576141834259033,-28.4710636138916,33.396358489990234, -20.027883529663086
549,1574871077,0.87064546,0.17116761,-0.38885754,0.24793127,9.453216552734375,1.9516003131866455,7.174869060516357,-34.657508850097656,46.48807144165039, -24.81764793395996
550,1574887744,0.87613326,0.16571587,-0.38178,0.24325879,9.327252388000488,1.4537615776062012,6.771300315856934,-40.348228454589844,60.887229919433594, -30.456029891967773
551,1574904411,0.88220805,0.16108032,-0.37271488,0.23842774,9.322588920593262,1.0323872566223145,6.370100498199463,-33.200382232666016,72.86346435546875, -36.80484390258789
552,1574921078,0.8885462,0.1585525,-0.36167964,0.23353086,8.80663013458252,0.7207049131393433,6.139456748962402,-17.648775100708008,81.97565460205078, -45.22751998901367
553,1574937745,0.89523274,0.15705785,-0.34875256,0.22861554,8.320061683654785,0.8357009887695312,6.72525691986084,-8.727245330810547,92.7383804321289, -50.5469970703125
554,1574954412,0.90248054,0.15529068,-0.33383408,0.22354119,8.43261432647705,0.9301195740699768,7.154840469360352,-8.266071319580078,106.6082534790039, -53.921504974365234
555,1574971079,0.91002905,0.15353814,-0.31701922,0.21857245,8.497891426086426,0.5300900340080261,7.793388366699219,-5.3361687660217285,119.16926574707031, -55.797733306884766
556,1574987746,0.9174306,0.1522729,-0.29913673,0.21366698,8.167166709899902,0.7880480885505676,7.030049800872803,-0.3873538672924042,124.87448120117188, -57.3958625793457
557,1575004413,0.92490363,0.1493328,-0.28062433,0.20857859,6.872080326080322,-0.13844335079193115,7.049954414367676,-10.477105140686035,131.2847137451172, -55.88937759399414
558,1575021080,0.93223107,0.14518458,-0.26149213,0.20369245,6.468496799468994,-0.0020884014666080475,7.015655517578125,-16.715606689453125,136.8974609375, -52.721229553222656
559,1575037747,0.9393449,0.13939741,-0.24198474,0.1991109,5.839932918548584,-0.6583718061447144,7.093731880187988,-25.921180725097656,141.531005859375, -47.92067337036133
560,1575054414,0.9457343,0.13401662,-0.22249855,0.19524997,5.458182334899902,-0.13950949907302856,7.26309061050415,-21.40808868408203,140.3336944580078, -42.95174026489258
561,1575071081,0.9515591,0.12786682,-0.20325291,0.1920308,4.855571746826172,-0.45565593242645264,6.9723358154296875,-25.21137237548828,139.53977966308594, -36.640316009521484
562,1575087748,0.9567842,0.12123322,-0.18413982,0.18963361,4.491700172424316,0.05859806388616562,7.548474311828613,-26.85323715209961,139.20687866210938, -29.693653106689453
563,1575104415,0.96140736,0.11373049,-0.16531247,0.18824288,4.082777500152588,-0.3808920383453369,7.0301971435546875,-31.151506423950195,138.5447235107422, -20.964107513427734
564,1575121082,0.9654174,0.106173016,-0.14681827,0.18746546,4.150052070617676,0.5339992642402649,7.1921234130859375,-30.74380874633789,136.207763671875, -15.801547050476074
565,1575137749,0.96878093,0.0984227,-0.12905127,0.18741532,3.597658634185791,0.39390477538108826,8.183290481567383,-31.744632720947266,131.52267456054688, -9.420616149902344
566,1575154416,0.9715888,0.09032184,-0.11231843,0.18773396,3.1013271808624268,1.4072059392929077,8.762873649597168,-34.695377349853516,124.85060119628906, -5.242154121398926
567,1575171083,0.97404855,0.080867015,-0.096529,0.18808039,2.4964308738708496,1.3802340030670166,8.831892013549805,-44.71989822387695,120.04962921142578, -2.973498821258545
568,1575187750,0.97615236,0.071348704,-0.08163411,0.18807991,1.919991135597229,1.5447239875793457,8.263225555419922,-46.33616638183594,113.71167755126953, -4.298794746398926
569,1575204417,0.9778919,0.062490597,-0.067749925,0.18770811,1.6275359392166138,1.2980493307113647,7.399192810058594,-43.24732208251953,105.68663787841797, -6.18903112411499
570,1575221084,0.97925,0.05518662,-0.054600537,0.18720242,1.1591274738311768,0.8978109359741211,7.23420524597168,-33.65007781982422,98.5055923461914, -7.003561496734619
571,1575237751,0.9802672,0.04961611,-0.041979104,0.18669306,0.8226994276046753,0.7778557538986206,7.507092475891113,-22.53226661682129,92.58763122558594, -7.041337490081787
572,1575254418,0.9808999,0.047420103,-0.029726345,0.18629275,0.443600594997406,0.5464938282966614,6.96972131729126,-0.09935426712036133,85.69290924072266, -6.659360885620117
573,1575271085,0.9810988,0.05001943,-0.018084647,0.18606001,0.016587339341640472,0.10503528267145157,5.985118389129639,31.635526657104492,75.38886260986328, -5.761815547943115
574,1575287752,0.98089,0.05645985,-0.0069954814,0.18606497,-0.4867347180843353,0.15680637955665588,5.922576427459717,57.01613235473633,66.7703628540039, -3.925534725189209
575,1575304419,0.98037,0.0646482,0.003150431,0.18624577,-0.7551517486572266,0.6181166768074036,5.940295219421387,67.73416900634766,58.211612701416016, -2.066887617111206
576,1575321086,0.9797665,0.072001494,0.011850025,0.18637307,-1.0118178129196167,1.3034464120864868,6.48757266998291,60.29386520385742,49.493526458740234, -1.697953224182129
577,1575337753,0.9792286,0.07745928,0.018585112,0.18646084,-1.2205051183700562,1.3717846870422363,6.16741943359375,44.97382354736328,38.64506912231445, -1.2337149381637573
578,1575354420,0.9789693,0.07960785,0.022928657,0.18643434,-1.1286031007766724,1.7527363300323486,5.3286237716674805,19.489652633666992,26.670146942138672, -1.5107451677322388
579,1575371087,0.9788655,0.07982491,0.024603235,0.18667312,-1.4275192022323608,1.6611346006393433,4.09608793258667,2.9306254386901855,11.285760879516602, 1.2339884042739868
580,1575387754,0.97895044,0.07857692,0.02369613,0.18687414,-1.6674221754074097,2.1956191062927246,4.043363094329834,-10.351722717285156,-4.281240940093994, 1.9112651348114014
581,1575404421,0.9791212,0.07662331,0.02116094,0.18709472,-2.0218253135681152,2.400826930999756,5.852848052978516,-17.261301040649414,-14.358927726745605, 2.700230121612549
582,1575421088,0.97939444,0.07420431,0.017839575,0.18698578,-1.8520989418029785,2.831204891204834,7.34511137008667,-21.429401397705078,-19.268016815185547, 0.701668381690979
583,1575437755,0.9798113,0.070593,0.014391084,0.18649642,-1.6655770540237427,2.9017348289489746,8.3871431350708,-29.66901969909668,-18.827234268188477, -2.1209070682525635
584,1575454422,0.9804773,0.06230701,0.009552327,0.18625899,-1.5717612504959106,3.155620813369751,6.463160991668701,-63.10942459106445,-22.12339210510254, -0.5266309976577759
585,1575471089,0.9810755,0.050491463,-0.008302031,0.18674503,1.822655439376831,-0.02387148141860962,-19.192914962768555,-103.62378692626953,-105.056884765625, 9.791739463806152
586,1575487756,0.9816646,0.028118908,-0.041606203,0.18388619,18.590951919555664,-0.8713932037353516,-7.18218994140625,-194.92779541015625,-196.8933563232422, -6.785950183868408
587,1575504423,0.9802265,0.023342973,-0.07000832,0.18360573,2.4323790073394775,-6.547640323638916,12.48897933959961,-68.78417205810547,-185.86474609375, 7.208291530609131
588,1575521090,0.9783872,0.019245736,-0.09926996,0.18037389,5.157110214233398,-3.2706522941589355,2.3562369346618652,-66.56189727783203,-193.17648315429688, -12.36474323272705
589,1575537757,0.9758842,0.017386928,-0.12746708,0.17635481,-0.014377668499946594,2.1029019355773926,4.880990982055664,-50.58937072753906,-189.29100036621094, -18.501310348510742
590,1575554424,0.97298026,0.01708856,-0.15054117,0.17423,1.9834702014923096,0.39577630162239075,4.495063304901123,-32.22209548950195,-156.94215393066406, -7.265867233276367
591,1575571091,0.9699541,0.023361603,-0.1703718,0.1720987,5.158594608306885,2.221541166305542,8.43604564666748,15.630170822143555,-143.23634338378906, -14.339469909667969
592,1575587758,0.9670028,0.025827913,-0.18776897,0.17024255,6.933634281158447,2.177579402923584,10.762052536010742,-6.596542835235596,-122.34403991699219, -8.514408111572266
593,1575604425,0.9639818,0.023530664,-0.20430908,0.16865571,7.429112911224365,-1.1469576358795166,8.954758644104004,-36.92939376831055,-111.08226776123047, -0.6244806051254272
594,1575621092,0.960896,0.023231741,-0.21930516,0.16746894,8.641132354736328,-1.4290364980697632,6.428780555725098,-21.30712890625,-103.15357971191406, -0.9524582624435425
595,1575637759,0.9577664,0.022691263,-0.23301642,0.16695294,7.998295307159424,0.47672009468078613,8.842011451721191,-20.38910675048828,-94.28545379638672, 3.6854872703552246
596,1575654426,0.95476943,0.023101037,-0.24462108,0.167462,8.763609886169434,-2.157209634780884,6.5561017990112305,-10.09674072265625,-81.09549713134766, 8.440717697143555
597,1575671093,0.9519467,0.02698961,-0.25355354,0.16964948,9.058024406433105,-3.0824475288391113,8.17461109161377,18.6406307220459,-66.94666290283203, 12.979022979736328
598,1575687760,0.9493643,0.033188228,-0.26023823,0.1728681,10.072966575622559,-2.7642061710357666,9.701481819152832,38.16977310180664,-54.27556228637695, 14.98320484161377
599,1575704427,0.94701535,0.04063496,-0.26495388,0.17695148,9.864883422851562,-2.5535686016082764,9.89035415649414,50.17796325683594,-42.2505989074707, 17.63873291015625
600,1575721094,0.94463295,0.050816137,-0.26790422,0.1825241,9.77689266204834,-2.843385934829712,11.39680290222168,72.88713073730469,-33.69339370727539, 21.88125228881836
601,1575737761,0.9422765,0.06412024,-0.26910153,0.18865141,8.647915840148926,-0.24971483647823334,11.963252067565918,96.41564178466797,-25.96498680114746, 19.047517776489258
602,1575754428,0.939572,0.07788276,-0.27009335,0.19542181,8.682685852050781,-0.2107776254415512,11.120416641235352,101.00346374511719,-25.58586883544922, 22.698978424072266
603,1575771095,0.9365208,0.09058894,-0.27187195,0.20201272,7.827322483062744,1.1012837886810303,10.31097412109375,92.9880142211914,-29.98200035095215, 24.366823196411133
604,1575787762,0.9338639,0.10038205,-0.27379185,0.20702851,8.026589393615723,2.2472267150878906,12.191934585571289,70.83988952636719,-27.088178634643555, 19.18926429748535
605,1575804429,0.9322635,0.11045297,-0.2726434,0.21059862,6.845459461212158,3.0326852798461914,12.44426441192627,73.52825164794922,-6.801494121551514, 5.75411319732666
606,1575821096,0.9295507,0.11825158,-0.2757073,0.21433327,4.80291748046875,2.1800858974456787,9.897600173950195,54.000667572021484,-32.495262145996094, 15.87951374053955
607,1575837763,0.9259913,0.12024584,-0.2846586,0.21691386,6.544830799102783,3.6496572494506836,8.516782760620117,6.721391677856445,-64.13956451416016, 25.543855667114258
608,1575854430,0.92168844,0.11992843,-0.29683205,0.21908759,8.032958984375,1.4697096347808838,7.463237285614014,-13.008995056152344,-82.9994888305664, 31.264549255371094
609,1575871097,0.91676354,0.12392935,-0.30842477,0.22149849,8.042035102844238,1.390958309173584,11.14748764038086,16.22966766357422,-86.87987518310547, 24.419160842895508
610,1575887764,0.91164577,0.12970555,-0.3189021,0.22445774,6.862599849700928,2.3163321018218994,12.851922988891602,30.44576644897461,-82.50774383544922, 23.4509220123291
611,1575904431,0.90646696,0.1355273,-0.32902148,0.22736849,6.468910217285156,2.704402208328247,11.653159141540527,31.227771759033203,-80.55228424072266, 22.827877044677734
612,1575921098,0.90175354,0.13985433,-0.33856654,0.22946711,6.989415168762207,3.096888303756714,11.395601272583008,20.528467178344727,-74.37818145751953, 19.89594841003418
613,1575937765,0.89742106,0.14491922,-0.34655198,0.2313804,6.573868274688721,2.9230711460113525,12.781292915344238,26.755048751831055,-65.19898223876953, 14.944342613220215
614,1575954432,0.893579,0.15021603,-0.35296834,0.2331661,6.625097751617432,2.9292585849761963,13.914632797241211,29.88005256652832,-54.8973274230957, 11.274083137512207
615,1575971099,0.8903461,0.15637527,-0.35742846,0.23468411,6.113709449768066,3.4624316692352295,14.597776412963867,37.0299072265625,-43.12278747558594, 4.554777145385742
616,1575987766,0.8880243,0.1612986,-0.36050016,0.23544946,6.098563194274902,3.2363228797912598,13.477128028869629,28.86439323425293,-31.275836944580078, 0.04171694442629814
617,1576004433,0.8861616,0.16645996,-0.36194736,0.2366516,5.991524696350098,2.089848279953003,11.647574424743652,33.51576232910156,-20.186861038208008, -0.4066038131713867
618,1576021100,0.8842606,0.172836,-0.3622166,0.23877078,6.237362384796143,2.238703966140747,9.618000984191895,45.16080093383789,-14.085777282714844, 0.8797327280044556
619,1576037767,0.8826235,0.17822829,-0.3621558,0.24094537,6.382054328918457,2.936377763748169,9.101921081542969,39.543251037597656,-9.775093078613281, 2.848705768585205
620,1576054434,0.8813326,0.18152884,-0.3626665,0.24243443,6.281719207763672,3.16991925239563,8.404664039611816,23.765535354614258,-9.784777641296387, 4.038331985473633
621,1576071101,0.8806826,0.1826574,-0.3634887,0.2427174,6.2827019691467285,3.4304943084716797,8.263525009155273,6.265041828155518,-7.982943534851074, 1.4795373678207397
622,1576087768,0.8801918,0.18251272,-0.36498818,0.24235617,6.701717853546143,3.1326088905334473,7.198734283447266,-4.395756244659424,-10.39294719696045, 1.364920735359192
623,1576104435,0.8794628,0.1822472,-0.36688232,0.24234255,6.646390914916992,2.2719433307647705,7.397058486938477,-4.625323295593262,-12.752097129821777, 4.679347515106201
624,1576121102,0.878273,0.18328093,-0.3689024,0.24281098,7.303089618682861,2.8534932136535645,7.7621026039123535,4.8102946281433105,-16.24935531616211, 5.250372409820557
625,1576137769,0.8769981,0.18433651,-0.37094602,0.2435041,7.076653480529785,2.6901133060455322,8.518831253051758,5.570800304412842,-16.371835708618164, 6.73375940322876
626,1576154436,0.87542933,0.18631616,-0.37311476,0.24432845,7.391115665435791,2.6809041500091553,8.29049301147461,11.634073257446289,-19.27709197998047, 5.828111171722412
627,1576171103,0.8735612,0.18943088,-0.37524617,0.24535395,7.544416904449463,2.2635550498962402,7.9818806648254395,19.424762725830078,-21.484485626220703, 4.593914985656738
628,1576187770,0.8715601,0.1930691,-0.37737736,0.24636306,8.071795463562012,2.503507375717163,7.728453159332275,22.69662857055664,-22.743083953857422, 3.3731601238250732
629,1576204437,0.86974496,0.19625162,-0.37927055,0.24735375,9.663036346435547,3.167985439300537,7.51866340637207,20.07074737548828,-20.093782424926758, 3.8208041191101074
630,1576221104,0.86867124,0.19682862,-0.3810359,0.24795471,10.902763366699219,4.114124774932861,7.3313446044921875,2.6814022064208984,-13.485007286071777, 6.859655857086182
631,1576237771,0.86892307,0.19265187,-0.3829069,0.24747027,10.870943069458008,3.8708388805389404,7.281850814819336,-30.542837142944336,-3.9942898750305176, 10.729987144470215
632,1576254438,0.87006193,0.18665855,-0.38410637,0.24619985,10.2275390625,2.470144510269165,6.9446210861206055,-43.51439666748047,4.415961742401123, 8.42980670928955
633,1576271105,0.8714368,0.18306622,-0.38383564,0.24445093,8.964118003845215,2.133668899536133,6.92483377456665,-28.23343849182129,9.166576385498047, -3.0548102855682373
634,1576287772,0.8733984,0.18161981,-0.38168442,0.24188353,9.25644588470459,3.0658109188079834,7.5372748374938965,-15.121448516845703,17.347230911254883, -16.973726272583008
635,1576304439,0.87653804,0.1793215,-0.378018,0.23796761,9.573308944702148,2.715599298477173,8.36611557006836,-22.738609313964844,29.26888656616211, -26.678102493286133
636,1576321106,0.88064855,0.17707348,-0.3723118,0.23342682,9.525099754333496,1.736902117729187,8.429840087890625,-21.9261531829834,43.22765350341797, -34.670467376708984
637,1576337773,0.88574463,0.17476398,-0.36426702,0.22852741,9.078200340270996,1.3148746490478516,8.3802490234375,-20.668760299682617,59.56645584106445, -41.12282943725586
638,1576354440,0.8917209,0.17246181,-0.35381892,0.2233927,8.820108413696289,0.7851853370666504,7.670508861541748,-18.493118286132812,76.10755920410156, -46.85188293457031
639,1576371107,0.89829487,0.17041823,-0.3411517,0.21826798,8.862561225891113,0.8165943622589111,7.667699337005615,-14.179116249084473,90.78406524658203, -50.98387145996094
640,1576387774,0.90547013,0.16774969,-0.3267354,0.21267116,9.243178367614746,0.4986051023006439,7.317706108093262,-17.22267723083496,103.3874282836914, -55.40159225463867
641,1576404441,0.9128214,0.16564128,-0.31034836,0.20737703,8.736868858337402,-0.25792068243026733,8.002387046813965,-10.3711576461792,115.59759521484375, -57.32754898071289
642,1576421108,0.92012733,0.16416232,-0.29221505,0.20255367,7.793262481689453,-0.5231959819793701,8.077342987060547,-2.8567779064178467,126.1114273071289, -57.66230773925781
643,1576437775,0.92720026,0.16292211,-0.27269068,0.19848672,7.0790839195251465,-0.508515477180481,7.429028511047363,2.3930256366729736,134.9725341796875, -54.627845764160156
644,1576454442,0.93437195,0.15917589,-0.2525755,0.1944709,6.6038641929626465,-0.6182405948638916,7.0522356033325195,-12.775060653686523,142.41209411621094, -50.42551040649414
645,1576471109,0.941252,0.1539774,-0.23233692,0.1906734,6.355349063873291,-0.3972354531288147,7.233205795288086,-21.21937370300293,144.8931427001953, -46.26542663574219
646,1576487776,0.94756377,0.14804998,-0.21219622,0.18755834,5.605286121368408,-0.8212736248970032,7.095881462097168,-24.353919982910156,145.0443115234375, -39.85435104370117
647,1576504443,0.9533798,0.14100215,-0.19226602,0.18498746,5.160655975341797,0.054167844355106354,6.761674880981445,-30.605735778808594,144.95993041992188, -33.844993591308594
648,1576521110,0.95886385,0.13192636,-0.1723249,0.1829777,4.7423505783081055,0.14876192808151245,7.079447269439697,-42.80678939819336,147.732177734375, -27.08665657043457
649,1576537777,0.96363777,0.12283119,-0.15232131,0.18197359,4.13804292678833,0.057744793593883514,7.016762733459473,-41.00318145751953,148.25367736816406, -19.601316452026367
650,1576554444,0.96763307,0.1140834,-0.13258515,0.18191719,3.8818933963775635,0.32216018438339233,7.158519268035889,-37.37143325805664,146.043212890625, -12.496752738952637
651,1576571111,0.97077715,0.10646017,-0.1136694,0.18258859,3.150738477706909,0.29591065645217896,7.436820030212402,-29.569074630737305,138.98617553710938, -6.96881628036499
652,1576587778,0.973353,0.09860603,-0.09577318,0.18354651,2.8498213291168213,1.1899149417877197,8.188724517822266,-31.739742279052734,132.24215698242188, -3.4286117553710938
653,1576604445,0.9754292,0.09047224,-0.079028554,0.18468505,2.37996506690979,1.0720881223678589,7.948326587677002,-34.601531982421875,124.6876220703125, -0.6209397912025452
654,1576621112,0.97708464,0.082620025,-0.06335431,0.18565282,2.0653698444366455,1.439631700515747,7.956614017486572,-33.89796447753906,116.82213592529297, -0.7115322351455688
655,1576637779,0.9782845,0.07613468,-0.048970815,0.18645628,1.4635822772979736,0.9693738222122192,6.78245210647583,-26.17830467224121,106.11675262451172, -1.1064255237579346
656,1576654446,0.97913617,0.07103671,-0.035953846,0.18696126,0.9692549109458923,0.7798221111297607,5.945457935333252,-18.514572143554688,94.8759765625, -2.4141275882720947
657,1576671113,0.97965467,0.06757766,-0.023912068,0.18745527,0.3196428716182709,0.5888112783432007,6.445686340332031,-8.573386192321777,86.11698150634766, -1.987546682357788
658,1576687780,0.97977215,0.06760625,-0.0125454785,0.1879358,-0.13081443309783936,0.5010761618614197,6.3586931228637695,14.235249519348145,76.99591827392578, -1.8264809846878052
659,1576704447,0.9795717,0.07024325,-0.0021356142,0.18841864,-0.45095863938331604,0.754930853843689,5.91998815536499,30.722795486450195,67.1460952758789, -1.1768620014190674
660,1576721114,0.9791322,0.074360654,0.007036919,0.18900341,-0.8296009302139282,1.4067362546920776,5.850310325622559,39.20856475830078,56.9299201965332, 0.3912341892719269
661,1576737781,0.9786421,0.07877633,0.014583533,0.18932097,-0.8809821605682373,1.800010085105896,5.231774806976318,39.13697052001953,45.44961929321289, -0.49351170659065247
662,1576754448,0.9782055,0.08297797,0.020444896,0.18924072,-1.3111077547073364,2.047478437423706,4.75239896774292,35.50379943847656,34.155242919921875, -2.3508048057556152
663,1576771115,0.9778642,0.087499164,0.024258055,0.18851627,-1.5793790817260742,2.2428548336029053,4.2872395515441895,35.01081848144531,19.566734313964844, -5.595292568206787
664,1576787782,0.97772956,0.091338366,0.025424073,0.18723412,-1.6511214971542358,2.4010093212127686,4.078164577484131,26.947141647338867,2.264828681945801, -8.132811546325684
665,1576804449,0.97782946,0.09341046,0.024330929,0.1858305,-1.65143620967865,3.300711154937744,5.488640785217285,12.0162935256958,-10.783036231994629, -8.138738632202148
666,1576821116,0.9781281,0.09445064,0.021646127,0.18405652,-1.6315795183181763,3.1817665100097656,5.392270088195801,2.955589532852173,-20.454750061035156, -10.030502319335938
667,1576837783,0.9785703,0.09469401,0.017907217,0.18197103,-1.8613991737365723,3.437912702560425,7.325173377990723,-3.806480646133423,-26.776775360107422, -11.734953880310059
668,1576854450,0.9790978,0.09401118,0.013601374,0.17984757,-1.845173716545105,3.6037328243255615,8.31406307220459,-10.819245338439941,-29.48858070373535, -11.83845329284668
669,1576871117,0.97975546,0.09175531,0.009198237,0.17769761,-1.7670507431030273,3.3917622566223145,9.259756088256836,-21.63123893737793,-28.24845314025879, -12.255060195922852
670,1576887784,0.98058534,0.08636956,0.004527984,0.17599191,-1.630606770515442,3.7937347888946533,9.198629379272461,-43.194580078125,-25.975719451904297, -9.4978666305542
671,1576904451,0.98164403,0.071290314,-0.00649458,0.17677952,-0.45088616013526917,0.9707452654838562,-3.8783068656921387,-116.47477722167969,-55.62110137939453, 10.513936996459961
672,1576921118,0.98197407,0.054389376,-0.03755705,0.17708485,15.873207092285156,-3.7384185791015625,-22.7421817779541,-152.831298828125,-188.96676635742188, 18.060522079467773
673,1576937785,0.98100793,0.041757595,-0.06831947,0.17667142,3.319840908050537,-6.846301078796387,14.78007698059082,-123.3208999633789,-192.55332946777344, 13.557011604309082
674,1576954452,0.9794382,0.034461748,-0.09636739,0.17386006,7.352485179901123,-0.5743539929389954,2.6349809169769287,-84.8909683227539,-181.6741943359375, -5.1682233810424805
675,1576971119,0.97704554,0.024865363,-0.12672783,0.16942398,1.7043280601501465,-0.9591228365898132,2.4332470893859863,-104.02821350097656,-195.3648223876953, -13.049599647521973
676,1576987786,0.9741302,0.01852781,-0.15112592,0.16699912,1.48929762840271,1.6295158863067627,4.108088970184326,-73.32888793945312,-159.19448852539062, -2.7742321491241455
677,1577004453,0.97108865,0.0209642,-0.17141989,0.16481265,4.261346817016602,1.7894858121871948,7.026332378387451,-9.599983215332031,-141.8746795654297, -10.663549423217773
678,1577021120,0.96814495,0.024803255,-0.18889089,0.16248363,6.768614292144775,3.5977492332458496,9.74600887298584,2.7613492012023926,-124.5018539428711, -13.781163215637207
679,1577037787,0.9651237,0.021764886,-0.20539826,0.1608569,7.225067138671875,-0.10116998851299286,10.243998527526855,-41.05417251586914,-110.3569107055664, -0.23220321536064148
680,1577054454,0.96206254,0.02063081,-0.22047736,0.1593748,8.259127616882324,-2.0302817821502686,5.394623756408691,-26.628448486328125,-102.99381256103516, -2.127565622329712
681,1577071121,0.95907205,0.020915955,-0.2332995,0.15910666,8.304159164428711,-1.5650198459625244,6.7189836502075195,-12.9141263961792,-89.28722381591797, 3.355801582336426
682,1577087788,0.9563314,0.022405883,-0.24387856,0.15953712,8.892450332641602,-2.692762851715088,7.709748268127441,-1.418933629989624,-75.26897430419922, 5.425998687744141
683,1577104455,0.95372367,0.026054127,-0.25222665,0.16160028,9.573592185974121,-3.885314464569092,7.518909931182861,17.962646484375,-62.450618743896484, 12.042205810546875
684,1577121122,0.95141983,0.03237153,-0.25810578,0.16472518,9.450425148010254,-3.962923765182495,9.066425323486328,40.0308723449707,-48.4641227722168, 13.573283195495605
685,1577137789,0.9492797,0.040106453,-0.26201552,0.1691386,10.160381317138672,-3.5511510372161865,10.127799987792969,53.81998825073242,-36.57603073120117, 18.8341007232666
686,1577154456,0.94709486,0.050795168,-0.2640875,0.17518412,10.022109985351562,-2.8058571815490723,11.321802139282227,78.22710418701172,-27.615745544433594, 23.68610954284668
687,1577171123,0.9447445,0.06519112,-0.26449996,0.18234074,8.428373336791992,-1.002123236656189,12.288697242736816,106.46668243408203,-21.166513442993164, 23.767051696777344
688,1577187790,0.9417883,0.08007603,-0.26528186,0.19039059,9.327615737915039,0.5705645084381104,11.969335556030273,111.09796142578125,-24.881772994995117, 29.588287353515625
689,1577204457,0.93857193,0.09327449,-0.26690483,0.19785066,7.18831205368042,1.858101725578308,11.337848663330078,98.14383697509766,-28.912731170654297, 29.62346649169922
690,1577221124,0.93574774,0.103108756,-0.26920906,0.20315474,7.903841972351074,2.924440622329712,12.223362922668457,71.29095458984375,-29.403968811035156, 21.776464462280273
691,1577237791,0.9341537,0.1139613,-0.2684001,0.20574701,7.136323928833008,4.927475452423096,12.543722152709961,76.28194427490234,-10.451339721679688, -1.4861952066421509
692,1577254458,0.93141145,0.12025916,-0.27318612,0.2082797,5.764472484588623,3.5125410556793213,10.618229866027832,39.871952056884766,-42.12498474121094, 12.555903434753418
693,1577271125,0.9277497,0.11819396,-0.28545842,0.20934424,6.288783550262451,3.4448752403259277,6.047549724578857,-26.42251968383789,-81.04976654052734, 26.37944221496582
694,1577287792,0.923283,0.11572987,-0.3002881,0.20972069,8.416939735412598,1.9864037036895752,7.529330730438232,-33.367576599121094,-98.91417694091797, 26.02720832824707
695,1577304459,0.9180845,0.120085984,-0.31302747,0.21145813,8.00322437286377,0.1166321262717247,11.637164115905762,16.32673454284668,-95.8873062133789, 19.986557006835938
696,1577321126,0.91200244,0.13087766,-0.32355866,0.21548343,6.453930377960205,1.6276986598968506,13.706131935119629,65.82450866699219,-91.33443450927734, 20.024921417236328
