PacketCounter,SampleTimeFine,Quat_W,Quat_X,Quat_Y,Quat_Z,Acc_X,Acc_Y,Acc_Z,Gyr_X,Gyr_Y,Gyr_Z 
1,842756979,0.16038825,-0.04097779,0.17285953,-0.97093576,-0.14230436086654663,-0.1038200706243515,-0.0059924982488155365,-0.1546604186296463,0.1284693330526352, -0.28721529245376587
2,842773646,0.1602496,-0.0421688,0.16972163,-0.9714611,0.3581620752811432,-3.7406320571899414,9.132791519165039,28.196338653564453,3.8988983631134033, 0.4032410681247711
3,842790313,0.15958303,-0.042498935,0.16758032,-0.97192806,0.33238333463668823,-3.5200977325439453,8.798569679260254,33.98933410644531,5.6518940925598145, -0.9012249112129211
4,842806980,0.15845615,-0.042171873,0.1655578,-0.9724731,0.33520302176475525,-3.0893237590789795,8.63404369354248,32.31096649169922,5.9553914070129395, -2.2017271518707275
5,842823647,0.15730731,-0.041607328,0.16314472,-0.9730916,0.2902129888534546,-2.9974358081817627,9.143929481506348,25.271717071533203,4.8297529220581055, -1.3208115100860596
6,842840314,0.15638338,-0.04103306,0.16112518,-0.97360134,0.27956753969192505,-2.810532569885254,9.050445556640625,14.862350463867188,3.0401463508605957, -0.1767149418592453
7,842856981,0.15588355,-0.04053494,0.15911815,-0.9740322,0.2674744725227356,-2.8369038105010986,8.90772533416748,10.462618827819824,1.6825053691864014, 0.5739359855651855
8,842873648,0.15537728,-0.040082354,0.15696913,-0.9744804,0.3023260235786438,-3.025933265686035,9.15318489074707,10.952835083007812,0.5052299499511719, 0.7862654328346252
9,842890315,0.15495346,-0.039791934,0.1548537,-0.9748983,0.2642616331577301,-2.9561715126037598,9.269796371459961,11.625653266906738,-0.48641103506088257, 0.4772992730140686
10,842906982,0.15441509,-0.039622407,0.15267487,-0.97533417,0.3142241835594177,-2.947049379348755,9.236413955688477,12.217552185058594,-1.4372957944869995, -0.8662603497505188
11,842923649,0.15396678,-0.03959969,0.15091811,-0.9756792,0.36346831917762756,-2.8841497898101807,9.188150405883789,9.630345344543457,-1.703270673751831, -1.196894645690918
12,842940316,0.15334283,-0.039677497,0.1493953,-0.97600865,0.39050811529159546,-2.775327205657959,9.224015235900879,8.246363639831543,-1.9718071222305298, -1.6124608516693115
13,842956983,0.15288216,-0.039818645,0.14812942,-0.97626805,0.4040195941925049,-2.7441763877868652,9.031303405761719,6.355760097503662,-1.8456767797470093, -1.262155532836914
14,842973650,0.15261647,-0.039827038,0.1470448,-0.97647315,0.3929963707923889,-2.643878936767578,9.11050796508789,5.4550251960754395,-0.7494661211967468, 0.04423953965306282
15,842990317,0.1525558,-0.039783046,0.14635487,-0.97658813,0.33575037121772766,-2.6536896228790283,9.070124626159668,2.7136847972869873,-0.05655284598469734, 1.2698328495025635
16,843006984,0.15258743,-0.03964833,0.1456929,-0.9766877,0.31493163108825684,-2.796377658843994,9.152358055114746,2.6932332515716553,0.30406755208969116, 2.1558146476745605
17,843023651,0.15268022,-0.039459627,0.14505135,-0.9767764,0.3368237614631653,-2.814690113067627,9.06460952758789,2.9302916526794434,0.5458515286445618, 2.3928472995758057
18,843040318,0.15281864,-0.039145224,0.14449613,-0.97684956,0.372133731842041,-2.710944890975952,9.057616233825684,2.796375274658203,1.61879301071167, 2.037355899810791
19,843056985,0.15281497,-0.038806893,0.14410865,-0.976921,0.3881281614303589,-2.7209036350250244,9.112528800964355,1.794547438621521,2.0016133785247803, 1.4966846704483032
20,843073652,0.15282126,-0.038518403,0.14376609,-0.9769818,0.34263500571250916,-2.767712354660034,9.249044418334961,1.5253067016601562,1.9005069732666016, 0.9893481135368347
21,843090319,0.1527235,-0.038322195,0.14337441,-0.97706246,0.323134183883667,-2.8526062965393066,9.175248146057129,1.871052622795105,1.186309814453125, 0.5186507701873779
22,843106986,0.15255998,-0.038142983,0.14293976,-0.9771586,0.3112550675868988,-2.8719441890716553,9.076520919799805,2.3640201091766357,0.9878369569778442, 0.21223321557044983
23,843123653,0.15243402,-0.038011394,0.14257608,-0.9772364,0.34976133704185486,-2.8872737884521484,9.186189651489258,2.053363800048828,0.7143702507019043, 0.2402663379907608
24,843140320,0.1523706,-0.03796609,0.14231837,-0.9772857,0.383396178483963,-2.821694850921631,9.291258811950684,1.4110485315322876,0.1913204789161682, 0.5631400942802429
25,843156987,0.15232126,-0.0379377,0.14210081,-0.9773262,0.39849406480789185,-2.823000431060791,9.261794090270996,1.1850292682647705,0.09356960654258728, 0.7640973329544067
26,843173654,0.15237503,-0.037972048,0.14192244,-0.97734237,0.36128857731819153,-2.6831142902374268,9.170432090759277,0.90596604347229,-0.21474967896938324, 0.9295680522918701
27,843190321,0.15241686,-0.037995793,0.14166535,-0.9773723,0.26903900504112244,-2.7302968502044678,9.09732723236084,1.43871009349823,-0.2783716320991516, 1.02729332447052
28,843206988,0.15233882,-0.037944585,0.14136884,-0.97742933,0.2628280520439148,-2.7981984615325928,8.986665725708008,1.8181238174438477,0.13854549825191498, 0.5781234502792358
29,843223655,0.1522191,-0.03780832,0.14110331,-0.9774917,0.35041865706443787,-2.853966474533081,9.09363842010498,1.7743901014328003,0.8156684041023254, 0.07026203721761703
30,843240322,0.15209928,-0.03757517,0.14090705,-0.97754747,0.37811240553855896,-2.9342565536499023,9.176673889160156,1.4865163564682007,1.6211879253387451, -0.09226975589990616
31,843256989,0.15210924,-0.037342843,0.14074181,-0.97757864,0.4435056746006012,-2.89455509185791,9.092829704284668,1.36208975315094,1.836052656173706, -0.21071569621562958
32,843273656,0.15199764,-0.037048083,0.1406185,-0.9776251,0.3585328459739685,-2.717359781265259,9.05693244934082,1.2432851791381836,2.1904428005218506, -0.038508690893650055
33,843290323,0.15206066,-0.036770295,0.14047411,-0.9776465,0.3197421729564667,-2.669832468032837,9.08775806427002,1.3641643524169922,2.0643389225006104, 0.5221469402313232
34,843306990,0.15211548,-0.036532655,0.1403628,-0.97766286,0.3108592629432678,-2.553030490875244,9.277865409851074,1.0778144598007202,1.7043780088424683, 0.8257982730865479
35,843323657,0.15222791,-0.036358852,0.14029989,-0.97766083,0.35159409046173096,-2.5866997241973877,9.222867012023926,0.5925689935684204,1.2190427780151367, 1.2750449180603027
36,843340324,0.1524266,-0.03622296,0.14021921,-0.97764647,0.33923640847206116,-2.729806900024414,9.215102195739746,0.6155436038970947,0.941567599773407, 1.5583469867706299
37,843356991,0.1526124,-0.036097087,0.1400389,-0.97764796,0.3436613976955414,-2.7779147624969482,9.178994178771973,1.2921926975250244,0.765326738357544, 1.4816243648529053
38,843373658,0.15281112,-0.035934735,0.13984196,-0.9776512,0.31988880038261414,-2.7782399654388428,9.172996520996094,1.4762200117111206,0.9356255531311035, 1.7498149871826172
39,843390325,0.15306139,-0.03576124,0.13968372,-0.977641,0.31535854935646057,-2.773146152496338,9.073386192321777,1.2461795806884766,1.0431605577468872, 1.9522576332092285
40,843406992,0.15332593,-0.035538573,0.13958193,-0.9776222,0.312947541475296,-2.731417655944824,9.160401344299316,0.9435270428657532,1.4096014499664307, 2.120277166366577
41,843423659,0.15360652,-0.035309426,0.13959007,-0.9775852,0.32004231214523315,-2.784174680709839,9.216084480285645,0.20387068390846252,1.5502662658691406, 2.253718852996826
42,843440326,0.15390486,-0.03506462,0.13981482,-0.97751504,0.3170214593410492,-2.8231396675109863,9.16088581085205,-1.2476842403411865,1.8714109659194946, 2.4233388900756836
43,843456993,0.15417154,-0.034780763,0.14010926,-0.97744095,0.3208492696285248,-2.835486888885498,9.147705078125,-1.6604969501495361,2.2762839794158936, 2.129805088043213
44,843473660,0.15429994,-0.034471426,0.1402185,-0.977416,0.3099684417247772,-2.8336424827575684,9.095094680786133,-0.33623072504997253,2.2832508087158203, 1.5116552114486694
45,843490327,0.15455978,-0.034177255,0.14021398,-0.97738594,0.27342432737350464,-2.8012022972106934,9.012944221496582,0.43250247836112976,2.3388044834136963, 0.9902958273887634
46,843506994,0.15464774,-0.03388148,0.14015985,-0.97739005,0.26914945244789124,-2.757307291030884,9.171542167663574,0.8109813332557678,2.1292030811309814, 0.9113702774047852
47,843523661,0.15476754,-0.033670757,0.13990965,-0.97741425,0.32303446531295776,-2.87579607963562,9.276118278503418,2.0614442825317383,1.3597077131271362, 0.8278984427452087
48,843540328,0.15488257,-0.03355047,0.13952291,-0.97745556,0.37489238381385803,-2.825683832168579,9.33245849609375,2.9221725463867188,0.5724759101867676, 0.823454737663269
49,843556995,0.15506175,-0.03352108,0.13906348,-0.9774936,0.27746719121932983,-2.688910961151123,9.192819595336914,3.322831869125366,-0.061931513249874115, 0.8195744156837463
50,843573662,0.15524293,-0.033542342,0.13850825,-0.97754294,0.22221417725086212,-2.733933448791504,9.042112350463867,3.9077494144439697,-0.46552371978759766, 0.6018664836883545
51,843590329,0.15533298,-0.033519562,0.13788418,-0.9776177,0.2432960420846939,-2.7112245559692383,9.02982234954834,4.4403395652771,-0.3139476776123047, 0.4927051365375519
52,843606996,0.15544736,-0.033432607,0.13727209,-0.9776886,0.2563305199146271,-2.739729881286621,9.15380859375,4.4329118728637695,0.13424256443977356, 0.5924921631813049
53,843623663,0.15546109,-0.033276774,0.13671932,-0.9777692,0.313463419675827,-2.7637596130371094,9.243361473083496,4.106631278991699,0.6617233157157898, 0.2893018424510956
54,843640330,0.155497,-0.033007275,0.13620448,-0.97784436,0.32525280117988586,-2.8223681449890137,9.150484085083008,3.9709861278533936,1.5617022514343262, 0.16689874231815338
55,843656997,0.15551662,-0.032577377,0.13557522,-0.9779431,0.2830210328102112,-2.7720062732696533,9.048651695251465,4.94530725479126,2.6418159008026123, -0.1832973062992096
56,843673664,0.15548512,-0.031992283,0.1349096,-0.9780596,0.2313329428434372,-2.5713694095611572,8.9991455078125,5.384347438812256,3.647319793701172, -0.23590582609176636
57,843690331,0.15549405,-0.03134015,0.13428438,-0.97816515,0.244834765791893,-2.629265546798706,9.123411178588867,5.178151607513428,4.03745174407959, 0.3148377239704132
58,843706998,0.15553875,-0.03073195,0.13352492,-0.9782815,0.29229262471199036,-2.426705837249756,9.259679794311523,6.049228191375732,3.556215524673462, 0.500747561454773
59,843723665,0.15559998,-0.030250804,0.1329275,-0.9783681,0.42382651567459106,-2.4794585704803467,9.312939643859863,4.760190963745117,2.8995180130004883, 0.41657140851020813
60,843740332,0.15565616,-0.029777717,0.13265038,-0.97841114,0.3714365065097809,-2.6906211376190186,9.360737800598145,2.53192400932312,3.1864054203033447, 0.5737051963806152
61,843756999,0.15582535,-0.029392071,0.1324657,-0.9784209,0.2406737506389618,-2.7905972003936768,9.251720428466797,1.809133768081665,2.6930534839630127, 0.9931771755218506
62,843773666,0.15592946,-0.0290419,0.13242234,-0.9784206,0.20755092799663544,-2.6339645385742188,9.113028526306152,0.8258494734764099,2.606175422668457, 0.7609981298446655
63,843790333,0.15603767,-0.028638545,0.13254406,-0.97839886,0.13440412282943726,-2.728867530822754,9.095046997070312,-0.24107953906059265,3.1619579792022705, 0.7719987630844116
64,843807000,0.15615132,-0.02812455,0.13260989,-0.9783869,0.1339523196220398,-2.765981912612915,9.038232803344727,0.28397443890571594,3.818424940109253, 0.9285181164741516
65,843823667,0.15626052,-0.027457457,0.1327227,-0.97837293,0.20014025270938873,-2.570676565170288,8.899275779724121,0.15331122279167175,4.933486461639404, 0.8968350887298584
66,843840334,0.15640448,-0.026639344,0.13297538,-0.97833824,0.2103642076253891,-2.4991347789764404,9.031662940979004,-0.6321343183517456,6.052262783050537, 1.3604507446289062
67,843857001,0.15658203,-0.025757665,0.13329248,-0.9782903,0.17335307598114014,-2.597975492477417,9.147607803344727,-1.0098705291748047,6.461117744445801, 1.880375623703003
68,843873668,0.15680489,-0.024865305,0.13351929,-0.97824675,0.16956216096878052,-2.6891238689422607,9.181118965148926,-0.3812194764614105,6.445597171783447, 1.9949672222137451
69,843890335,0.15701859,-0.023922497,0.1336648,-0.97821623,0.22143495082855225,-2.637773275375366,9.191048622131348,0.23980535566806793,6.692094326019287, 2.0160465240478516
70,843907002,0.15728477,-0.023033261,0.13385482,-0.97816867,0.17461639642715454,-2.6059272289276123,9.277562141418457,-0.12232627719640732,6.341455459594727, 2.339829206466675
71,843923669,0.1575916,-0.022320017,0.13399315,-0.9781169,0.10779079794883728,-2.6155247688293457,9.263505935668945,0.033187657594680786,5.10273551940918, 2.3330676555633545
72,843940336,0.1578837,-0.02177585,0.13410293,-0.9780671,0.12956787645816803,-2.6480445861816406,9.315957069396973,0.03928348422050476,3.878986120223999, 2.32369327545166
73,843957003,0.15821242,-0.021402456,0.1341302,-0.97801846,0.06668888032436371,-2.6772260665893555,9.409189224243164,0.41482967138290405,2.6949617862701416, 2.1023991107940674
74,843973670,0.15849501,-0.021088665,0.13405743,-0.97798944,0.1260625123977661,-2.7739171981811523,9.2628755569458,1.0333765745162964,2.1795706748962402, 1.879376769065857
75,843990337,0.15878192,-0.020807343,0.13396801,-0.9779612,0.09177261590957642,-2.7616169452667236,9.200374603271484,1.125748634338379,1.9737210273742676, 1.7738009691238403
76,844007004,0.15906207,-0.020586506,0.13387832,-0.97793263,0.10053741186857224,-2.768260955810547,9.272479057312012,1.0756886005401611,1.6476585865020752, 1.414070725440979
77,844023671,0.15929309,-0.020417072,0.13381532,-0.9779072,0.09796547144651413,-2.7355477809906006,9.284202575683594,0.8484142422676086,1.3284729719161987, 1.2257918119430542
78,844040338,0.15950704,-0.020258533,0.1337707,-0.97788167,0.10487015545368195,-2.665868043899536,9.206367492675781,0.7195311188697815,1.324784755706787, 0.9990553259849548
79,844057005,0.15970679,-0.020024437,0.13369444,-0.97786427,0.07349560409784317,-2.6874401569366455,9.04091739654541,1.0247321128845215,1.82123601436615, 0.9470232129096985
80,844073672,0.15982339,-0.01970966,0.13361365,-0.9778627,0.09057562798261642,-2.65865159034729,9.126653671264648,1.1572778224945068,2.4034507274627686, 0.5747169852256775
81,844090339,0.15994331,-0.019363906,0.1333777,-0.9778823,0.0912884846329689,-2.652493476867676,9.196527481079102,2.259385824203491,2.4069149494171143, 0.7212663888931274
82,844107006,0.16007943,-0.019036518,0.13318144,-0.97789323,0.08736785501241684,-2.604832887649536,9.271563529968262,1.9709168672561646,2.3511884212493896, 0.7021017670631409
83,844123673,0.16020387,-0.018758273,0.1330279,-0.97789913,0.10680277645587921,-2.582993984222412,9.331507682800293,1.6200096607208252,2.0295310020446777, 0.7843825221061707
84,844140340,0.1603919,-0.018556397,0.13288474,-0.9778915,0.10339788347482681,-2.676743984222412,9.333598136901855,1.4577915668487549,1.525281310081482, 0.977963387966156
85,844157007,0.1605996,-0.018468894,0.13267344,-0.9778878,0.05409833416342735,-2.655367136001587,9.299324035644531,1.7995036840438843,0.6593285799026489, 1.0368597507476807
86,844173674,0.1607857,-0.018487722,0.13242188,-0.9778911,0.06152651458978653,-2.6562137603759766,9.239896774291992,1.9566758871078491,-0.16663622856140137, 1.1105090379714966
87,844190341,0.16102925,-0.018531458,0.1321238,-0.97789043,0.06784438341856003,-2.603001594543457,9.248502731323242,2.2528610229492188,-0.34418347477912903, 1.144049048423767
88,844207008,0.16129304,-0.018554607,0.13185774,-0.9778823,0.04809538647532463,-2.6384456157684326,9.163811683654785,2.056142807006836,-0.19953574240207672, 1.363242506980896
89,844223675,0.16160278,-0.01848646,0.13153197,-0.9778765,0.05731794983148575,-2.514781951904297,9.155651092529297,2.5729944705963135,0.31081652641296387, 1.7381483316421509
90,844240342,0.16191532,-0.018398687,0.13125226,-0.97786397,0.04026177152991295,-2.537856101989746,9.164229393005371,2.275310516357422,0.48610979318618774, 1.8159594535827637
91,844257009,0.16221766,-0.018327933,0.13103609,-0.9778442,0.06362029165029526,-2.6222951412200928,9.198417663574219,1.8197758197784424,0.43411603569984436, 1.8157930374145508
92,844273676,0.16253133,-0.018275516,0.13085897,-0.9778167,0.08894067257642746,-2.657148599624634,9.231982231140137,1.539124846458435,0.43085044622421265, 1.581680417060852
93,844290343,0.16275115,-0.018189609,0.1306837,-0.97780526,0.09075618535280228,-2.6580419540405273,9.279951095581055,1.5708844661712646,0.6420271396636963, 1.3674941062927246
94,844307010,0.163018,-0.018120714,0.13048933,-0.9777881,0.055794041603803635,-2.6652796268463135,9.166430473327637,1.6899834871292114,0.5269621014595032, 1.4619280099868774
95,844323677,0.16323894,-0.018051598,0.1303075,-0.9777766,0.04612863063812256,-2.593430280685425,9.168071746826172,1.6149383783340454,0.5678015947341919, 1.2251003980636597
96,844340344,0.16351788,-0.018003294,0.13021816,-0.9777428,0.07161669433116913,-2.5779669284820557,9.149789810180664,0.9636843204498291,0.5385646224021912, 1.4154411554336548
97,844357011,0.16378836,-0.017984092,0.13018845,-0.97770184,0.05499568209052086,-2.6156575679779053,9.315720558166504,0.5269749164581299,0.42994120717048645, 1.3193933963775635
98,844373678,0.16401155,-0.018009484,0.13024099,-0.977657,0.06152672693133354,-2.6172895431518555,9.273722648620605,-0.08416332304477692,0.1977236419916153, 1.2411723136901855
99,844390345,0.16422515,-0.018098017,0.13030589,-0.9776109,0.06775515526533127,-2.6792619228363037,9.21893310546875,-0.23507334291934967,-0.14968061447143555, 0.9399411678314209
100,844407012,0.16439031,-0.018186945,0.13035202,-0.97757536,0.09841722249984741,-2.676877021789551,9.193252563476562,-0.09709774702787399,-0.17649713158607483, 0.7964589595794678
101,844423679,0.16455558,-0.018187867,0.13035975,-0.97754645,0.07418578118085861,-2.617697238922119,9.177754402160645,0.2765979766845703,0.37625694274902344, 0.8790087103843689
102,844440346,0.16480415,-0.018183187,0.13039063,-0.9775006,0.07003844529390335,-2.5896034240722656,9.203181266784668,0.13283385336399078,0.5075604319572449, 0.9534263014793396
103,844457013,0.16501221,-0.018164217,0.13038282,-0.977467,0.051499128341674805,-2.5802690982818604,9.224614143371582,0.4145863652229309,0.48833808302879333, 1.1005200147628784
104,844473680,0.16523047,-0.018158669,0.1303844,-0.97742987,0.04958685487508774,-2.570565700531006,9.197953224182129,0.3355071544647217,0.36812493205070496, 1.2928330898284912
105,844490347,0.16544689,-0.01815763,0.13044074,-0.97738576,0.0633990690112114,-2.5269038677215576,9.227601051330566,-0.043528784066438675,0.35749563574790955, 1.4665640592575073
106,844507014,0.16572574,-0.018137222,0.13054898,-0.9773245,0.09651011228561401,-2.61956524848938,9.148622512817383,-0.3775952458381653,0.5583505034446716, 1.6893433332443237
107,844523681,0.16601712,-0.018078081,0.13068372,-0.97725815,0.06477849185466766,-2.607795238494873,9.152802467346191,-0.5071313977241516,0.8511291742324829, 1.7938429117202759
108,844540348,0.16632229,-0.018022293,0.1307791,-0.9771945,0.05850754678249359,-2.6623713970184326,9.288925170898438,-0.23713518679141998,0.7830505967140198, 1.8546476364135742
109,844557015,0.1665892,-0.017973179,0.1308186,-0.9771446,0.051287125796079636,-2.7220664024353027,9.223421096801758,0.14246423542499542,0.6530149579048157, 1.801245093345642
110,844573682,0.16687086,-0.017928464,0.1307761,-0.9771031,0.04922547936439514,-2.682377338409424,9.255094528198242,0.7118600606918335,0.5657780170440674, 1.7133549451828003
111,844590349,0.16715747,-0.017943872,0.13072066,-0.97706133,0.044999025762081146,-2.6327455043792725,9.224702835083008,0.7387535572052002,0.16435030102729797, 1.629512071609497
112,844607016,0.1674205,-0.018009448,0.13070016,-0.97701764,0.06556706875562668,-2.6500864028930664,9.207802772521973,0.4469095766544342,-0.1226079910993576, 1.488706111907959
113,844623683,0.16762319,-0.01807185,0.1306962,-0.97698236,0.07140964269638062,-2.637263059616089,9.227721214294434,0.3438057005405426,-0.08692950755357742, 1.3230177164077759
114,844640350,0.16791843,-0.018125026,0.13070135,-0.97692996,0.10560131818056107,-2.628199338912964,9.15857982635498,0.3014550507068634,0.08095534145832062, 1.3293439149856567
115,844657017,0.1681576,-0.018102614,0.13074453,-0.9768835,0.07595514506101608,-2.631486654281616,9.140671730041504,0.13497252762317657,0.6180792450904846, 1.2943570613861084
116,844673684,0.16836949,-0.018057846,0.13073233,-0.97684944,0.0510702021420002,-2.621764898300171,9.201781272888184,0.5450318455696106,0.6699193716049194, 1.3575948476791382
117,844690351,0.16862674,-0.018017264,0.13072139,-0.9768073,0.050742845982313156,-2.646573781967163,9.214101791381836,0.5359265208244324,0.6344842314720154, 1.5636234283447266
118,844707018,0.16887338,-0.018018646,0.13069865,-0.9767678,0.06969229876995087,-2.6505913734436035,9.209839820861816,0.5732570290565491,0.3355712294578552, 1.516931414604187
119,844723685,0.16906783,-0.01806892,0.13066284,-0.97673786,0.056637633591890335,-2.6699490547180176,9.331263542175293,0.6111894249916077,-0.012819156050682068, 1.329279899597168
120,844740352,0.16932078,-0.018173875,0.13060252,-0.9767002,0.06277310103178024,-2.6393492221832275,9.242451667785645,0.7233090400695801,-0.3148441016674042, 1.1544733047485352
121,844757019,0.16949457,-0.018263489,0.13054104,-0.97667664,0.060925912111997604,-2.65128493309021,9.163066864013672,0.7524690628051758,-0.2609933912754059, 1.0879954099655151
122,844773686,0.16969469,-0.018306147,0.1304501,-0.9766532,0.05592850595712662,-2.6071372032165527,9.109753608703613,1.0183032751083374,0.07578156143426895, 1.0299698114395142
123,844790353,0.16991301,-0.018292263,0.13039535,-0.97662294,0.06250794231891632,-2.588848829269409,9.143742561340332,0.8427154421806335,0.4770813584327698, 1.2460001707077026
124,844807020,0.17014827,-0.018238656,0.13039525,-0.976583,0.0856042429804802,-2.6280691623687744,9.23585033416748,0.5184459090232849,0.7729849219322205, 1.502152919769287
125,844823687,0.17035757,-0.018194966,0.13033287,-0.9765555,0.07492638379335403,-2.6396946907043457,9.249271392822266,0.9352796673774719,0.5889319777488708, 1.5804635286331177
126,844840354,0.170655,-0.01817606,0.130247,-0.9765155,0.03277735412120819,-2.6450486183166504,9.245698928833008,1.074254035949707,0.45935729146003723, 1.6477607488632202
127,844857021,0.1709118,-0.01819982,0.13014156,-0.9764842,0.05335483327507973,-2.649193525314331,9.222055435180664,1.1611196994781494,0.10687538981437683, 1.6363760232925415
128,844873688,0.17118026,-0.018254682,0.13000904,-0.97645366,0.056062210351228714,-2.6636769771575928,9.149458885192871,1.3176066875457764,-0.07355966418981552, 1.4382296800613403
129,844890355,0.17137243,-0.018292068,0.12985525,-0.9764397,0.09790641069412231,-2.5723984241485596,9.181791305541992,1.4926505088806152,0.030395865440368652, 1.1567912101745605
130,844907022,0.17158635,-0.018329779,0.12974544,-0.9764161,0.07817661017179489,-2.5651156902313232,9.209369659423828,1.1950693130493164,0.1053130254149437, 1.178011417388916
131,844923689,0.17183812,-0.018379148,0.12968318,-0.97637916,0.040374208241701126,-2.61040997505188,9.182342529296875,0.8585696816444397,0.10094603896141052, 1.2681294679641724
132,844940356,0.17209944,-0.018401545,0.12961803,-0.9763414,0.09681301563978195,-2.6653590202331543,9.180509567260742,0.9142389893531799,0.24193117022514343, 1.4755668640136719
133,844957023,0.17235301,-0.018393548,0.1295919,-0.97630024,0.10207449644804001,-2.6624162197113037,9.170023918151855,0.6897178888320923,0.4177238941192627, 1.790539026260376
134,844973690,0.17261268,-0.018412635,0.12960047,-0.9762529,0.03657429292798042,-2.6513917446136475,9.175728797912598,0.4276488125324249,0.23411928117275238, 1.9853618144989014
135,844990357,0.17287914,-0.018487385,0.1296058,-0.9762037,0.05389155074954033,-2.63430118560791,9.268692016601562,0.39230337738990784,-0.08687828481197357, 1.762173056602478
136,845007024,0.17310962,-0.018604044,0.12960741,-0.9761604,0.10119234025478363,-2.6321120262145996,9.309330940246582,0.37190282344818115,-0.3820646405220032, 1.6506425142288208
137,845023691,0.1733528,-0.018783174,0.12955819,-0.9761203,0.09452727437019348,-2.5939221382141113,9.252253532409668,0.6492882966995239,-0.8140355348587036, 1.4797672033309937
138,845040358,0.17356707,-0.018942786,0.12950799,-0.9760858,0.08828986436128616,-2.5847177505493164,9.150754928588867,0.6818037033081055,-0.6894299387931824, 1.4411946535110474
139,845057025,0.17377199,-0.019064361,0.12945966,-0.9760534,0.06006385385990143,-2.6128039360046387,9.1116304397583,0.7202610969543457,-0.3926042318344116, 1.3175877332687378
140,845073692,0.17397662,-0.019096268,0.12942174,-0.9760213,0.11778192967176437,-2.640446662902832,9.081707000732422,0.764737606048584,0.2538282573223114, 1.2942545413970947
141,845090359,0.17417434,-0.019036653,0.12943345,-0.9759857,0.09994698315858841,-2.656883716583252,9.139839172363281,0.5449293851852417,0.9160447120666504, 1.434151291847229
142,845107026,0.17436542,-0.018934928,0.12943853,-0.9759529,0.09196973592042923,-2.6768994331359863,9.189798355102539,0.6503896713256836,1.209514856338501, 1.401289939880371
143,845123693,0.17456783,-0.018837135,0.12945986,-0.97591573,0.05719020217657089,-2.667282819747925,9.210549354553223,0.5432645082473755,1.2009472846984863, 1.4713021516799927
144,845140360,0.17476797,-0.01873408,0.12946226,-0.97588164,0.05602326989173889,-2.681428909301758,9.206507682800293,0.6868877410888672,1.2243831157684326, 1.4393504858016968
145,845157027,0.17495956,-0.01863817,0.12943013,-0.9758533,0.10434020310640335,-2.6039726734161377,9.222269058227539,0.9224348664283752,1.148390293121338, 1.3622562885284424
146,845173694,0.17515315,-0.018588409,0.12942514,-0.9758202,0.1060301885008812,-2.542950391769409,9.25613784790039,0.6846339106559753,0.8780994415283203, 1.3374377489089966
147,845190361,0.1753659,-0.018607887,0.12940076,-0.9757849,0.0662558376789093,-2.6026389598846436,9.224069595336914,0.7309160232543945,0.3736828863620758, 1.4303604364395142
148,845207028,0.17568687,-0.018698454,0.12937133,-0.97572935,0.04848837852478027,-2.595371723175049,9.238698959350586,0.6839421987533569,-0.046435821801424026, 1.5318505764007568
149,845223695,0.1759492,-0.018816032,0.12934907,-0.9756828,0.039520516991615295,-2.710183620452881,9.23709487915039,0.6011365056037903,-0.31586867570877075, 1.679123878479004
150,845240362,0.1761713,-0.01895811,0.12929767,-0.97564673,0.07446686178445816,-2.7020785808563232,9.189781188964844,0.7787092924118042,-0.5289919376373291, 1.5727797746658325
151,845257029,0.17640933,-0.019028988,0.12928751,-0.9756037,0.08032725006341934,-2.637077569961548,9.158143997192383,0.5967311263084412,0.04514878988265991, 1.5449004173278809
152,845273696,0.17656344,-0.019015923,0.12929936,-0.97557443,0.071991465985775,-2.614655017852783,9.141058921813965,0.554572582244873,0.6070401668548584, 1.453207015991211
153,845290363,0.17676684,-0.01898551,0.12930173,-0.9755379,0.068058542907238,-2.6396565437316895,9.202657699584961,0.648776113986969,0.7963437438011169, 1.3423168659210205
154,845307030,0.17688975,-0.018987045,0.12928657,-0.9755176,0.07367223501205444,-2.622593402862549,9.232526779174805,0.734079122543335,0.5518320202827454, 1.0783010721206665
155,845323697,0.17701893,-0.019035254,0.12927063,-0.9754953,0.06710069626569748,-2.6216516494750977,9.283147811889648,0.6876177787780762,0.27476662397384644, 0.9384812116622925
156,845340364,0.17713101,-0.019134933,0.12922929,-0.9754784,0.06061454489827156,-2.7245616912841797,9.22916316986084,0.8008514642715454,-0.08375351876020432, 0.7791959047317505
157,845357031,0.17725582,-0.019209815,0.12912638,-0.97546804,0.09491923451423645,-2.7255020141601562,9.179605484008789,1.26406991481781,0.07033888250589371, 0.6125213503837585
158,845373698,0.17736632,-0.019229397,0.12906514,-0.97545564,0.07961051911115646,-2.6133458614349365,9.131017684936523,1.0574010610580444,0.4580383598804474, 0.7699881792068481
159,845390365,0.17752977,-0.01921901,0.1290665,-0.975426,0.05520528927445412,-2.5709218978881836,9.174452781677246,0.6705597043037415,0.6757975220680237, 1.2373430728912354
160,845407032,0.17771359,-0.019202566,0.12905928,-0.9753937,0.09066905081272125,-2.584520101547241,9.215642929077148,0.7361026406288147,0.6556274890899658, 1.513640284538269
161,845423699,0.17792824,-0.019184275,0.12901938,-0.9753602,0.10244482755661011,-2.5292015075683594,9.256054878234863,0.9634792804718018,0.6273894309997559, 1.6396160125732422
162,845440366,0.17816678,-0.01917548,0.12898503,-0.9753214,0.12180203199386597,-2.56929612159729,9.202202796936035,0.9122025966644287,0.5858328342437744, 1.6818386316299438
163,845457033,0.17840812,-0.019163296,0.12892929,-0.9752849,0.10442505031824112,-2.6107733249664307,9.229731559753418,1.063701868057251,0.582029402256012, 1.7190155982971191
164,845473700,0.17861857,-0.019153103,0.12886363,-0.97525525,0.08795814961194992,-2.6392838954925537,9.217302322387695,1.1310759782791138,0.535042941570282, 1.7107043266296387
165,845490367,0.17887378,-0.019169997,0.1288492,-0.97521013,0.04975283145904541,-2.632176637649536,9.19789981842041,0.7529173493385315,0.40759411454200745, 1.9078195095062256
166,845507034,0.17914389,-0.019197775,0.12883666,-0.9751617,0.05136417597532272,-2.6642284393310547,9.215348243713379,0.7310056686401367,0.32039567828178406, 2.0233840942382812
167,845523701,0.17939931,-0.019255312,0.1288165,-0.97511613,0.033206284046173096,-2.6024532318115234,9.177675247192383,0.7525714635848999,0.12538056075572968, 1.9027094841003418
168,845540368,0.17963624,-0.01934395,0.12880513,-0.9750723,0.03941620513796806,-2.5918359756469727,9.234273910522461,0.6582399606704712,-0.053940337151288986, 1.7506855726242065
169,845557035,0.17988868,-0.01944949,0.12879404,-0.97502506,0.03885994479060173,-2.637465476989746,9.202543258666992,0.6381723880767822,-0.12751279771327972, 1.6505653858184814
170,845573702,0.18008775,-0.01953321,0.12878644,-0.9749877,0.07505238056182861,-2.6409387588500977,9.183313369750977,0.6457409858703613,-0.03063279204070568, 1.6891896724700928
171,845590369,0.18024181,-0.019584384,0.12879366,-0.97495735,0.10114052146673203,-2.6873373985290527,9.16092300415039,0.5911475419998169,0.20550990104675293, 1.5779536962509155
172,845607036,0.18039179,-0.01960341,0.1287792,-0.9749311,0.0976734459400177,-2.711540937423706,9.152477264404297,0.7880451679229736,0.40886190533638, 1.5519951581954956
173,845623703,0.18049996,-0.019616565,0.12877744,-0.974911,0.12196402996778488,-2.6188149452209473,9.181634902954102,0.7180583477020264,0.4550672173500061, 1.4669225215911865
174,845640370,0.18066056,-0.019632796,0.12878676,-0.9748796,0.1463758647441864,-2.6010427474975586,9.28300666809082,0.6449726223945618,0.5172420740127563, 1.4163758754730225
175,845657037,0.18082012,-0.019655371,0.12879694,-0.97484833,0.12962839007377625,-2.593252182006836,9.23509407043457,0.6326528787612915,0.49223124980926514, 1.3766121864318848
176,845673704,0.18105301,-0.019694746,0.1288238,-0.9748007,0.039901599287986755,-2.631885528564453,9.174019813537598,0.49908268451690674,0.4080551564693451, 1.6215593814849854
177,845690371,0.18123873,-0.01975056,0.12886111,-0.9747602,-0.018460974097251892,-2.681588888168335,9.166742324829102,0.41084688901901245,0.2704765200614929, 1.59857177734375
178,845707038,0.18133119,-0.019803436,0.12887251,-0.9747404,-0.03427766636013985,-2.7571732997894287,9.209086418151855,0.5985624194145203,0.23650124669075012, 1.3379498720169067
179,845723705,0.1813383,-0.019847488,0.12882379,-0.9747446,0.059194982051849365,-2.716080665588379,9.180959701538086,1.0334019660949707,0.30885714292526245, 0.6885141730308533
180,845740372,0.1813424,-0.019876106,0.12875879,-0.9747519,0.1561279147863388,-2.5754120349884033,9.241287231445312,1.1750144958496094,0.4798602759838104, 0.36912381649017334
181,845757039,0.1813154,-0.019933881,0.12869853,-0.97476375,0.19392673671245575,-2.5001108646392822,9.254105567932129,1.1044514179229736,0.2378203123807907, 0.46286627650260925
182,845773706,0.18141598,-0.020002943,0.12870337,-0.97474295,0.16222596168518066,-2.5235729217529297,9.252204895019531,0.6399653553962708,0.20819923281669617, 1.0889942646026611
183,845790373,0.1815927,-0.020058725,0.12870888,-0.9747081,0.05321844667196274,-2.6093313694000244,9.23985767364502,0.6471752524375916,0.2221965491771698, 1.6829400062561035
184,845807040,0.18179202,-0.020115966,0.12873214,-0.9746667,-0.00018717351485975087,-2.677757501602173,9.1332426071167,0.5256558060646057,0.20950546860694885, 1.8667494058609009
185,845823707,0.18196198,-0.020121535,0.1287791,-0.9746287,0.02280641347169876,-2.6389076709747314,9.1361083984375,0.4372151792049408,0.5858200788497925, 1.8042672872543335
186,845840374,0.18213795,-0.020111268,0.1288297,-0.9745893,0.07370558381080627,-2.5707361698150635,9.175596237182617,0.4384317696094513,0.7416733503341675, 1.6705689430236816
187,845857041,0.18233515,-0.02012437,0.12887296,-0.97454655,0.11164432018995285,-2.5338470935821533,9.229019165039062,0.459536612033844,0.580595076084137, 1.716185212135315
188,845873708,0.1825668,-0.02015495,0.12889364,-0.97449976,0.12786830961704254,-2.5703530311584473,9.270426750183105,0.5880227088928223,0.4063134491443634, 1.9414616823196411
189,845890375,0.18281189,-0.02020551,0.12891743,-0.97444963,0.10965778678655624,-2.631646156311035,9.277213096618652,0.5384877920150757,0.19759558141231537, 2.285939931869507
190,845907042,0.18298925,-0.020301381,0.12897223,-0.974407,0.07962613552808762,-2.702347755432129,9.201662063598633,0.2712705135345459,-0.09991514682769775, 2.152395486831665
191,845923709,0.18320838,-0.020390613,0.12902904,-0.97435653,0.07777011394500732,-2.7251579761505127,9.153341293334961,0.27438247203826904,0.007357248570770025, 2.0946898460388184
192,845940376,0.18339211,-0.020436337,0.12908614,-0.97431344,0.05981171131134033,-2.6683335304260254,9.151992797851562,0.33778664469718933,0.3266579508781433, 1.910854458808899
193,845957043,0.18357792,-0.020463232,0.12911764,-0.9742736,0.07345282286405563,-2.6882269382476807,9.184654235839844,0.5431236624717712,0.4752756357192993, 1.7316553592681885
194,845973710,0.18365878,-0.020494435,0.12912029,-0.9742574,0.09188956767320633,-2.7006027698516846,9.236748695373535,0.740507960319519,0.37861335277557373, 1.4728389978408813
195,845990377,0.1836992,-0.02055886,0.12910482,-0.97425044,0.06600184738636017,-2.675607919692993,9.201544761657715,0.828551709651947,0.18076802790164948, 1.133598804473877
196,846007044,0.18365832,-0.020578451,0.12906973,-0.97426236,0.05899239704012871,-2.6258857250213623,9.149768829345703,1.026038408279419,0.4916037917137146, 0.7536985874176025
197,846023711,0.18361118,-0.020572012,0.12901653,-0.97427845,0.07620419561862946,-2.6160848140716553,9.208024024963379,1.1863994598388672,0.6811249852180481, 0.6153771877288818
198,846040378,0.18367185,-0.020606086,0.12896957,-0.97427255,0.07670129835605621,-2.6544158458709717,9.244887351989746,1.0944241285324097,0.49684157967567444, 0.6782307028770447
199,846057045,0.18373182,-0.020675605,0.12888399,-0.9742711,0.0894523337483406,-2.647355079650879,9.226799964904785,1.3147319555282593,0.19315177202224731, 0.7077877521514893
200,846073712,0.18370217,-0.020736627,0.12879097,-0.9742876,0.11339486390352249,-2.5872700214385986,9.21397590637207,1.3779568672180176,0.12636664509773254, 0.83040851354599
201,846090379,0.1836268,-0.02078924,0.1287161,-0.97431064,0.0828058198094368,-2.58766508102417,9.195940971374512,1.2639802694320679,0.10476234555244446, 1.0673900842666626
202,846107046,0.18367669,-0.020828858,0.12867108,-0.97430634,0.06865619868040085,-2.5777034759521484,9.17021656036377,1.0774173736572266,0.28712478280067444, 1.32657790184021
203,846123713,0.18366279,-0.020818343,0.12865871,-0.9743108,0.07678722590208054,-2.565258741378784,9.137411117553711,0.918567419052124,0.5627557635307312, 1.5321580171585083
204,846140380,0.18371461,-0.02079512,0.12868358,-0.9742983,0.10446570068597794,-2.552272081375122,9.200160026550293,0.6805486083030701,0.6882836222648621, 1.814256191253662
205,846157047,0.18384746,-0.020772723,0.12872155,-0.97426873,0.11634791642427444,-2.5565345287323,9.265266418457031,0.5888936519622803,0.7548382878303528, 1.9105730056762695
206,846173714,0.18404055,-0.020769069,0.12877601,-0.97422516,0.08446414023637772,-2.600996971130371,9.211495399475098,0.4496757984161377,0.6604810953140259, 2.086097002029419
207,846190381,0.18425861,-0.020794533,0.12885076,-0.9741734,0.0673496350646019,-2.6141605377197266,9.216950416564941,0.2749331295490265,0.48960599303245544, 2.1675708293914795
208,846207048,0.18446313,-0.02086308,0.12890689,-0.9741259,0.07223717123270035,-2.6703758239746094,9.216568946838379,0.34885138273239136,0.19735226035118103, 2.0068764686584473
209,846223715,0.18454476,-0.020920424,0.12894249,-0.97410446,0.06208210065960884,-2.7357752323150635,9.18719482421875,0.5071761608123779,0.1829194873571396, 1.8121562004089355
210,846240382,0.18465024,-0.020981897,0.12894437,-0.9740829,0.04605046287178993,-2.6985106468200684,9.166340827941895,0.7408921718597412,0.22634582221508026, 1.4676909446716309
211,846257049,0.18472101,-0.021013549,0.1289583,-0.974067,0.06440697610378265,-2.6485652923583984,9.171274185180664,0.7038562297821045,0.4575004279613495, 1.3126444816589355
212,846273716,0.18468533,-0.02100884,0.12895903,-0.9740737,0.08675220608711243,-2.6143670082092285,9.174517631530762,0.8445212244987488,0.6517471671104431, 1.0832443237304688
213,846290383,0.18465415,-0.021010071,0.12898515,-0.97407615,0.08425544947385788,-2.607837438583374,9.213645935058594,0.6653218865394592,0.6572667360305786, 1.0594757795333862
214,846307050,0.1846517,-0.021048848,0.12898698,-0.9740755,0.09354144334793091,-2.609606981277466,9.260144233703613,0.7835116982460022,0.41736534237861633, 0.9737371802330017
215,846323717,0.1845736,-0.0211037,0.12897646,-0.9740905,0.09605154395103455,-2.6625442504882812,9.250541687011719,0.8465957045555115,0.20667526125907898, 1.017688512802124
216,846340384,0.18448223,-0.021162001,0.12895074,-0.97411007,0.0847872793674469,-2.612981081008911,9.184419631958008,0.948470413684845,0.16292880475521088, 0.9769516587257385
217,846357051,0.18445839,-0.021197286,0.1289535,-0.97411335,0.08358646184206009,-2.5919620990753174,9.179445266723633,0.7848179340362549,0.3770253658294678, 1.1606972217559814
218,846373718,0.18449819,-0.021195173,0.12896438,-0.9741044,0.0870150551199913,-2.5829365253448486,9.173516273498535,0.7770700454711914,0.6333572864532471, 1.4458304643630981
219,846390385,0.18462539,-0.021178786,0.12901583,-0.9740738,0.08590833097696304,-2.554299831390381,9.199065208435059,0.5188043713569641,0.7923864722251892, 1.7375590801239014
220,846407052,0.18460943,-0.021137545,0.12908119,-0.9740692,0.08492284268140793,-2.5674850940704346,9.212441444396973,0.45347920060157776,0.8119032979011536, 1.865699291229248
221,846423719,0.18472987,-0.021131182,0.12913851,-0.9740389,0.08762151747941971,-2.6224417686462402,9.203125953674316,0.46170729398727417,0.7183465957641602, 1.7674425840377808
222,846440386,0.18473932,-0.02113447,0.12917611,-0.9740321,0.08072724938392639,-2.614908218383789,9.22102165222168,0.5852566361427307,0.5576204657554626, 1.6254782676696777
223,846457053,0.18477903,-0.021162704,0.12919149,-0.9740218,0.07397355139255524,-2.654287576675415,9.21153450012207,0.7058539390563965,0.4221036732196808, 1.4909600019454956
224,846473720,0.18474917,-0.021178711,0.12920411,-0.9740255,0.054184798151254654,-2.673919677734375,9.210502624511719,0.7426978349685669,0.4405960440635681, 1.476271152496338
225,846490387,0.18466294,-0.021186715,0.12922868,-0.9740385,0.07125694304704666,-2.627225160598755,9.232511520385742,0.6748114228248596,0.45402994751930237, 1.488450050354004
226,846507054,0.18473542,-0.021226682,0.12924299,-0.97402185,0.07832130044698715,-2.6704213619232178,9.184775352478027,0.7040483355522156,0.36106863617897034, 1.5333236455917358
227,846523721,0.18468875,-0.021229673,0.12925927,-0.9740286,0.10427246242761612,-2.6724801063537598,9.182610511779785,0.7425186038017273,0.5140534043312073, 1.498029351234436
228,846540388,0.18471374,-0.021209715,0.12927991,-0.9740215,0.06942038238048553,-2.5987706184387207,9.200855255126953,0.7453488111495972,0.7664152979850769, 1.4410921335220337
229,846557055,0.18466018,-0.021205364,0.12932497,-0.97402567,0.051063019782304764,-2.634258508682251,9.219600677490234,0.5587474703788757,0.6565879583358765, 1.2885684967041016
230,846573722,0.18471375,-0.021254353,0.1293383,-0.9740127,0.06373557448387146,-2.648193597793579,9.230047225952148,0.7074163556098938,0.37422075867652893, 1.1910096406936646
231,846590389,0.18454207,-0.021286964,0.12932195,-0.9740467,0.061400219798088074,-2.6213176250457764,9.223103523254395,0.9341655373573303,0.29243940114974976, 0.9600087404251099
232,846607056,0.18434976,-0.021290338,0.12930207,-0.97408575,0.08132234215736389,-2.593090295791626,9.198359489440918,0.995956301689148,0.41676345467567444, 1.154242753982544
233,846623723,0.18418004,-0.02126279,0.12929267,-0.97411966,0.09190253168344498,-2.6353116035461426,9.160563468933105,0.9624165892601013,0.5969744324684143, 1.415966272354126
234,846640390,0.18415707,-0.021239739,0.12928313,-0.97412586,0.0651031956076622,-2.618764638900757,9.195822715759277,0.9580621123313904,0.6874255537986755, 1.5017555952072144
235,846657057,0.18408649,-0.021229817,0.12927955,-0.9741398,0.05823865160346031,-2.6305835247039795,9.218106269836426,0.9018934965133667,0.553432822227478, 1.5153433084487915
236,846673724,0.18399085,-0.021213166,0.12926461,-0.97416025,0.0742870345711708,-2.6132419109344482,9.236661911010742,0.9891560077667236,0.5712208151817322, 1.4758741855621338
237,846690391,0.18398768,-0.021213453,0.12923971,-0.9741641,0.07671590894460678,-2.5861973762512207,9.217240333557129,1.0342726707458496,0.5285371541976929, 1.4853249788284302
238,846707058,0.1840065,-0.02122969,0.12921661,-0.97416323,0.08592890202999115,-2.6047379970550537,9.232510566711426,1.0014116764068604,0.4202083349227905, 1.5640969276428223
239,846723725,0.18395658,-0.021249846,0.12922263,-0.97417146,0.07965939491987228,-2.619469165802002,9.195259094238281,0.797547459602356,0.39494138956069946, 1.460314393043518
240,846740392,0.18386169,-0.02123185,0.1292218,-0.97418994,0.06528719514608383,-2.6492536067962646,9.219696998596191,0.893735945224762,0.5865883827209473, 1.5364993810653687
241,846757059,0.18384033,-0.02121449,0.12922342,-0.97419405,0.07819480448961258,-2.6498849391937256,9.20541763305664,0.8773181438446045,0.6769116520881653, 1.4638234376907349
242,846773726,0.18358143,-0.021181205,0.12925716,-0.9742391,0.0596720427274704,-2.6449012756347656,9.201240539550781,0.6811889410018921,0.5800700187683105, 1.5348857641220093
243,846790393,0.18344954,-0.021183211,0.12928514,-0.97426015,0.06793145835399628,-2.6441898345947266,9.206645011901855,0.6759383678436279,0.46269991993904114, 1.4917285442352295
244,846807060,0.18346828,-0.021202719,0.12929253,-0.9742552,0.07216432690620422,-2.6254584789276123,9.232677459716797,0.7949477434158325,0.5195728540420532, 1.2763383388519287
245,846823727,0.18328862,-0.021204824,0.1293038,-0.97428757,0.07534971833229065,-2.5994174480438232,9.184292793273926,0.7941281199455261,0.4571162760257721, 1.2544523477554321
246,846840394,0.18320587,-0.021200173,0.12932834,-0.9743,0.062129780650138855,-2.5858161449432373,9.221135139465332,0.711719274520874,0.6103571057319641, 1.2766457796096802
247,846857061,0.18310541,-0.021207053,0.12935139,-0.97431564,0.06609166413545609,-2.6288468837738037,9.238068580627441,0.7038305997848511,0.4887735843658447, 1.3593108654022217
248,846873728,0.18312836,-0.021254791,0.1293518,-0.97431016,0.08216553926467896,-2.643561363220215,9.21865463256836,0.8072931170463562,0.33804282546043396, 1.2012420892715454
249,846890395,0.18292129,-0.021238806,0.12936115,-0.9743482,0.08248049765825272,-2.6236534118652344,9.206621170043945,0.8303573131561279,0.5484639406204224, 1.276684284210205
250,846907062,0.18268086,-0.021184115,0.12937692,-0.97439253,0.08571932464838028,-2.6061389446258545,9.122387886047363,0.8377721905708313,0.790081262588501, 1.2875311374664307
251,846923729,0.18247926,-0.021079667,0.12943263,-0.97442514,0.046469271183013916,-2.5848886966705322,9.24052619934082,0.6267490983009338,1.1877824068069458, 1.4310005903244019
252,846940396,0.1823963,-0.021044562,0.12947163,-0.97443616,0.020275700837373734,-2.617917060852051,9.262824058532715,0.6495444774627686,0.7983798980712891, 1.4363921880722046
253,846957063,0.1821997,-0.021081977,0.1294914,-0.97446954,0.03947151452302933,-2.6182971000671387,9.269150733947754,0.6889239549636841,0.18546795845031738, 1.3299843072891235
254,846973730,0.18205218,-0.02114107,0.12948477,-0.9744967,0.0654507502913475,-2.59114670753479,9.202962875366211,0.8401797413825989,0.05977363511919975, 1.2868140935897827
255,846990397,0.18194337,-0.021203812,0.1294942,-0.9745144,0.05155966430902481,-2.6227917671203613,9.217217445373535,0.725345253944397,0.09080341458320618, 1.2932428121566772
256,847007064,0.18183096,-0.021253696,0.12947336,-0.9745371,0.05135655775666237,-2.616929054260254,9.22042465209961,0.9484447836875916,0.16055962443351746, 1.2057626247406006
257,847023731,0.18160732,-0.021304913,0.12949625,-0.97457457,0.09015609323978424,-2.597511053085327,9.192055702209473,0.6493523120880127,0.07208053767681122, 1.3049606084823608
258,847040398,0.18156005,-0.021344837,0.12954041,-0.97457665,0.07574321329593658,-2.576892137527466,9.200153350830078,0.5165760517120361,0.2893146574497223, 1.530083417892456
259,847057065,0.1813316,-0.021345036,0.12957399,-0.9746148,0.05023316666483879,-2.6252031326293945,9.229164123535156,0.639465868473053,0.3640781044960022, 1.5683103799819946
260,847073732,0.18112,-0.021370968,0.12959057,-0.97465134,0.08716963231563568,-2.657116651535034,9.218938827514648,0.7226558327674866,0.20877550542354584, 1.4570231437683105
261,847090399,0.18095133,-0.021373307,0.12960322,-0.9746809,0.10103897750377655,-2.6214520931243896,9.170424461364746,0.780425488948822,0.41411256790161133, 1.4406824111938477
262,847107066,0.18089935,-0.02135579,0.12963672,-0.9746865,0.06656832247972488,-2.5739827156066895,9.180822372436523,0.6627094149589539,0.709926426410675, 1.3850260972976685
263,847123733,0.18082687,-0.021359632,0.1296817,-0.97469383,0.038769323378801346,-2.5915279388427734,9.249998092651367,0.5573771595954895,0.5526516437530518, 1.3959498405456543
264,847140400,0.18066832,-0.021382766,0.12970471,-0.9747197,0.055828601121902466,-2.6359875202178955,9.255011558532715,0.6808303594589233,0.2792232632637024, 1.4867724180221558
265,847157067,0.18048815,-0.02143884,0.12967962,-0.9747552,0.03282582014799118,-2.612717390060425,9.287332534790039,0.9678078293800354,0.01140405423939228, 1.319636583328247
266,847173734,0.18048272,-0.021531252,0.12962905,-0.9747609,0.015150686725974083,-2.657501459121704,9.217022895812988,1.0936174392700195,-0.10215625911951065, 1.311684012413025
267,847190401,0.18040228,-0.021563254,0.12960929,-0.9747777,-0.02403225190937519,-2.6465423107147217,9.21096420288086,0.9620962142944336,0.25062665343284607, 1.4226765632629395
268,847207068,0.18018232,-0.021631256,0.1295968,-0.9748186,-0.027718931436538696,-2.555781126022339,9.167999267578125,0.8696728944778442,-0.07875905185937881, 1.236024260520935
269,847223735,0.18005483,-0.021690633,0.12961619,-0.97483826,0.007601981516927481,-2.6041929721832275,9.216790199279785,0.660378634929657,0.046058036386966705, 1.4618512392044067
270,847240402,0.18000677,-0.021642877,0.12962615,-0.9748468,-0.0006505741621367633,-2.6083381175994873,9.155021667480469,0.8586080074310303,0.8268866539001465, 1.553966999053955
271,847257069,0.17979793,-0.021438073,0.12960431,-0.97489285,0.0443197526037693,-2.575545072555542,9.13412857055664,1.2735978364944458,1.7594325542449951, 1.3962955474853516
272,847273736,0.1794972,-0.02111862,0.12955458,-0.97496176,0.13795243203639984,-2.4972739219665527,9.076543807983398,1.6072802543640137,2.4555344581604004, 1.2939344644546509
273,847290403,0.17927845,-0.02067852,0.12960455,-0.9750049,0.22723250091075897,-2.5369105339050293,9.132464408874512,1.0741517543792725,3.468414068222046, 1.4307702779769897
274,847307070,0.17900684,-0.020120692,0.12965839,-0.9750593,0.1721619814634323,-2.600834846496582,9.143606185913086,1.1894220113754272,4.180281162261963, 1.673105001449585
275,847323737,0.1787254,-0.019483479,0.12968916,-0.9751197,0.07930964976549149,-2.7524044513702393,9.164286613464355,1.4416173696517944,4.626031875610352, 1.9371718168258667
276,847340404,0.17872374,-0.018872675,0.12964115,-0.9751386,0.015060294419527054,-2.7434849739074707,9.203132629394531,1.9480702877044678,4.596577167510986, 2.0144710540771484
277,847357071,0.17857848,-0.018301299,0.12963702,-0.9751766,-0.024022355675697327,-2.6669604778289795,9.208218574523926,1.6029390096664429,4.254621982574463, 1.949824571609497
278,847373738,0.1783653,-0.017792504,0.12966014,-0.9752218,-0.06848731637001038,-2.597456216812134,9.2405366897583,1.3402421474456787,3.8342790603637695, 1.7743903398513794
279,847390405,0.17817713,-0.017367583,0.12966794,-0.9752628,0.0006821812130510807,-2.5017662048339844,9.332681655883789,1.338897466659546,3.311600685119629, 1.564058780670166
280,847407072,0.17801169,-0.017050171,0.12969956,-0.97529435,0.03274191543459892,-2.4261717796325684,9.370565414428711,1.0368726253509521,2.6228749752044678, 1.54525887966156
281,847423739,0.1778,-0.016848488,0.12972632,-0.975333,-0.015020995400846004,-2.492208242416382,9.320133209228516,0.9153274297714233,1.7723541259765625, 1.5342199802398682
282,847440406,0.17769836,-0.016781747,0.12972973,-0.9753522,-0.028490673750638962,-2.5949013233184814,9.256606101989746,0.9020984172821045,0.9239716529846191, 1.4948402643203735
283,847457073,0.17757581,-0.016760247,0.12971441,-0.97537684,0.003902832744643092,-2.6950087547302246,9.223668098449707,0.9727382659912109,0.5609501600265503, 1.5059306621551514
284,847473740,0.17743951,-0.01679323,0.12974028,-0.97539777,-0.02337769605219364,-2.6918275356292725,9.2936372756958,0.6278377175331116,0.2256927192211151, 1.4934958219528198
285,847490407,0.17733529,-0.016860543,0.12973683,-0.97541606,-0.01335156336426735,-2.6771838665008545,9.181619644165039,0.7885445952415466,-0.008964444510638714, 1.4565237760543823
286,847507074,0.17710367,-0.016907522,0.12974226,-0.9754566,0.044940173625946045,-2.626088857650757,9.155816078186035,0.7538009881973267,0.035441573709249496, 1.397345781326294
287,847523741,0.17692146,-0.016919026,0.12977225,-0.9754854,0.0144168296828866,-2.5208048820495605,9.226317405700684,0.6333316564559937,0.3759240210056305, 1.347733974456787
288,847540408,0.1767566,-0.016936662,0.1298253,-0.97550786,-0.007385676261037588,-2.5396296977996826,9.258492469787598,0.46545323729515076,0.34015586972236633, 1.4944432973861694
289,847557075,0.1765526,-0.016917504,0.12986358,-0.9755401,-0.03904663026332855,-2.5492734909057617,9.19228744506836,0.607936680316925,0.535683274269104, 1.5017558336257935
290,847573742,0.17635849,-0.016901528,0.12990646,-0.97556984,-0.06398460268974304,-2.5635290145874023,9.20168399810791,0.5719891786575317,0.562602162361145, 1.3742685317993164
291,847590409,0.17608406,-0.016874889,0.12993014,-0.9756167,-0.04341719672083855,-2.6324338912963867,9.20371150970459,0.7119370698928833,0.5026684999465942, 1.482123851776123
292,847607076,0.17591879,-0.016858218,0.1299582,-0.97564304,0.007505984045565128,-2.62931489944458,9.24706745147705,0.6717635989189148,0.5266803503036499, 1.5467318296432495
293,847623743,0.175619,-0.016817855,0.12997752,-0.97569513,0.0013767718337476254,-2.621307373046875,9.223214149475098,0.7597047686576843,0.5680448412895203, 1.476130485534668
294,847640410,0.17540719,-0.01678235,0.12998822,-0.97573245,-0.0387859009206295,-2.5633113384246826,9.18483829498291,0.8147463798522949,0.6249690651893616, 1.4177846908569336
295,847657077,0.1752778,-0.016766371,0.13001044,-0.975753,-0.02651846781373024,-2.5755882263183594,9.20051383972168,0.7132176160812378,0.6210887432098389, 1.2814737558364868
296,847673744,0.17514434,-0.01674378,0.13001938,-0.9757762,-0.00908262562006712,-2.548485279083252,9.1680326461792,0.8097519874572754,0.6140581369400024, 1.397179365158081
297,847690411,0.17499155,-0.016651653,0.13005492,-0.9758004,-0.04203623905777931,-2.5719377994537354,9.172327041625977,0.7108228206634521,1.072281837463379, 1.535833477973938
298,847707078,0.17482021,-0.016535677,0.1301142,-0.97582525,-0.04751294106245041,-2.6196248531341553,9.270126342773438,0.576560914516449,1.253619909286499, 1.518775224685669
299,847723745,0.17466787,-0.01645881,0.13014004,-0.97585034,-0.051108404994010925,-2.6103928089141846,9.256983757019043,0.7573098540306091,0.9641708731651306, 1.4913057088851929
300,847740412,0.17449816,-0.016379371,0.13012885,-0.9758836,-0.036710016429424286,-2.638946294784546,9.17258071899414,1.0139875411987305,0.9760550856590271, 1.2784515619277954
301,847757079,0.17434123,-0.016187338,0.13009626,-0.9759192,-0.0324232243001461,-2.5795629024505615,9.098518371582031,1.298327088356018,1.7254828214645386, 1.3455439805984497
302,847773746,0.17421007,-0.015958518,0.13014266,-0.97594017,-0.05896969512104988,-2.52738618850708,9.265274047851562,0.8026828169822693,2.045423984527588, 1.5557090044021606
303,847790413,0.17401509,-0.015759634,0.13025182,-0.97596365,-0.04050310701131821,-2.586984395980835,9.2183256149292,0.3327794075012207,1.8556721210479736, 1.5461171865463257
304,847807080,0.17383137,-0.0155390715,0.13033165,-0.9759892,0.0025694293435662985,-2.5772955417633057,9.227897644042969,0.5572106838226318,1.9541015625, 1.6420621871948242
305,847823747,0.17364965,-0.015292694,0.13035583,-0.9760222,-0.03536266088485718,-2.5848093032836914,9.1704740524292,0.9665527939796448,2.0595617294311523, 1.6674442291259766
306,847840414,0.1735606,-0.015025633,0.13037752,-0.97603935,-0.07851307839155197,-2.6314051151275635,9.140734672546387,1.010260820388794,2.3024086952209473, 1.625080943107605
307,847857081,0.17328458,-0.014720087,0.13042587,-0.97608656,-0.06233762204647064,-2.6107723712921143,9.199941635131836,0.8723621368408203,2.4594147205352783, 1.4742093086242676
308,847873748,0.17304711,-0.014411964,0.13050784,-0.97612226,-0.07437878847122192,-2.5633981227874756,9.193675994873047,0.6462276577949524,2.5564870834350586, 1.4761688709259033
309,847890415,0.17289376,-0.014119567,0.13064392,-0.97613555,-0.03884580358862877,-2.526854991912842,9.261863708496094,0.25530099868774414,2.536252975463867, 1.6932237148284912
310,847907082,0.17270297,-0.01390607,0.13071616,-0.97616273,-0.07367265969514847,-2.5699563026428223,9.312785148620605,0.5897259712219238,1.8554160594940186, 1.7516587972640991
311,847923749,0.17256959,-0.013817838,0.13080028,-0.9761763,-0.08008347451686859,-2.604426383972168,9.366653442382812,0.35526737570762634,1.0381916761398315, 1.811554193496704
312,847940416,0.17262147,-0.01390084,0.13086164,-0.9761578,-0.12804044783115387,-2.6547763347625732,9.267788887023926,0.31027865409851074,0.03804126754403114, 1.6750643253326416
313,847957083,0.17253529,-0.014021891,0.13088338,-0.9761684,-0.062034692615270615,-2.6548612117767334,9.228754043579102,0.5376041531562805,-0.29031994938850403, 1.2236915826797485
314,847973750,0.17242739,-0.014132595,0.13088907,-0.976185,-0.09303651005029678,-2.5520663261413574,9.179571151733398,0.6598535776138306,-0.26689714193344116, 1.2482796907424927
315,847990417,0.17232165,-0.014266234,0.13095964,-0.9761922,-0.060184966772794724,-2.5469393730163574,9.180438995361328,0.18631315231323242,-0.37549495697021484, 1.3576074838638306
316,848007084,0.17216845,-0.014432653,0.13101347,-0.9762096,-0.0760408341884613,-2.5811831951141357,9.215015411376953,0.2567865550518036,-0.6980869770050049, 1.4542956352233887
317,848023751,0.17216845,-0.014723907,0.13105845,-0.97619927,-0.05129782482981682,-2.590242385864258,9.272688865661621,0.1691654920578003,-1.4594756364822388, 1.5732793807983398
318,848040418,0.17215389,-0.01517441,0.13115287,-0.9761824,-0.07360373437404633,-2.5427920818328857,9.387900352478027,-0.362342894077301,-2.5318541526794434, 1.6129406690597534
319,848057085,0.17213957,-0.015937096,0.13136522,-0.97614413,-0.08842603117227554,-2.5616278648376465,9.408987045288086,-1.5482364892959595,-4.561506748199463, 1.6248120069503784
320,848073752,0.17205067,-0.017126342,0.13174176,-0.97608876,-0.06111446022987366,-2.479301691055298,9.714290618896484,-3.186969757080078,-7.379244327545166, 1.5405529737472534
321,848090419,0.17218164,-0.018639518,0.1319888,-0.97600466,-0.07759082317352295,-2.8671417236328125,9.796642303466797,-2.698132276535034,-9.674060821533203, 1.8792747259140015
322,848107086,0.17208607,-0.019796152,0.13162667,-0.9760477,0.11945110559463501,-2.8005783557891846,8.90562915802002,1.898573637008667,-8.040570259094238, 1.3809921741485596
323,848123753,0.17198695,-0.020143908,0.1312745,-0.97610545,0.05425859987735748,-2.394007921218872,8.201622009277344,2.8132410049438477,-2.4746222496032715, 1.6463649272918701
324,848140420,0.17172891,-0.019590916,0.13130224,-0.97615844,-0.04007658734917641,-2.526120185852051,8.275248527526855,1.3016951084136963,3.9838833808898926, 2.1007473468780518
325,848157087,0.17153668,-0.018273642,0.13209751,-0.97611046,0.04079426825046539,-2.6179068088531494,8.791851997375488,-3.028459310531616,10.016318321228027, 3.186278820037842
326,848173754,0.17157471,-0.016272562,0.13440137,-0.9758247,-0.01795327290892601,-2.542819023132324,9.105759620666504,-12.5333890914917,16.270959854125977, 5.362673759460449
327,848190421,0.17182814,-0.014183696,0.13669612,-0.9754939,-0.10905054956674576,-2.58549427986145,9.414100646972656,-12.391124725341797,16.744680404663086, 6.571390628814697
328,848207088,0.17225027,-0.012398162,0.13904925,-0.97511107,-0.15809625387191772,-2.5089902877807617,9.35940170288086,-13.178498268127441,14.679861068725586, 7.2425856590271
329,848223755,0.17261265,-0.011369282,0.1407762,-0.9748118,-0.22038966417312622,-2.6788504123687744,9.435263633728027,-9.807377815246582,8.982425689697266, 5.769040584564209
330,848240422,0.17276329,-0.011231665,0.14168371,-0.9746551,-0.07878086715936661,-2.880263090133667,9.789112091064453,-5.272119045257568,2.057692527770996, 3.8989131450653076
331,848257089,0.17290585,-0.012264181,0.14206737,-0.9745616,0.07934392243623734,-2.949517250061035,9.999815940856934,-3.081963539123535,-6.261190891265869, 2.147932291030884
332,848273756,0.17328323,-0.014385393,0.1445606,-0.9740987,0.5533440709114075,-2.923283100128174,11.102649688720703,-18.863298416137695,-11.451892852783203, 3.7683708667755127
333,848290423,0.17405358,-0.0182384,0.14969338,-0.9731211,0.08690866827964783,-3.006559371948242,10.463907241821289,-39.09501647949219,-20.53605079650879, 6.188475131988525
334,848307090,0.17452118,-0.025049303,0.15311953,-0.97235256,0.2572719156742096,-3.109517812728882,10.398561477661133,-31.03623390197754,-42.2998046875, 1.434433937072754
335,848323757,0.1746433,-0.034335952,0.15421747,-0.97187334,0.9180222153663635,-3.7060129642486572,10.849059104919434,-18.161855697631836,-61.354942321777344, -3.904661178588867
336,848340424,0.17426959,-0.04483981,0.15258639,-0.9717701,1.2436118125915527,-4.185157299041748,9.685123443603516,-0.9981456995010376,-72.69100952148438, -7.954583644866943
337,848357091,0.17337914,-0.05579701,0.14793809,-0.97208065,1.9632594585418701,-3.6784019470214844,8.378067016601562,19.047481536865234,-78.787109375, -12.84858226776123
338,848373758,0.17232706,-0.067800574,0.1418376,-0.9724138,2.582582950592041,-3.080374240875244,9.10240650177002,27.6563663482666,-87.42623138427734, -15.081063270568848
339,848390425,0.17146954,-0.081384584,0.13551348,-0.9724253,2.967181921005249,-3.224557399749756,9.842208862304688,27.166210174560547,-98.36295318603516, -15.488336563110352
340,848407092,0.1713164,-0.09628261,0.12959035,-0.97189856,3.4202589988708496,-3.316380739212036,10.128798484802246,22.57156753540039,-106.62329864501953, -14.091309547424316
341,848423759,0.17123674,-0.111825734,0.12457856,-0.9709034,3.4301910400390625,-3.054766893386841,10.798306465148926,15.139747619628906,-109.68003845214844, -14.615209579467773
342,848440426,0.17101376,-0.12707044,0.11951014,-0.96970356,2.502011775970459,-3.997626543045044,8.347722053527832,15.5174560546875,-107.64795684814453, -15.455065727233887
343,848457093,0.1706763,-0.14111349,0.11283858,-0.96861964,2.465907096862793,-3.270030975341797,6.677079677581787,27.65125846862793,-101.30875396728516, -16.78218650817871
344,848473760,0.1701869,-0.15461588,0.107298635,-0.96727324,3.621415615081787,-1.9852114915847778,7.082042694091797,20.42819595336914,-96.49757385253906, -15.985036849975586
345,848490427,0.16978094,-0.16840199,0.10326474,-0.96548015,5.162612438201904,-1.8374587297439575,8.502093315124512,9.83380126953125,-97.11917877197266, -13.515132904052734
346,848507094,0.1700233,-0.18273728,0.10006037,-0.96316516,6.066352844238281,-2.733577013015747,9.760300636291504,4.048598289489746,-100.80101013183594, -8.01972770690918
347,848523761,0.1702894,-0.19747424,0.09665823,-0.9605534,6.36755895614624,-2.1723833084106445,11.206965446472168,4.711528778076172,-104.01824951171875, -8.031067848205566
348,848540428,0.17076145,-0.21152973,0.09363713,-0.9577724,5.041103839874268,-2.7989299297332764,8.955653190612793,3.13348388671875,-99.39006805419922, -5.488097190856934
349,848557095,0.17087057,-0.22478229,0.092924185,-0.9547992,4.376521587371826,-2.5556020736694336,6.7678680419921875,-11.770182609558105,-91.41136932373047, -3.778972864151001
350,848573762,0.17023587,-0.237555,0.093097016,-0.9517985,3.7383697032928467,-2.8611881732940674,7.07693338394165,-18.176239013671875,-86.76322174072266, -6.955245018005371
351,848590429,0.16965297,-0.2498331,0.09144572,-0.9489147,3.8601348400115967,-3.4076602458953857,7.428983688354492,-5.485384941101074,-85.50292205810547, -9.426410675048828
352,848607096,0.16939506,-0.26165923,0.0889818,-0.94600314,4.577854156494141,-2.9251480102539062,7.140878200531006,0.9074100852012634,-83.7596664428711, -8.40554141998291
353,848623763,0.16901912,-0.273281,0.086504005,-0.9430097,4.822343349456787,-1.6293648481369019,7.6232991218566895,0.9857222437858582,-82.51288604736328, -8.989559173583984
354,848640430,0.16868496,-0.2843637,0.084026895,-0.9400118,4.060962677001953,-1.9337034225463867,7.534096717834473,1.6630759239196777,-79.04718780517578, -8.38723087310791
355,848657097,0.16873184,-0.294497,0.080729276,-0.93716806,3.634347915649414,-2.5523622035980225,7.192209720611572,8.888107299804688,-73.80043029785156, -7.165126323699951
356,848673764,0.16893694,-0.30361885,0.07778885,-0.9344651,3.558894395828247,-2.733184337615967,7.812381744384766,8.161431312561035,-66.69876861572266, -5.042196750640869
357,848690431,0.16913016,-0.3115194,0.07539595,-0.9320227,2.926058292388916,-2.5645174980163574,7.475427627563477,6.1791181564331055,-57.708229064941406, -3.646254777908325
358,848707098,0.16904718,-0.31818202,0.073566005,-0.92993087,2.78613018989563,-2.2219183444976807,7.784399032592773,3.602667808532715,-48.27979278564453, -3.9985344409942627
359,848723765,0.1684809,-0.3236858,0.07361869,-0.92812836,2.6503148078918457,-1.9797347784042358,8.93632698059082,-8.006571769714355,-37.86863708496094, -2.7367441654205322
360,848740432,0.1675461,-0.3280594,0.074505806,-0.9266899,2.250526189804077,-2.1925406455993652,8.461692810058594,-12.678420066833496,-28.778223037719727, -3.093397378921509
361,848757099,0.16655879,-0.33114567,0.07482834,-0.9257438,2.50020170211792,-2.5290143489837646,8.84614372253418,-7.478062629699707,-20.175168991088867, -4.6265058517456055
362,848773766,0.16570646,-0.33281207,0.07481077,-0.92530054,2.668926239013672,-2.248462200164795,9.075289726257324,-3.130770206451416,-10.539324760437012, -4.4080119132995605
363,848790433,0.16505034,-0.3329801,0.07458864,-0.92537516,2.4082136154174805,-1.550076961517334,8.877673149108887,0.5769453048706055,-0.24346153438091278, -3.462722063064575
364,848807100,0.1646931,-0.33184302,0.0744453,-0.9258588,1.8936231136322021,-1.3135474920272827,9.331998825073242,2.423006534576416,8.843945503234863, -1.1820391416549683
365,848823767,0.16482905,-0.3294145,0.07402022,-0.9267356,1.4396716356277466,-1.7033450603485107,8.903769493103027,6.971266746520996,17.286409378051758, 1.5241559743881226
366,848840434,0.16530462,-0.325612,0.074129485,-0.92798495,1.2178914546966553,-1.8063405752182007,9.247458457946777,6.059988498687744,27.212717056274414, 5.161068916320801
367,848857101,0.1660419,-0.32037207,0.07441356,-0.9296529,1.0083638429641724,-1.7625269889831543,9.076118469238281,7.35637092590332,37.275978088378906, 7.463241100311279
368,848873768,0.16687773,-0.31351867,0.07496174,-0.9317933,0.38043931126594543,-2.024693727493286,8.877119064331055,7.949004173278809,48.77205276489258, 8.945513725280762
369,848890435,0.16768983,-0.30504528,0.07569468,-0.93439704,0.2492617964744568,-1.9008796215057373,9.177948951721191,8.799725532531738,60.259578704833984, 9.473258972167969
370,848907102,0.16893843,-0.29465607,0.07612203,-0.9374663,1.8434697389602661,-1.6339346170425415,9.008708000183105,14.114241600036621,72.84895324707031, 12.077621459960938
371,848923769,0.17010283,-0.28233737,0.0780564,-0.9408815,3.0792219638824463,-0.7503464818000793,9.302685737609863,6.633907794952393,87.70476531982422, 15.190725326538086
372,848940436,0.17085879,-0.26741597,0.083005756,-0.9446726,3.5850937366485596,-1.2977737188339233,9.411272048950195,-10.455379486083984,108.96980285644531, 19.368070602416992
373,848957103,0.17189232,-0.24892287,0.09130786,-0.94876415,5.228201866149902,-1.1875441074371338,9.036943435668945,-27.382774353027344,136.47438049316406, 29.024581909179688
374,848973770,0.17374784,-0.22393668,0.10632435,-0.9530788,9.239073753356934,0.4650905430316925,8.777198791503906,-61.998111724853516,186.6650848388672, 49.70466232299805
375,848990437,0.17626503,-0.19089979,0.13054615,-0.9567893,16.228065490722656,0.9931064248085022,8.613123893737793,-112.2159194946289,249.16259765625, 74.87709045410156
376,849007104,0.17697753,-0.14741234,0.15337618,-0.9609497,19.199369430541992,-1.1299949884414673,10.319482803344727,-92.45405578613281,318.7722473144531, 70.11798858642578
377,849023771,0.17657492,-0.09273686,0.16782132,-0.96543115,7.6028547286987305,-6.080854415893555,13.430158615112305,-24.27640151977539,384.4172058105469, 65.78143310546875
378,849040438,0.17208336,-0.03722465,0.16645703,-0.970203,15.185907363891602,-5.830995559692383,10.767595291137695,79.47295379638672,375.783447265625, 29.161998748779297
379,849057105,0.1646828,-0.0070684315,0.16174929,-0.9729681,10.974997520446777,-3.844599723815918,-21.52308464050293,68.72909545898438,205.66412353515625, -17.6762638092041
380,849073772,0.159963,-0.00029534945,0.17160664,-0.9720923,7.2209086418151855,-8.009964942932129,-3.3967278003692627,-58.88059616088867,62.77371597290039, -20.82109832763672
381,849090439,0.15719324,-0.008518596,0.18643333,-0.9697736,-4.165274620056152,-0.9669519662857056,6.816750526428223,-110.09877014160156,-34.157508850097656, -23.791711807250977
382,849107106,0.15633318,-0.021175679,0.1939618,-0.9682409,1.9788163900375366,-14.027727127075195,2.8874692916870117,-65.1418685913086,-74.1112060546875, -18.038564682006836
383,849123773,0.15540425,-0.029772224,0.18456239,-0.9700001,-1.2759652137756348,-5.999683380126953,14.275715827941895,56.57355880737305,-64.29412841796875, -19.97018814086914
384,849140440,0.1565058,-0.03767653,0.18387678,-0.9696783,-1.898730754852295,-5.148774147033691,14.670619010925293,-3.036876916885376,-53.498687744140625, -1.3403770923614502
385,849157107,0.15922275,-0.043231994,0.18977892,-0.9678653,-3.354818344116211,-6.099998950958252,16.13405990600586,-45.91339874267578,-33.28746795654297, 15.832101821899414
386,849173774,0.16239697,-0.046595722,0.19670051,-0.96579754,-5.074945449829102,-5.298237323760986,15.652113914489746,-50.489070892333984,-18.57048225402832, 22.820505142211914
387,849190441,0.16552174,-0.048435535,0.20168906,-0.9641464,-7.070927619934082,-4.930819511413574,14.186544418334961,-35.42927932739258,-10.537443161010742, 23.42193031311035
388,849207108,0.16834961,-0.05023728,0.20400445,-0.9630767,-7.877220630645752,-4.065664768218994,12.699060440063477,-16.984241485595703,-12.886492729187012, 19.886253356933594
389,849223775,0.17023654,-0.054110844,0.20574903,-0.9621637,-7.1877946853637695,-3.606982707977295,11.867656707763672,-15.74167251586914,-26.068172454833984, 10.293798446655273
390,849240442,0.17038547,-0.061663765,0.20655675,-0.9615096,-4.64191198348999,-3.5827369689941406,11.774096488952637,-14.168614387512207,-49.10767364501953, -7.133471965789795
391,849257109,0.16917983,-0.07108404,0.20538832,-0.96132255,-3.4380199909210205,-4.4929304122924805,9.695237159729004,-3.2661542892456055,-61.574764251708984, -20.55266571044922
392,849273776,0.16792893,-0.07995237,0.20153931,-0.9616598,-3.206796646118164,-4.186614513397217,10.810711860656738,15.795937538146973,-60.77334213256836, -22.102415084838867
393,849290443,0.16769613,-0.087374754,0.19708848,-0.961977,-4.063592433929443,-3.792121648788452,12.15634822845459,21.94291877746582,-53.38286590576172, -13.77895736694336
394,849307110,0.16863862,-0.093240924,0.19389148,-0.96191126,-4.028637409210205,-4.220139026641846,12.4598970413208,15.591329574584961,-43.59086608886719, -2.71124005317688
395,849323777,0.17051575,-0.09805116,0.19127132,-0.96162677,-2.8236725330352783,-4.78367280960083,10.673569679260254,13.30568790435791,-37.54811096191406, 5.710748672485352
396,849340444,0.17233597,-0.10515531,0.18773098,-0.9612492,-1.739295482635498,-5.112010478973389,6.402576446533203,16.586977005004883,-54.03107452392578, 2.1512410640716553
397,849357111,0.17377824,-0.11653087,0.18135983,-0.96090084,0.4119122326374054,-5.275414943695068,4.077486038208008,30.09666633605957,-85.30067443847656, -7.634739398956299
398,849373778,0.17289057,-0.13250919,0.17163524,-0.9607765,0.8870837092399597,-1.8475691080093384,5.009479999542236,45.21653747558594,-116.57118225097656, -31.870315551757812
399,849390445,0.17679772,-0.18902157,0.1507564,-0.95408905,16.797773361206055,-9.297908782958984,-64.3284912109375,67.28777313232422,-409.31494140625, -50.7777214050293
400,849407112,0.1721843,-0.20929375,0.10156317,-0.95720094,32.72465133666992,-5.4558820724487305,51.934654235839844,296.9086608886719,-183.591552734375, -117.81700897216797
401,849423779,0.16578636,-0.24182901,0.098628536,-0.9509501,36.8389892578125,-1.4303663969039917,19.011627197265625,-31.565248489379883,-221.4532012939453, -60.316043853759766
402,849440446,0.1615385,-0.27263185,0.09373703,-0.94381714,33.37097930908203,2.2580597400665283,15.639749526977539,-13.923460960388184,-214.7423858642578, -47.16545486450195
403,849457113,0.15799002,-0.29478663,0.08945215,-0.93815696,5.695034980773926,3.7821009159088135,13.550843238830566,-6.140659332275391,-155.1715087890625, -37.364139556884766
404,849473780,0.15557504,-0.31191844,0.09381101,-0.9325786,-8.019928932189941,-3.250687599182129,0.1869950294494629,-54.2375373840332,-113.96794891357422, -9.464336395263672
405,849490447,0.14860226,-0.3236702,0.10261261,-0.92877644,-16.596805572509766,-2.810251474380493,2.1900148391723633,-85.54570007324219,-68.1222152709961, -27.654064178466797
406,849507114,0.14099854,-0.33001062,0.102794014,-0.92771006,-18.044130325317383,-4.1107964515686035,7.325042247772217,-24.414199829101562,-36.14717483520508, -49.96025085449219
407,849523781,0.1355744,-0.33331642,0.09606046,-0.9280584,-10.73335075378418,-6.814116954803467,11.562519073486328,28.597980499267578,-22.207298278808594, -51.12882614135742
408,849540448,0.13306282,-0.33302033,0.089792624,-0.9291552,-4.408157825469971,-2.2632551193237305,12.493621826171875,36.19453048706055,0.6865729689598083, -29.935104370117188
409,849557115,0.13247761,-0.32847574,0.08831725,-0.93099594,0.621860146522522,2.427363395690918,12.207083702087402,14.304328918457031,32.50067138671875, -4.760282039642334
410,849573782,0.13315164,-0.3188601,0.086239174,-0.9344313,3.2530598640441895,1.7131617069244385,10.991936683654785,26.4918212890625,67.10995483398438, 3.6010255813598633
411,849590449,0.13446173,-0.30366883,0.0833944,-0.93954825,1.1010057926177979,-1.422633171081543,11.047255516052246,38.8322868347168,105.46392822265625, 7.814125061035156
412,849607116,0.13644448,-0.28357098,0.08229855,-0.9456202,-3.5005087852478027,-0.03289707377552986,10.570096969604492,33.99618911743164,140.28192138671875, 17.73948097229004
413,849623783,0.14023095,-0.2590588,0.083906345,-0.95193684,-2.259692430496216,0.6748246550559998,9.883196830749512,24.169418334960938,170.81336975097656, 36.999210357666016
414,849640450,0.1474007,-0.22696956,0.093008325,-0.9581793,5.444446086883545,2.8584868907928467,5.689530372619629,-11.654590606689453,225.44154357910156, 76.94066619873047
415,849657117,0.15786332,-0.18224697,0.10896335,-0.9643611,13.709875106811523,7.349433422088623,5.576591968536377,-38.99784469604492,313.54931640625, 117.5351791381836
416,849673784,0.16354604,-0.12184089,0.13484444,-0.9696518,29.65717124938965,-2.0476276874542236,9.155133247375488,-94.67068481445312,431.1874694824219, 111.10658264160156
417,849690451,0.16245872,-0.047386885,0.16402353,-0.9718324,22.798126220703125,-9.478506088256836,16.812824249267578,-109.48765563964844,532.9873046875, 85.38196563720703
418,849707118,0.16021958,0.016920991,0.17431583,-0.97142035,14.056855201721191,-5.520056247711182,4.60450553894043,2.2727906703948975,444.88116455078125, 62.49885940551758
419,849723785,0.1605569,0.03164428,0.19699384,-0.96665066,17.28129768371582,-15.59357738494873,-37.918209075927734,-140.57008361816406,124.54241943359375, 24.23297691345215
420,849740452,0.1570116,0.022467576,0.20803393,-0.9651759,-10.700094223022461,2.4364984035491943,14.488639831542969,-83.56803131103516,-41.84187698364258, -36.19027328491211
421,849757119,0.15816313,0.0002592762,0.20595369,-0.9656953,3.0685343742370605,-21.665771484375,2.063030958175659,-8.661279678344727,-149.78945922851562, -23.60611915588379
422,849773786,0.15883075,-0.01453067,0.17784068,-0.9710481,0.9158743619918823,-1.7441599369049072,21.568992614746094,179.38356018066406,-128.58421325683594, -20.428064346313477
423,849790453,0.16031292,-0.021232355,0.16103382,-0.97361046,-0.575686514377594,-4.94081449508667,24.046979904174805,109.25544738769531,-63.44798278808594, -0.9718900322914124
424,849807120,0.16133037,-0.019266585,0.1578217,-0.9740093,-2.587587833404541,-1.468005895614624,22.932884216308594,25.271512985229492,9.753849029541016, 9.854059219360352
425,849823787,0.16258428,-0.014263338,0.17130117,-0.97160643,-4.602161884307861,-3.7517240047454834,20.854324340820312,-86.26324462890625,47.92906951904297, 20.037778854370117
426,849840454,0.16477613,-0.009587524,0.19693379,-0.9664234,-8.006126403808594,-3.630047082901001,17.278974533081055,-171.0763397216797,57.85966873168945, 30.217044830322266
427,849857121,0.1677666,-0.008323624,0.224318,-0.9599304,-10.338839530944824,-6.214003562927246,12.63573169708252,-188.35914611816406,35.85126495361328, 32.47918701171875
428,849873788,0.16983606,-0.01051872,0.2409934,-0.95549333,-8.309388160705566,-5.344422817230225,9.735818862915039,-118.52505493164062,2.0194458961486816, 18.021921157836914
429,849890455,0.17053892,-0.016067673,0.24596141,-0.95402384,-5.903225898742676,-5.237328052520752,11.167462348937988,-40.700077056884766,-31.34352684020996, -0.8858362436294556
430,849907122,0.16976713,-0.019564502,0.23751487,-0.9562339,-6.751774311065674,-5.27187442779541,14.575751304626465,55.74393844604492,-30.800317764282227, -12.934463500976562
431,849923789,0.16870996,-0.016887281,0.21960019,-0.96074337,-6.5282135009765625,-2.7784407138824463,12.85938835144043,128.88018798828125,-0.5846057534217834, -8.744163513183594
432,849940456,0.16764076,-0.008083387,0.20276198,-0.9647378,-6.089803218841553,-1.3732483386993408,10.323843955993652,128.03762817382812,40.99357223510742, 1.0988483428955078
433,849957123,0.16710277,0.0016236334,0.19497861,-0.96646655,-6.503311634063721,-3.380889892578125,7.467100620269775,65.82896423339844,56.456878662109375, 8.954548835754395
434,849973790,0.16682981,0.008081245,0.1928181,-0.96691465,-7.627419948577881,-3.173396587371826,6.559625625610352,23.016990661621094,40.87929916381836, 7.731415748596191
435,849990457,0.16686542,0.00675102,0.19294637,-0.9668931,-6.602015495300293,-1.5930190086364746,5.875151634216309,-1.7615779638290405,-8.7723388671875, -0.1734236180782318
436,850007124,0.16750737,-0.0037996175,0.19632934,-0.96611685,-2.6162657737731934,-1.2405951023101807,2.409952163696289,-35.019691467285156,-67.204345703125, -7.702972412109375
437,850023791,0.16861653,-0.02525299,0.1977547,-0.96531034,0.041349560022354126,-3.9170751571655273,-3.6359355449676514,-34.60345458984375,-142.5549774169922, -19.353796005249023
438,850040458,0.1688903,-0.053530585,0.18681754,-0.96628654,3.6090457439422607,-5.65408992767334,-1.3706153631210327,41.906005859375,-200.74966430664062, -38.38993835449219
439,850057125,0.16689605,-0.08204244,0.16862388,-0.96797776,0.690009593963623,-4.867557048797607,9.82158374786377,90.0356674194336,-207.4995574951172, -57.23879623413086
440,850073792,0.1659827,-0.12625465,0.13978085,-0.96797264,-17.357837677001953,7.6605706214904785,-44.46299362182617,141.5944061279297,-326.5285949707031, -72.3320083618164
441,850090459,0.16425759,-0.1693591,0.103025086,-0.9662934,37.44368362426758,-25.024147033691406,8.490317344665527,193.37034606933594,-329.05810546875, -81.71424102783203
442,850107126,0.16605772,-0.19753335,0.06329548,-0.96405363,32.73955154418945,-11.441995620727539,35.426170349121094,234.03443908691406,-235.6949462890625, -50.491111755371094
443,850123793,0.15743531,-0.23080558,0.06135298,-0.9582164,62.12188720703125,21.61269187927246,21.237770080566406,-38.047767639160156,-226.30413818359375, -66.35364532470703
444,850140460,0.15130042,-0.26416928,0.068178006,-0.95009184,3.8363943099975586,4.365955829620361,18.262208938598633,-93.38401794433594,-221.24038696289062, -33.26970672607422
445,850157127,0.14514858,-0.28073394,0.060825467,-0.94679505,-7.657187461853027,-10.448205947875977,6.465418338775635,18.814939498901367,-117.53775024414062, -56.225074768066406
446,850173794,0.14145932,-0.29324573,0.063554585,-0.94337547,-12.160551071166992,-2.456367254257202,7.427038669586182,-37.941078186035156,-82.53852081298828, -19.03168296813965
447,850190461,0.13721979,-0.299773,0.069202565,-0.94155097,-10.300063133239746,4.0434465408325195,4.6109819412231445,-51.45709991455078,-37.681434631347656, -15.709850311279297
448,850207128,0.13139684,-0.29993734,0.07852717,-0.9415977,-14.023398399353027,-1.7175217866897583,5.564189434051514,-71.7059326171875,11.390183448791504, -17.11315155029297
449,850223795,0.12611426,-0.29469267,0.08326488,-0.9435669,-17.707782745361328,-3.2203192710876465,8.377066612243652,-34.96707534790039,45.680118560791016, -21.95305061340332
450,850240462,0.12532349,-0.28425995,0.08260361,-0.9469251,-10.317341804504395,-3.2812907695770264,12.948034286499023,14.471758842468262,74.56672668457031, -2.0796782970428467
451,850257129,0.12870355,-0.2675488,0.081915446,-0.95139,1.9666872024536133,2.177732467651367,12.039753913879395,28.83881187438965,114.94991302490234, 27.575870513916016
452,850273796,0.13372846,-0.24587038,0.082650326,-0.95646936,5.7775702476501465,2.973828077316284,9.32698917388916,27.219928741455078,148.83642578125, 43.242366790771484
453,850290463,0.13950482,-0.21945618,0.08371936,-0.9619609,3.9505584239959717,0.48347845673561096,9.46901798248291,30.800628662109375,180.58090209960938, 51.111785888671875
454,850307130,0.14796859,-0.18283513,0.09080289,-0.967694,5.496687889099121,-0.6070248484611511,7.407474517822266,4.955996036529541,252.7090301513672, 83.6370849609375
455,850323797,0.15740722,-0.1315982,0.108334206,-0.9727121,15.747275352478027,2.650200366973877,7.337338924407959,-48.95735549926758,359.239013671875, 113.15522766113281
456,850340464,0.16470283,-0.06465947,0.13443162,-0.97499776,30.357585906982422,2.5390419960021973,12.955735206604004,-93.35963439941406,473.0987854003906, 121.32659149169922
457,850357131,0.16829179,0.010855333,0.16483927,-0.97179633,6.12515926361084,-2.2335240840911865,18.282333374023438,-119.41638946533203,537.107177734375, 112.66328430175781
458,850373798,0.16928972,0.039895825,0.19104311,-0.9660497,34.53171920776367,-5.964166641235352,-44.077388763427734,-147.75527954101562,224.4169464111328, 45.8394660949707
459,850390465,0.16680686,0.037404977,0.1980071,-0.9651785,-6.274616241455078,-16.64434242248535,-2.5754058361053467,-48.56900405883789,-2.958730936050415, -20.95648956298828
460,850407132,0.16525452,0.007636386,0.21194041,-0.9631792,-2.8968257904052734,0.5196266770362854,-4.545436859130859,-127.74944305419922,-177.20791625976562, -52.02345657348633
461,850423799,0.16667198,-0.015469338,0.18501829,-0.96837467,1.6595346927642822,-18.36100959777832,14.43799877166748,160.74879455566406,-183.99127197265625, -29.42218780517578
462,850440466,0.1678601,-0.03143481,0.15759295,-0.97262496,-0.4040343761444092,-0.04850351810455322,19.62076759338379,171.02976989746094,-137.76766967773438, -18.46466636657715
463,850457133,0.16790065,-0.04017248,0.14291745,-0.97456163,0.9602314233779907,-3.4063448905944824,21.47623634338379,91.22236633300781,-73.9535140991211, -12.926851272583008
464,850473800,0.16758548,-0.044283364,0.1448666,-0.9741498,-2.620191812515259,-2.2667057514190674,22.94394874572754,-17.296194076538086,-24.051000595092773, -3.473707437515259
465,850490467,0.16851714,-0.047801193,0.1621257,-0.9710986,-3.980879545211792,-4.725931167602539,20.935222625732422,-121.48543548583984,-4.549042701721191, 13.16475772857666
466,850507134,0.17048879,-0.052625187,0.18806936,-0.96581274,-7.4042205810546875,-4.493520259857178,18.68727684020996,-183.18072509765625,-5.192677974700928, 24.095069885253906
467,850523801,0.17207317,-0.06001516,0.21378468,-0.959732,-7.479188919067383,-5.286409378051758,15.893660545349121,-185.8799285888672,-22.428253173828125, 19.026432037353516
468,850540468,0.17188382,-0.07006623,0.23167765,-0.9549201,-5.578919410705566,-7.056972980499268,16.758365631103516,-136.29161071777344,-46.243927001953125, -1.3634761571884155
469,850557135,0.17065555,-0.078037195,0.23766668,-0.95304865,-4.143388748168945,-6.580357551574707,19.840646743774414,-51.507179260253906,-43.67945098876953, -14.125588417053223
470,850573802,0.17010729,-0.08287854,0.23602039,-0.9531469,-3.0572752952575684,-5.6464338302612305,16.166263580322266,5.721625804901123,-32.26490020751953, -11.003273963928223
471,850590469,0.17048174,-0.08303608,0.22970365,-0.9546085,-2.9044158458709717,-6.110509872436523,14.625381469726562,44.49900817871094,-7.816372871398926, -1.64336097240448
472,850607136,0.17162134,-0.07956977,0.221215,-0.95670193,-3.9278550148010254,-6.4116997718811035,13.686249732971191,64.41220092773438,12.514318466186523, 7.0920281410217285
473,850623803,0.17243251,-0.075596906,0.21323445,-0.9586884,-4.939878940582275,-4.87159538269043,11.42315673828125,61.3154296875,16.81248664855957, 6.073414325714111
474,850640470,0.17235719,-0.076528914,0.20747596,-0.9598908,-5.0363078117370605,-3.8666799068450928,9.152807235717773,39.23267364501953,-12.075845718383789, -4.91249418258667
475,850657137,0.17148085,-0.08355259,0.20327413,-0.960361,-2.260075330734253,-2.614821195602417,6.730051517486572,20.229875564575195,-49.489479064941406, -17.822952270507812
476,850673804,0.16804463,-0.09452035,0.20024244,-0.96058846,-0.6896675825119019,-3.293006658554077,8.013532638549805,6.016351699829102,-70.71564483642578, -39.38674545288086
477,850690471,0.16328888,-0.10753237,0.1947652,-0.9611661,-2.910625457763672,-4.5280561447143555,7.5398359298706055,19.470531463623047,-85.27207946777344, -52.36594009399414
478,850707138,0.16010064,-0.11913797,0.1890604,-0.9614729,-5.693902015686035,-5.546117782592773,7.782209396362305,23.4696102142334,-78.91577911376953, -39.2695426940918
479,850723805,0.15816264,-0.12409691,0.17381044,-0.96404076,-8.344585418701172,-4.3726420402526855,12.29847526550293,97.79206085205078,-45.084571838378906, -33.32712173461914
480,850740472,0.16107444,-0.15334049,0.14532286,-0.96406597,-22.613544464111328,11.203974723815918,-78.76039123535156,160.24900817871094,-228.62535095214844, -38.77698516845703
481,850757139,0.16471457,-0.19644588,0.10358791,-0.961014,75.44107818603516,-40.229671478271484,27.47555923461914,230.31275939941406,-339.5704650878906, -58.37944412231445
482,850773806,0.16067588,-0.23039019,0.07713152,-0.95663714,28.576475143432617,11.781806945800781,32.5804443359375,128.56863403320312,-257.0783996582031, -80.26114654541016
483,850790473,0.1506244,-0.2625302,0.08399927,-0.94938654,40.59710693359375,14.26898193359375,5.206085205078125,-99.9242935180664,-209.48045349121094, -62.73274612426758
484,850807140,0.1437453,-0.2907465,0.07958496,-0.9425869,2.262009620666504,-4.040827751159668,19.001567840576172,-16.37555503845215,-196.0640869140625, -60.355506896972656
485,850823807,0.13996851,-0.30513406,0.07761163,-0.9387644,-8.0035982131958,-7.195034503936768,9.343728065490723,-10.659586906433105,-99.8629379272461, -30.771860122680664
486,850840474,0.13666254,-0.3147984,0.080593385,-0.9358047,-9.186442375183105,-0.6846855282783508,6.424180507659912,-36.5981559753418,-63.241390228271484, -15.720998764038086
487,850857141,0.13160247,-0.31825864,0.08790947,-0.9347002,-12.226225852966309,2.4104135036468506,4.712892532348633,-61.45479965209961,-14.448609352111816, -15.95527458190918
488,850873808,0.12630759,-0.31606126,0.09401553,-0.9355817,-17.327037811279297,-1.917335867881775,6.511058330535889,-47.943668365478516,25.095964431762695, -18.50105857849121
489,850890475,0.12332452,-0.30796453,0.09562616,-0.9385121,-14.916440963745117,-1.089738368988037,10.778915405273438,-7.5869598388671875,61.82765197753906, -11.431300163269043
490,850907142,0.12399568,-0.29334664,0.09283407,-0.9433741,-4.114636421203613,-1.2953635454177856,12.527352333068848,35.32360076904297,101.61189270019531, 5.416301727294922
491,850923809,0.12788719,-0.2723955,0.09089423,-0.9493071,2.7450802326202393,-0.35709211230278015,11.262612342834473,42.3543815612793,143.4080810546875, 31.123085021972656
492,850940476,0.13420086,-0.24642383,0.091683276,-0.955437,6.17643928527832,2.9423348903656006,9.18732738494873,33.59170913696289,177.42041015625, 55.00310516357422
493,850957143,0.14233057,-0.21184202,0.09894726,-0.96180785,6.290600776672363,2.9368984699249268,7.667778015136719,2.1637442111968994,239.29161071777344, 83.1298599243164
494,850973810,0.15249199,-0.16166925,0.112886235,-0.96843493,11.901396751403809,0.7164821624755859,6.236561298370361,-23.66806411743164,348.0864562988281, 116.66728210449219
495,850990477,0.1609267,-0.09335996,0.13520928,-0.9731932,29.336471557617188,-0.342304527759552,11.154183387756348,-63.93404769897461,477.2958068847656, 130.55352783203125
496,851007144,0.16340037,-0.0125081455,0.16682337,-0.97227263,19.839439392089844,0.7371362447738647,18.143075942993164,-121.44852447509766,574.0592651367188, 114.61322784423828
497,851023811,0.1649454,0.035519976,0.18800059,-0.9675677,30.572006225585938,-2.543081283569336,-23.434608459472656,-92.90695190429688,343.35382080078125, 74.00516510009766
498,851040478,0.16448992,0.040982135,0.20067757,-0.9648794,-6.490561485290527,-28.91935920715332,-21.088769912719727,-81.2542953491211,53.29852294921875, 4.095254898071289
499,851057145,0.15916967,0.019002248,0.20082505,-0.9664231,-5.860342025756836,5.880949020385742,1.822164535522461,-21.895309448242188,-138.12890625, -65.90145111083984
500,851073812,0.16216902,-0.005836423,0.18264286,-0.9696953,3.8207709789276123,-21.65117835998535,13.580018043518066,98.25101470947266,-188.1260223388672, -16.32611846923828
501,851090479,0.1660214,-0.021969564,0.16088127,-0.9726622,-0.4792279899120331,-2.053544521331787,21.491674423217773,131.4201202392578,-135.96005249023438, 2.767730712890625
502,851107146,0.16882537,-0.031774852,0.1537815,-0.9730569,1.3802775144577026,-1.5388729572296143,20.730487823486328,37.5637321472168,-76.09993743896484, 7.912971496582031
503,851123813,0.17101082,-0.03983841,0.16985531,-0.9696998,-2.3647890090942383,-1.751009225845337,21.275882720947266,-119.56932067871094,-37.684471130371094, 15.051258087158203
504,851140480,0.17300054,-0.048749495,0.19161199,-0.9648728,-3.905503988265991,-5.205995082855225,18.056581497192383,-160.24159240722656,-36.847084045410156, 16.051801681518555
505,851157147,0.17410477,-0.0586541,0.2135641,-0.95949864,-6.380281925201416,-3.689300060272217,17.974042892456055,-163.71661376953125,-42.265159606933594, 9.583863258361816
506,851173814,0.1733808,-0.06886137,0.23043738,-0.9550373,-8.369216918945312,-5.049519062042236,20.13031578063965,-129.9683837890625,-47.35628890991211, -6.080430030822754
507,851190481,0.17199908,-0.07520925,0.23572007,-0.95351774,-6.7538909912109375,-4.748204708099365,20.233875274658203,-44.904666900634766,-33.47877502441406, -13.314045906066895
508,851207148,0.1723256,-0.076358214,0.2297949,-0.954813,-3.973435163497925,-6.459138870239258,16.19636344909668,40.15336608886719,-14.029061317443848, -2.845102548599243
509,851223815,0.17336878,-0.0771305,0.21944846,-0.9569937,-1.9406211376190186,-6.764843463897705,10.937017440795898,71.41224670410156,-17.503538131713867, -0.9352399110794067
510,851240482,0.17417528,-0.078383364,0.20810801,-0.9592761,-3.131234884262085,-5.624700546264648,11.083086013793945,77.43279266357422,-21.46430015563965, -3.876967430114746
511,851257149,0.17461984,-0.08081982,0.19942074,-0.96083707,-2.9901139736175537,-3.994330644607544,12.238875389099121,57.30353927612305,-26.002288818359375, -5.678812503814697
512,851273816,0.17450847,-0.084878035,0.19409095,-0.9615984,-3.1715614795684814,-3.4628958702087402,12.32499885559082,31.76911163330078,-32.40322494506836, -8.762181282043457
513,851290483,0.17428175,-0.09045434,0.19255129,-0.96144074,-3.6726043224334717,-3.661299228668213,11.856619834899902,3.590529203414917,-38.313629150390625, -8.249255180358887
514,851307150,0.1741639,-0.09836221,0.1921841,-0.9607587,-3.502451181411743,-3.211533784866333,6.852006912231445,-7.583012580871582,-52.836524963378906, -9.274275779724121
515,851323817,0.17389397,-0.10757187,0.1894434,-0.9603648,-2.9793074131011963,-2.9908339977264404,5.691137313842773,6.811602592468262,-63.92768096923828, -13.965344429016113
516,851340484,0.17377953,-0.11856578,0.18455356,-0.9600434,-2.012582778930664,-3.5509350299835205,5.160859107971191,19.073266983032227,-78.46952819824219, -16.950441360473633
517,851357151,0.17158696,-0.13077444,0.17823513,-0.96004605,-2.396519422531128,-3.744964599609375,10.827803611755371,25.771406173706055,-85.32666778564453, -33.76909255981445
518,851373818,0.16710687,-0.13940546,0.16941164,-0.9612187,-7.705132007598877,-2.928159236907959,16.07709503173828,45.905696868896484,-60.85238265991211, -48.124183654785156
519,851390485,0.16256228,-0.13867143,0.15489127,-0.96454793,-15.608318328857422,-6.176161289215088,19.18960189819336,96.75961303710938,-3.465320348739624, -45.60568618774414
520,851407152,0.16189148,-0.19291465,0.15562049,-0.9551741,-14.374409675598145,6.058819770812988,-110.95487213134766,-75.67494201660156,-367.6134948730469, -49.811458587646484
521,851423819,0.16489351,-0.2120348,0.078738,-0.96002704,46.131927490234375,-39.57150650024414,57.4283447265625,493.7137145996094,-208.4769287109375, -106.91847229003906
522,851440486,0.1597408,-0.24170962,0.06656456,-0.9547925,67.51356506347656,19.350862503051758,21.842451095581055,37.14896774291992,-214.55596923828125, -60.602779388427734
523,851457153,0.14778191,-0.27213895,0.075706884,-0.9478237,33.76249694824219,17.720449447631836,24.603700637817383,-115.87773895263672,-195.2523193359375, -68.1019287109375
524,851473820,0.13861415,-0.29683432,0.07297885,-0.9419927,-2.839116096496582,-10.066505432128906,10.815849304199219,-26.992778778076172,-169.02413940429688, -70.14852142333984
525,851490487,0.1333469,-0.3064713,0.07804398,-0.93925685,-12.367770195007324,-10.47056770324707,13.293317794799805,-53.53895568847656,-59.78860092163086, -24.424909591674805
526,851507154,0.12936626,-0.30845228,0.08238875,-0.93879396,-15.777216911315918,4.520322799682617,5.370262622833252,-37.88692092895508,-7.099063396453857, -15.690319061279297
527,851523821,0.124021515,-0.30535114,0.09246432,-0.9395903,-14.5819091796875,2.3048970699310303,5.990666389465332,-72.61299896240234,34.059478759765625, -10.582616806030273
528,851540488,0.11826446,-0.29642028,0.099348255,-0.9424854,-14.54104995727539,-3.325845241546631,4.219005107879639,-46.61006546020508,73.49697875976562, -18.04694366455078
529,851557155,0.11658132,-0.28225222,0.10068203,-0.94689274,-13.780057907104492,-1.3998312950134277,8.471487045288086,2.940774440765381,103.06369018554688, -0.6582069396972656
530,851573822,0.11953628,-0.2591912,0.09821815,-0.95335454,-0.8311988115310669,2.94777250289917,12.424077987670898,45.19656753540039,158.54495239257812, 26.64234161376953
531,851590489,0.12658647,-0.22720516,0.0961966,-0.96078116,9.94450855255127,0.21192452311515808,9.531290054321289,57.54070281982422,216.341552734375, 59.52345275878906
532,851607156,0.13617444,-0.18707475,0.0985247,-0.9678599,5.932162761688232,1.308430790901184,5.620781898498535,39.611114501953125,271.8072509765625, 88.80030059814453
533,851623823,0.14725903,-0.13359329,0.10785106,-0.97408223,14.129051208496094,3.879897356033325,5.653604030609131,6.842084884643555,365.2393798828125, 117.64019012451172
534,851640490,0.15624851,-0.059924904,0.12957235,-0.9773468,38.05259704589844,-0.4155476987361908,18.01108741760254,-59.96723175048828,512.2664794921875, 133.02976989746094
535,851657157,0.1601994,0.025975667,0.15908453,-0.97383446,7.166961193084717,-5.185610771179199,19.930957794189453,-107.3932876586914,605.193359375, 120.63327026367188
536,851673824,0.1636269,0.057146184,0.18728922,-0.9668938,36.85811233520508,1.4818534851074219,-48.13962173461914,-162.45028686523438,237.81942749023438, 61.124996185302734
537,851690491,0.161322,0.05230695,0.19558623,-0.96591175,-15.957755088806152,-21.03004264831543,3.3291730880737305,-60.33979034423828,-18.267244338989258, -23.77511215209961
538,851707158,0.15685172,0.023187073,0.19584902,-0.967731,-0.7433196306228638,-2.0673608779907227,-4.284872055053711,-29.560081481933594,-187.26390075683594, -69.48658752441406
539,851723825,0.15913326,-0.0009298991,0.16829433,-0.9728067,2.4252126216888428,-11.821577072143555,20.56196403503418,164.2680206298828,-193.63990783691406, -16.904294967651367
540,851740492,0.16275853,-0.017946687,0.14849655,-0.97526234,1.6151123046875,-5.809696197509766,18.73410987854004,117.17615509033203,-139.15643310546875, 3.2418384552001953
541,851757159,0.16459863,-0.032032248,0.15332837,-0.973844,1.8399674892425537,2.679730176925659,20.72797966003418,-48.85725021362305,-90.55248260498047, 1.6503710746765137
542,851773826,0.16637133,-0.046191283,0.18345012,-0.96774656,-2.681302309036255,-3.171754837036133,20.126388549804688,-223.30203247070312,-63.365989685058594, 12.00973129272461
543,851790493,0.16870993,-0.058646403,0.20851828,-0.9615706,-4.0945353507995605,-6.943208694458008,19.523958206176758,-187.62989807128906,-58.561038970947266, 16.419498443603516
544,851807160,0.17097229,-0.06803009,0.22216149,-0.957489,-6.972192287445068,-5.616405010223389,20.26306915283203,-105.52100372314453,-50.57706832885742, 13.279136657714844
545,851823827,0.17133439,-0.07263182,0.22361203,-0.95674825,-8.176335334777832,-4.625430583953857,18.44434928894043,-15.41284465789795,-29.011228561401367, -1.5760833024978638
546,851840494,0.1700028,-0.07451958,0.21646616,-0.95848244,-6.7976837158203125,-5.0458984375,16.237586975097656,47.28354263305664,-17.50504493713379, -15.781266212463379
547,851857161,0.16812722,-0.07520671,0.20583357,-0.96109843,-4.598854064941406,-4.0311598777771,14.82618522644043,72.69758605957031,-12.458285331726074, -20.42096519470215
548,851873828,0.16628993,-0.077069305,0.1990194,-0.96270436,-3.6320550441741943,-4.103557586669922,13.157756805419922,44.6906852722168,-16.42452621459961, -18.704856872558594
549,851890495,0.16440675,-0.08087348,0.1980087,-0.9629241,-4.091026782989502,-4.189405918121338,12.853111267089844,2.13525390625,-23.343101501464844, -17.016923904418945
550,851907162,0.16231696,-0.084751375,0.2025755,-0.9619949,-4.536830425262451,-4.449913501739502,12.925664901733398,-36.553253173828125,-17.9185848236084, -14.099679946899414
551,851923829,0.16064362,-0.087866396,0.2100055,-0.9604018,-5.476476192474365,-5.877964019775391,11.376452445983887,-55.32004165649414,-10.68159008026123, -7.8919901847839355
552,851940496,0.15947796,-0.09145715,0.21515198,-0.95912063,-5.508310794830322,-5.978652000427246,9.898564338684082,-39.99740982055664,-16.93337631225586, -6.974385738372803
553,851957163,0.15820052,-0.09771865,0.21762647,-0.958156,-3.953686475753784,-5.788989543914795,7.206765174865723,-24.89449691772461,-37.15505599975586, -13.71426010131836
554,851973830,0.15804768,-0.105646506,0.21112272,-0.9587948,-2.233477830886841,-7.512130260467529,6.261880874633789,35.51658630371094,-58.08533477783203, -17.535720825195312
555,851990497,0.16038837,-0.11421881,0.19428656,-0.96098024,-1.0867804288864136,-8.22791576385498,6.1795973777771,106.98361206054688,-76.05498504638672, -11.347733497619629
556,852007164,0.16300447,-0.1239643,0.17066489,-0.9638134,-1.3920551538467407,-6.83231258392334,10.181334495544434,151.70518493652344,-91.46484375, -16.546520233154297
557,852023831,0.16404706,-0.13286681,0.1473218,-0.966298,-6.851668357849121,-4.5055928230285645,14.817140579223633,149.22547912597656,-84.4191665649414, -24.37489128112793
558,852040498,0.16839541,-0.15742585,0.12919894,-0.96445227,-23.583127975463867,5.905238628387451,-51.831729888916016,95.43133544921875,-189.7524871826172, -9.148289680480957
559,852057165,0.16805606,-0.21163502,0.09795805,-0.9577956,64.58611297607422,-37.311614990234375,3.0482449531555176,138.75222778320312,-402.9934997558594, -75.26530456542969
560,852073832,0.1642829,-0.23875146,0.07178843,-0.9543877,12.39111328125,7.555674076080322,20.468523025512695,134.0550079345703,-210.987548828125, -75.94281768798828
561,852090499,0.14968437,-0.2717442,0.07456659,-0.9477289,60.75227355957031,24.537338256835938,14.962968826293945,-82.02587127685547,-216.7909698486328, -98.65432739257812
562,852107166,0.138666,-0.29953507,0.06763865,-0.94152856,4.819375991821289,-5.723262310028076,18.142433166503906,-6.624115467071533,-193.45582580566406, -91.07655334472656
563,852123833,0.13257125,-0.3142675,0.068403274,-0.9375405,-3.7954659461975098,-7.084507942199707,15.436955451965332,-32.782142639160156,-99.33478546142578, -39.40953826904297
564,852140500,0.12866642,-0.32100058,0.06918032,-0.9357446,-11.511995315551758,-0.20926648378372192,6.8317742347717285,-19.786418914794922,-44.14215087890625, -23.540624618530273
565,852157167,0.12283936,-0.3227029,0.07418728,-0.93555874,-16.186561584472656,2.339698076248169,2.851926326751709,-46.05244064331055,-3.6850504875183105, -25.614885330200195
566,852173834,0.1164301,-0.3162398,0.07651577,-0.93839353,-19.207433700561523,-3.282327890396118,4.24346399307251,-21.720651626586914,53.441463470458984, -33.69350814819336
567,852190501,0.11262324,-0.30166003,0.07540145,-0.94373316,-15.985204696655273,-2.651710033416748,8.534476280212402,13.956311225891113,106.98412322998047, -22.15846824645996
568,852207168,0.11325144,-0.27828565,0.07496058,-0.95084834,-3.354795455932617,0.381536066532135,12.314552307128906,26.508405685424805,165.83233642578125, 11.17350959777832
569,852223835,0.11945734,-0.24618623,0.07824213,-0.95864534,7.321950435638428,5.566207408905029,10.582720756530762,19.973230361938477,224.17298889160156, 58.73125457763672
570,852240502,0.13125712,-0.2042547,0.08336967,-0.9664892,10.805108070373535,5.8979291915893555,6.926112651824951,25.33460235595703,287.64111328125, 104.02249145507812
571,852257169,0.14322439,-0.14747271,0.09618557,-0.9739031,18.31160545349121,2.1878437995910645,5.491605758666992,-12.429532051086426,392.7596740722656, 124.89103698730469
572,852273836,0.151999,-0.07140373,0.12138635,-0.9782964,38.39021301269531,-4.414246082305908,14.897735595703125,-81.7077865600586,533.6051635742188, 131.87521362304688
573,852290503,0.15729028,0.016323147,0.15100402,-0.9758032,3.096055507659912,-7.763911247253418,18.629764556884766,-106.70559692382812,616.943359375, 126.73991394042969
574,852307170,0.16083421,0.041560825,0.18278539,-0.96901757,33.5080451965332,-2.6186718940734863,-54.43067169189453,-192.9585723876953,201.30499267578125, 55.240020751953125
575,852323837,0.16118932,0.030472042,0.194675,-0.96705306,-12.017189979553223,-15.204751014709473,5.67873477935791,-93.57472229003906,-60.07323455810547, -11.289358139038086
576,852340504,0.1611813,-0.006360466,0.19724599,-0.96699256,2.472161293029785,-12.997608184814453,-2.458728551864624,-57.447444915771484,-241.60174560546875, -48.343833923339844
577,852357171,0.16634439,-0.03301367,0.15185794,-0.9737449,4.873599529266357,-9.071456909179688,23.67414093017578,282.3645324707031,-233.8438720703125, -9.804158210754395
578,852373838,0.17182232,-0.052399937,0.12399006,-0.9758885,3.919732093811035,-0.626072883605957,19.435646057128906,168.5692901611328,-166.4020538330078, 9.148754119873047
579,852390505,0.17435375,-0.071915485,0.13559729,-0.9726475,2.913318634033203,4.302099704742432,22.253332138061523,-102.15120697021484,-120.01390075683594, 9.856330871582031
580,852407172,0.17543471,-0.090835065,0.17042649,-0.9653638,-3.352407693862915,-4.97230339050293,21.97540855407715,-261.3169860839844,-88.83755493164062, 17.066057205200195
581,852423839,0.17836338,-0.10218281,0.1929589,-0.9594335,-4.436824798583984,-6.8018269538879395,19.695714950561523,-167.7665252685547,-54.74266052246094, 28.891735076904297
582,852440506,0.18242517,-0.10891035,0.20507969,-0.955407,-5.1492509841918945,-3.928206205368042,18.265108108520508,-90.07093811035156,-37.227481842041016, 32.83517074584961
583,852457173,0.18425395,-0.115188435,0.21214364,-0.95277375,-6.072721481323242,-4.03029203414917,16.327880859375,-56.004451751708984,-36.462100982666016, 13.253886222839355
584,852473840,0.18367001,-0.122656904,0.21465164,-0.9513916,-5.042830467224121,-4.580543041229248,13.523069381713867,-27.76319694519043,-45.56239318847656, -9.498875617980957
585,852490507,0.18177694,-0.13010521,0.21526037,-0.9506278,-5.330018043518066,-3.942323684692383,18.845741271972656,-15.510969161987305,-45.41121292114258, -20.43226432800293
586,852507174,0.17973688,-0.13543667,0.21566501,-0.95017934,-4.706587314605713,-2.3876678943634033,18.920440673828125,-11.21190071105957,-31.368261337280273, -18.852245330810547
587,852523841,0.17778175,-0.13643672,0.21584973,-0.95036215,-4.2372965812683105,-5.634334564208984,15.895227432250977,-3.431975841522217,-2.917083501815796, -12.87211799621582
588,852540508,0.17630126,-0.13216951,0.21403854,-0.9516498,-3.484422445297241,-7.7953200340271,14.688029289245605,18.129610061645508,29.36041831970215, -5.192907333374023
589,852557175,0.17574927,-0.12578304,0.21022369,-0.95346606,-3.730132579803467,-6.870571613311768,13.706138610839844,35.441680908203125,39.88570785522461, 1.5233370065689087
590,852573842,0.17546909,-0.11991647,0.20387687,-0.95564926,-2.9610486030578613,-5.398204803466797,11.274975776672363,52.18463897705078,33.31553268432617, -0.09401268512010574
591,852590509,0.17553759,-0.11707076,0.19595419,-0.957645,-2.850536346435547,-4.407183647155762,7.665374279022217,58.92256546020508,10.899155616760254, -3.1200766563415527
592,852607176,0.17572546,-0.1198971,0.18755017,-0.9589426,-2.8431663513183594,-4.530301570892334,5.028677463531494,54.272804260253906,-27.316268920898438, -10.585664749145508
593,852623843,0.1740275,-0.12624124,0.1775978,-0.9603318,-3.464881658554077,-3.8600289821624756,5.6463236808776855,58.74677276611328,-49.7935676574707, -29.251211166381836
594,852640510,0.17055911,-0.13119915,0.16422307,-0.96266705,-6.52857780456543,-2.699923038482666,8.88271713256836,82.74172973632812,-42.16421127319336, -42.45632553100586
595,852657177,0.16672389,-0.13208213,0.15469073,-0.9647949,-9.446026802062988,-3.170686721801758,12.240700721740723,61.75406265258789,-11.047598838806152, -35.12005615234375
596,852673844,0.16696364,-0.17410845,0.14224882,-0.95998716,-18.727888107299805,14.901640892028809,-97.4259262084961,30.050338745117188,-297.719970703125, -47.58730697631836
597,852690511,0.1706698,-0.21156205,0.09157117,-0.95798165,79.3255386352539,-48.89835739135742,40.96238708496094,294.683837890625,-311.6578063964844, -69.23905181884766
598,852707178,0.16817118,-0.2485183,0.060177434,-0.9520171,46.71345138549805,9.792947769165039,32.65279006958008,156.85269165039062,-287.114013671875, -77.07312774658203
599,852723845,0.15685213,-0.28384477,0.06802201,-0.94350576,35.26887130737305,18.51671600341797,12.41535472869873,-114.35342407226562,-231.52134704589844, -64.06766510009766
600,852740512,0.14599577,-0.31293172,0.06593468,-0.9361689,-1.6667007207870483,1.6895651817321777,10.493138313293457,-41.80426025390625,-199.5078887939453, -78.69795989990234
601,852757179,0.13879257,-0.33071566,0.066506885,-0.9310968,-11.721415519714355,-12.575542449951172,10.50152587890625,-38.70870590209961,-120.89301300048828, -46.59706497192383
602,852773846,0.13256407,-0.338635,0.06749751,-0.9290844,-14.098477363586426,-1.5199439525604248,5.8299880027771,-28.325807571411133,-50.92390060424805, -37.86959457397461
603,852790513,0.12784366,-0.3413084,0.07535024,-0.92816365,-12.797887802124023,2.7252004146575928,7.9643940925598145,-63.37897872924805,-9.41662311553955, -10.832948684692383
604,852807180,0.123478614,-0.33804584,0.081497215,-0.9294283,-13.729596138000488,1.309122085571289,5.4127278327941895,-45.34373474121094,31.812719345092773, -11.413326263427734
605,852823847,0.12136205,-0.32833654,0.080985114,-0.9332248,-14.724641799926758,-1.1625902652740479,9.407219886779785,9.299166679382324,71.88909912109375, -11.064780235290527
606,852840514,0.12298646,-0.31099638,0.08081981,-0.9389487,-8.628897666931152,-3.3199737071990967,12.745274543762207,22.942508697509766,123.31015014648438, 16.344316482543945
607,852857181,0.12733772,-0.2867945,0.084092915,-0.94576055,2.4773833751678467,-0.9618285298347473,12.329170227050781,12.978005409240723,171.25930786132812, 44.17456817626953
608,852873848,0.13262278,-0.25580922,0.092264436,-0.9531321,8.997820854187012,4.3848395347595215,8.768057823181152,-10.781438827514648,220.2254638671875, 63.34071731567383
609,852890515,0.14084198,-0.21689807,0.10204104,-0.9605764,8.109916687011719,1.5095490217208862,6.473194599151611,-8.897869110107422,271.9585876464844, 90.3857421875
610,852907182,0.15197259,-0.1628224,0.1126583,-0.9683502,15.575698852539062,-0.8791906833648682,5.458475112915039,4.7913923263549805,371.52288818359375, 121.2334976196289
611,852923849,0.16127795,-0.0922353,0.12986965,-0.97396946,33.66094970703125,-4.900431156158447,12.751205444335938,-25.45271873474121,487.4032287597656, 132.4862823486328
612,852940516,0.16576207,-0.010460618,0.16054633,-0.97295386,25.06123924255371,-3.643678903579712,18.52918243408203,-112.45346069335938,578.3187866210938, 124.4094009399414
613,852957183,0.1670987,0.032175757,0.18559434,-0.96778005,27.77385139465332,3.8953864574432373,-28.539541244506836,-124.1333236694336,312.545654296875, 65.22486114501953
614,852973850,0.169668,0.029006489,0.20320866,-0.96388716,-14.558505058288574,-33.625492095947266,-15.38564682006836,-125.92628479003906,-2.6741561889648438, 15.160371780395508
615,852990517,0.1651736,0.0050457628,0.18764946,-0.96823585,-2.136568546295166,3.622498035430908,4.278642177581787,82.78914642333984,-171.05471801757812, -63.73714828491211
616,853007184,0.16822295,-0.01980215,0.15620495,-0.9730928,5.382104873657227,-16.809917449951172,17.059425354003906,187.92758178710938,-204.79600524902344, -14.6983642578125
617,853023851,0.17409849,-0.038569044,0.13798277,-0.97425026,0.9783214926719666,1.3465992212295532,20.392431259155273,102.9439697265625,-152.27845764160156, 16.826417922973633
618,853040518,0.17806557,-0.052074183,0.1400939,-0.9726023,1.9294860363006592,-0.033879317343235016,20.36947250366211,-30.16033363342285,-91.60166931152344, 17.786231994628906
619,853057185,0.18112879,-0.06385751,0.16425906,-0.96754044,-1.6428451538085938,0.6077000498771667,20.239336013793945,-179.17478942871094,-53.43284606933594, 25.489849090576172
620,853073852,0.18434004,-0.07302301,0.18653302,-0.96223307,-3.358149528503418,-4.243875026702881,18.967262268066406,-163.5609893798828,-38.65842056274414, 28.915237426757812
621,853090519,0.18716006,-0.079592794,0.19902375,-0.95865875,-5.928010940551758,-1.6536215543746948,18.19355010986328,-93.50806427001953,-32.53181076049805, 22.544321060180664
622,853107186,0.18750592,-0.08553658,0.20655699,-0.9564833,-8.7614107131958,-0.7149159908294678,17.76457977294922,-59.48176956176758,-30.667694091796875, 2.5707552433013916
623,853123853,0.18550475,-0.09144962,0.20772512,-0.9560732,-7.548604965209961,-2.8563637733459473,15.620792388916016,-16.481609344482422,-34.34797286987305, -18.858070373535156
624,853140520,0.18254058,-0.09571338,0.20144887,-0.95756835,-5.305771827697754,-5.439515590667725,14.7992582321167,36.65890121459961,-30.470796585083008, -29.962135314941406
625,853157187,0.17998573,-0.09987901,0.19286242,-0.95939267,-3.2178843021392822,-5.732348918914795,12.225298881530762,52.71905517578125,-33.10563278198242, -29.0804386138916
626,853173854,0.17781194,-0.10287225,0.18410027,-0.9612015,-3.9092118740081787,-4.651494026184082,13.071745872497559,55.57635498046875,-26.126819610595703, -25.125015258789062
627,853190521,0.17608117,-0.10349284,0.17814654,-0.96257436,-4.428691387176514,-3.9809677600860596,13.601221084594727,39.67890930175781,-7.908743381500244, -16.685853958129883
628,853207188,0.17522691,-0.103104055,0.17590134,-0.9631847,-4.428188323974609,-5.077328681945801,11.260689735412598,16.04499626159668,1.6151319742202759, -6.099363327026367
629,853223855,0.17504671,-0.10332519,0.17494987,-0.963367,-4.244767665863037,-5.912768363952637,10.088924407958984,6.708792686462402,-2.013235330581665, -0.9542908668518066
630,853240522,0.1746588,-0.10613122,0.17570962,-0.96299416,-3.2138655185699463,-6.2167181968688965,12.387595176696777,-8.540220260620117,-17.247243881225586, -3.570402145385742
631,853257189,0.17375542,-0.11262911,0.17791006,-0.962015,-2.90383243560791,-5.030059814453125,9.997909545898438,-23.710783004760742,-39.42498779296875, -10.6458740234375
632,853273856,0.17285052,-0.12083961,0.17855008,-0.9610626,-3.5444300174713135,-4.895594120025635,7.583293914794922,-15.471733093261719,-52.41440963745117, -14.493943214416504
633,853290523,0.17209588,-0.12801927,0.17368732,-0.9611595,-4.041616439819336,-4.73769998550415,10.502946853637695,23.66359519958496,-51.934051513671875, -16.927799224853516
634,853307190,0.17160258,-0.13155657,0.16408344,-0.9624568,-6.156553268432617,-4.165710926055908,13.61131477355957,61.158660888671875,-33.252193450927734, -15.179970741271973
635,853323857,0.1726842,-0.13780929,0.142483,-0.9648256,-14.746540069580078,0.8501240015029907,-19.268617630004883,140.08355712890625,-66.38749694824219, -19.416711807250977
636,853340524,0.17562309,-0.20103015,0.10499578,-0.9579772,50.54618453979492,-17.755781173706055,-64.6912612915039,170.44874572753906,-473.6851501464844, -68.58134460449219
637,853357191,0.17361708,-0.2234089,0.05701964,-0.9574421,25.71222496032715,-13.402168273925781,54.21336364746094,286.6398010253906,-204.4029083251953, -93.7011489868164
638,853373858,0.16596943,-0.25853637,0.05761442,-0.9498919,60.18393325805664,21.096128463745117,4.001233100891113,-59.804290771484375,-238.7993927001953, -52.85520553588867
639,853390525,0.15429354,-0.2908541,0.05542664,-0.9426168,8.203544616699219,6.854689121246338,25.936321258544922,-45.56099319458008,-221.2267608642578, -83.18540954589844
640,853407192,0.14880909,-0.30966127,0.05595438,-0.93746245,-5.651664733886719,-9.00943374633789,15.781394004821777,-35.66616439819336,-128.89083862304688, -34.69557189941406
641,853423859,0.14405629,-0.3180933,0.06324296,-0.9349149,-13.368154525756836,-2.129307746887207,7.543056488037109,-66.04319763183594,-49.90492248535156, -14.29914379119873
642,853440526,0.14090553,-0.31863844,0.071043365,-0.9346492,-17.389909744262695,3.879284620285034,3.485914468765259,-57.03990173339844,5.493572235107422, -1.7283779382705688
643,853457193,0.13772084,-0.31405202,0.076507255,-0.9362435,-18.226016998291016,0.9908260703086853,4.219600677490234,-36.261417388916016,40.18821334838867, -6.357676029205322
644,853473860,0.13601983,-0.3031245,0.07373393,-0.9403077,-15.195165634155273,-2.56941294670105,8.059600830078125,27.240407943725586,77.65007019042969, -13.607938766479492
645,853490527,0.13698182,-0.28401595,0.06839822,-0.94651663,-5.437411308288574,-3.057445526123047,11.48380184173584,58.08722686767578,131.17098999023438, 0.3874906301498413
646,853507194,0.14163348,-0.25524116,0.06693362,-0.95410335,5.820494651794434,0.43428274989128113,11.343208312988281,49.85517501831055,198.64111328125, 35.197879791259766
647,853523861,0.15008329,-0.21707381,0.07102149,-0.961931,8.685747146606445,8.001198768615723,8.322229385375977,29.344717025756836,264.3824462890625, 73.96672058105469
648,853540528,0.15969482,-0.16657552,0.08416837,-0.9693642,14.123374938964844,7.548642635345459,5.638324737548828,-16.36628532409668,354.2552185058594, 101.65132904052734
649,853557195,0.16554084,-0.09784678,0.1104934,-0.97509724,29.607784271240234,-2.6496756076812744,11.310914993286133,-89.59711456298828,490.8009948730469, 104.12896728515625
650,853573862,0.16901642,-0.013980048,0.1390088,-0.97566164,26.974082946777344,-13.454636573791504,17.546836853027344,-92.615966796875,593.790283203125, 106.33525848388672
651,853590529,0.16661124,0.040045142,0.14340007,-0.9747177,25.74114227294922,0.022807851433753967,-24.093421936035156,32.72337341308594,370.3934326171875, 38.522769927978516
652,853607196,0.16899878,0.033535942,0.18323062,-0.9678545,-9.487370491027832,-19.82547378540039,-28.25972557067871,-281.3923034667969,2.1223936080932617, 7.9965386390686035
653,853623863,0.16805692,0.00004196349,0.18803862,-0.9676773,-2.2681455612182617,-4.021355152130127,0.3749946057796478,-70.33468627929688,-215.62628173828125, -47.88363265991211
654,853640530,0.17305021,-0.035407722,0.14894545,-0.9729421,10.36020278930664,-22.805452346801758,12.142696380615234,226.82073974609375,-286.4873046875, -19.1982479095459
655,853657197,0.17896803,-0.0647185,0.11935694,-0.974442,5.386116027832031,7.9924421310424805,23.124563217163086,166.7885284423828,-236.51292419433594, 2.056122064590454
656,853673864,0.18246223,-0.088711195,0.12668397,-0.97097385,3.351806879043579,-0.7657617330551147,25.741111755371094,-79.2562255859375,-155.5996551513672, 12.736169815063477
657,853690531,0.18285769,-0.10169531,0.15061787,-0.9661971,-3.3417420387268066,-0.11267411708831787,28.454469680786133,-179.36087036132812,-59.35384750366211, 13.422537803649902
658,853707198,0.18414515,-0.104369424,0.1762538,-0.96131855,-5.984564304351807,-4.227931022644043,24.43829917907715,-177.2016143798828,10.260552406311035, 31.348621368408203
659,853723865,0.18579759,-0.102656566,0.19823922,-0.9568926,-8.05724811553955,-1.257756233215332,20.97066307067871,-146.7037811279297,34.47678756713867, 35.876686096191406
660,853740532,0.18520635,-0.10267436,0.21716383,-0.9528891,-8.28806209564209,-4.617274761199951,15.953604698181152,-129.80361938476562,22.48621368408203, 16.041580200195312
661,853757199,0.1823959,-0.1040961,0.22514382,-0.95142376,-5.558779239654541,-6.645884037017822,13.531367301940918,-57.663238525390625,4.409055709838867, -11.574790000915527
662,853773866,0.17927133,-0.10631112,0.22577007,-0.9516244,-2.774327516555786,-5.315889835357666,14.578625679016113,-8.194353103637695,-8.354817390441895, -22.22891616821289
663,853790533,0.17802776,-0.10976965,0.225993,-0.9514122,-2.2372400760650635,-4.041896820068359,13.684311866760254,-6.357738018035889,-20.22780990600586, -11.647757530212402
664,853807200,0.17781211,-0.11253086,0.22470222,-0.95143574,-2.5778772830963135,-4.880651473999023,12.420055389404297,5.530513286590576,-18.955217361450195, -5.278529167175293
665,853823867,0.17803791,-0.11361603,0.22112766,-0.9521018,-2.8698058128356934,-5.573757648468018,11.486658096313477,23.84953498840332,-10.986645698547363, -2.363584280014038
666,853840534,0.17761834,-0.11529197,0.2178303,-0.9527385,-3.080589532852173,-6.296403884887695,11.326142311096191,20.764205932617188,-13.576286315917969, -7.245119094848633
667,853857201,0.17624055,-0.11792117,0.2128304,-0.9538021,-2.3727920055389404,-7.228546619415283,12.512092590332031,30.638057708740234,-20.147014617919922, -16.83329963684082
668,853873868,0.17403337,-0.12180146,0.20542955,-0.95534116,-2.302295207977295,-5.896981716156006,14.356143951416016,44.900611877441406,-29.679119110107422, -26.637699127197266
669,853890535,0.17190666,-0.12555155,0.1970088,-0.9570129,-3.6841611862182617,-5.477627277374268,13.339550018310547,51.885650634765625,-29.594491958618164, -27.986234664916992
670,853907202,0.17107219,-0.1285096,0.18491669,-0.9591802,-4.5759053230285645,-5.841918468475342,10.164597511291504,78.69120788574219,-29.884790420532227, -22.669780731201172
671,853923869,0.17147216,-0.12965213,0.17023909,-0.96166915,-3.285407543182373,-5.909780979156494,8.709077835083008,99.421142578125,-22.455631256103516, -14.55252742767334
672,853940536,0.17208402,-0.12962286,0.15615949,-0.9639506,-3.09515380859375,-5.162425518035889,10.27394962310791,97.08969116210938,-15.232011795043945, -9.024266242980957
673,853957203,0.17053907,-0.12802352,0.14343798,-0.96641254,-6.881285190582275,-2.8721280097961426,9.697286605834961,88.34485626220703,-1.0106295347213745, -19.8544864654541
674,853973870,0.17446937,-0.19340742,0.115799904,-0.95851225,11.172353744506836,-10.41728687286377,-107.50472259521484,103.35628509521484,-478.0063781738281, -52.16006851196289
675,853990537,0.167928,-0.20876916,0.059674215,-0.96159035,41.4321174621582,-18.682077407836914,61.264305114746094,346.0992431640625,-159.15162658691406, -132.4127197265625
676,854007204,0.15827604,-0.24389073,0.058030374,-0.95503926,63.57688903808594,26.05803680419922,11.551070213317871,-45.44900131225586,-239.2456817626953, -71.71778869628906
677,854023871,0.14761393,-0.2754258,0.058017,-0.94814867,4.271685600280762,6.254903316497803,28.027202606201172,-54.1928596496582,-213.7567901611328, -73.66835021972656
678,854040538,0.14313817,-0.29207918,0.054119345,-0.94407296,-7.127106189727783,-6.823001861572266,11.92359733581543,-0.9553666114807129,-117.82975006103516, -37.590938568115234
679,854057205,0.14144251,-0.299299,0.057258267,-0.9418796,-14.763675689697266,-2.136050224304199,7.820467948913574,-31.04665184020996,-46.99602508544922, -3.789069652557373
680,854073872,0.14035545,-0.29856503,0.06423582,-0.94182503,-14.29426383972168,6.391928672790527,3.858120918273926,-46.08723831176758,12.300429344177246, 9.082998275756836
681,854090539,0.137587,-0.29143742,0.069148436,-0.9441154,-12.857333183288574,-2.115368127822876,4.794975757598877,-29.011184692382812,57.171043395996094, -5.469210624694824
682,854107206,0.13453211,-0.27625975,0.06841975,-0.9491585,-12.76571273803711,-6.489107131958008,6.215320110321045,15.947882652282715,109.65758514404297, -17.427715301513672
683,854123873,0.13361281,-0.25229636,0.068203524,-0.9559518,-7.081790924072266,-1.1485726833343506,10.47338581085205,25.62330436706543,169.7106475830078, -0.036156076937913895
684,854140540,0.13720764,-0.21951118,0.07288683,-0.96316034,1.92805016040802,1.9628067016601562,10.228716850280762,9.541373252868652,230.76010131835938, 41.88425827026367
685,854157207,0.14596686,-0.1757577,0.07787981,-0.97043246,9.5086030960083,8.226531982421875,6.564651012420654,25.650543212890625,301.2404479980469, 82.01517486572266
686,854173874,0.15532376,-0.11624558,0.091882035,-0.9766887,20.80386734008789,6.415374755859375,6.006279468536377,-18.541000366210938,414.0791320800781, 106.41431427001953
687,854190541,0.16263442,-0.037910488,0.119761065,-0.9786581,42.855873107910156,-6.921980857849121,18.93199920654297,-96.11300659179688,553.6466674804688, 120.32902526855469
688,854207208,0.16752781,0.043332297,0.13936116,-0.9750059,5.993691444396973,-9.47501277923584,10.630136489868164,-42.231075286865234,564.9431762695312, 109.763671875
